rotation_x,rotation_y,rotation_z,acceleration_x,acceleration_y,acceleration_z
0.12959133088588715,0.5734641551971436,0.22570383548736572,0.07506532967090607,-0.04392296075820923,0.06573694944381714
-0.009153161197900772,0.4787123501300812,0.16728802025318146,0.08590682595968246,-0.02161407470703125,0.0897676944732666
-0.08950255811214447,0.17447446286678314,0.18229825794696808,0.12021264433860779,-0.02156969904899597,0.04468262195587158
-0.16321617364883423,0.015869788825511932,0.29274865984916687,0.17976675927639008,-0.025293678045272827,0.03778737783432007
-0.21295909583568573,0.07220961153507233,0.38711830973625183,0.18106640875339508,-0.05171254277229309,0.04695993661880493
-0.19077835977077484,0.143229678273201,0.4092995524406433,0.15009738504886627,-0.05448395013809204,0.05492663383483887
-0.1470767855644226,0.21621312201023102,0.4342345595359802,0.15251430869102478,-0.045979440212249756,0.0754651427268982
-0.10021881759166718,0.41857877373695374,0.4061914086341858,0.11231037974357605,-0.028255105018615723,0.09890639781951904
-0.038752492517232895,0.6151208877563477,0.502509593963623,0.15617235004901886,-0.016593754291534424,0.11293214559555054
-0.015182164497673512,0.6658517718315125,0.7114490270614624,0.21672587096691132,-0.009766608476638794,0.08616393804550171
-0.052527446299791336,0.705530047416687,0.7219723463058472,0.18171729147434235,-0.0008830428123474121,0.12908339500427246
-0.15669648349285126,0.6786476373672485,0.6133299469947815,0.08756949007511139,-0.033054202795028687,0.18347430229187012
-0.22064289450645447,0.29639434814453125,0.4883182644844055,0.012357592582702637,-0.03351324796676636,0.220847487449646
-0.16758476197719574,0.23804034292697906,0.5277840495109558,0.05407997965812683,0.017501920461654663,0.2485916018486023
0.025868646800518036,0.6805346012115479,0.7355316281318665,0.19031912088394165,0.0021012425422668457,0.1736789345741272
0.11115950345993042,1.1622042655944824,0.8557032942771912,0.19414456188678741,-0.018288373947143555,0.11889851093292236
0.0720701813697815,1.2121078968048096,0.8333919644355774,0.12994875013828278,-4.708766937255859e-06,0.06114691495895386
0.025192365050315857,0.970680832862854,0.7780661582946777,0.07887201011180878,0.01445847749710083,0.06355035305023193
-0.0389288067817688,0.6562424898147583,0.5852792263031006,0.07624825835227966,0.04451119899749756,0.13627368211746216
-0.17208239436149597,0.5801125168800354,0.2616843581199646,0.05132473632693291,0.10959544777870178,0.21718287467956543
-0.33629152178764343,1.0180141925811768,0.15319855511188507,0.023318640887737274,0.05574220418930054,0.28300511837005615
-0.7080942988395691,1.3059672117233276,0.08535614609718323,-0.03240801393985748,-0.005248069763183594,0.2452075481414795
-1.2503089904785156,1.1639642715454102,-0.05255680903792381,-0.028253957629203796,0.015129774808883667,0.2721374034881592
-1.4598822593688965,0.5660284161567688,-0.03584715723991394,0.028689995408058167,0.06379073858261108,0.29726117849349976
-1.4053977727890015,0.2898865342140198,0.21646848320960999,0.03877916932106018,0.014834374189376831,0.33053165674209595
-0.801531970500946,1.0888710021972656,0.0574493370950222,-0.08535988628864288,0.06925639510154724,0.13542264699935913
-0.2073027640581131,1.8347458839416504,-0.2864447236061096,-0.23504072427749634,0.0864081084728241,0.008051931858062744
-0.4747771620750427,1.726420521736145,-0.558490514755249,-0.2620772421360016,0.06705164909362793,0.191156268119812
-0.9405779242515564,1.3096293210983276,-0.6635793447494507,-0.16748663783073425,0.07499001920223236,0.3523562550544739
-0.9195152521133423,1.3931678533554077,-0.5804727077484131,-0.03012576699256897,0.0953163206577301,0.28537797927856445
-0.2958621382713318,2.0511474609375,-0.7595968842506409,-0.08091732859611511,0.14672298729419708,0.07539582252502441
0.5037850737571716,2.9697265625,-1.146835207939148,-0.20343321561813354,0.16448600590229034,-0.01669090986251831
1.0872279405593872,3.610088586807251,-1.4754359722137451,-0.20893511176109314,0.18238064646720886,0.025901973247528076
1.1868795156478882,4.002023696899414,-1.5792850255966187,-0.046797990798950195,0.23745262622833252,0.15959078073501587
0.881108820438385,4.517248630523682,-1.515974521636963,0.18017053604125977,0.2420261949300766,0.2254638671875
0.4607905447483063,4.410094738006592,-1.604128360748291,0.17730826139450073,0.21172615885734558,0.1434580683708191
0.18424402177333832,3.6340060234069824,-1.8115476369857788,0.20650798082351685,0.2333947718143463,-0.02250450849533081
-0.1552741825580597,2.713945150375366,-1.9036240577697754,0.2541624903678894,0.2708672881126404,-0.07271206378936768
-0.5479117631912231,2.3236448764801025,-1.8407222032546997,0.3765738606452942,0.25277572870254517,0.012471556663513184
-0.7693718671798706,2.495572805404663,-1.7688206434249878,0.4368184208869934,0.23989707231521606,-0.026701629161834717
-1.0012381076812744,2.529897928237915,-1.843044400215149,0.39008355140686035,0.23859822750091553,-0.10132056474685669
-1.147262454032898,2.412787437438965,-1.8500343561172485,0.3650752902030945,0.2569163143634796,-0.20704233646392822
-1.3112462759017944,2.2429895401000977,-1.7427407503128052,0.35918164253234863,0.22219672799110413,-0.30897897481918335
-1.4922971725463867,1.8783290386199951,-1.4760302305221558,0.36253172159194946,0.16553142666816711,-0.36619138717651367
-1.5562366247177124,1.3445225954055786,-1.2333569526672363,0.3704061508178711,0.08529980480670929,-0.4104830324649811
-1.2101964950561523,1.1412720680236816,-1.0196155309677124,0.32288026809692383,0.00737839937210083,-0.5353706479072571
-0.76446133852005,1.1351441144943237,-0.7654930949211121,0.2806713581085205,-0.04896754026412964,-0.5584937334060669
-0.47032785415649414,1.0169007778167725,-0.5309702754020691,0.24039322137832642,-0.09389868378639221,-0.4879986047744751
-0.4004390835762024,0.6488897800445557,-0.3717721700668335,0.19174343347549438,-0.110581174492836,-0.38607749342918396
-0.394111692905426,0.16230067610740662,-0.32851073145866394,0.14582467079162598,-0.11111706495285034,-0.328829824924469
-0.3987523317337036,-0.14452821016311646,-0.3210793435573578,0.07745540142059326,-0.11382538080215454,-0.26027464866638184
-0.344503790140152,-0.09548016637563705,-0.33479243516921997,0.03274041414260864,-0.14309854805469513,-0.22886082530021667
-0.28771960735321045,0.027105821296572685,-0.2931043207645416,0.05210310220718384,-0.1770039200782776,-0.20655453205108643
-0.2490600347518921,0.10221715271472931,-0.15535956621170044,0.08445197343826294,-0.22468015551567078,-0.2113938331604004
-0.2203884720802307,0.03752968832850456,0.04153149202466011,0.1520063877105713,-0.2711808383464813,-0.23226305842399597
-0.2930595576763153,-0.12434445321559906,0.22891826927661896,0.19417786598205566,-0.29284027218818665,-0.24069958925247192
-0.32813388109207153,-0.27057233452796936,0.424335777759552,0.2079683542251587,-0.299373984336853,-0.2464355230331421
-0.26958566904067993,-0.32915276288986206,0.5877894759178162,0.20993423461914062,-0.29620081186294556,-0.28145062923431396
-0.20164325833320618,-0.3339499533176422,0.7326032519340515,0.20589351654052734,-0.27483153343200684,-0.2783249318599701
-0.185762420296669,-0.3244962692260742,0.8152590394020081,0.19942331314086914,-0.2664995491504669,-0.27376440167427063
-0.19997894763946533,-0.41947752237319946,0.8950996398925781,0.22028344869613647,-0.2541451156139374,-0.2650200128555298
-0.1428658366203308,-0.5143269300460815,0.9783972501754761,0.25889527797698975,-0.2479575276374817,-0.30242252349853516
-0.034910619258880615,-0.6826671957969666,1.0537021160125732,0.27226030826568604,-0.22337263822555542,-0.3247126340866089
0.07146414369344711,-0.8016820549964905,1.1365846395492554,0.25852060317993164,-0.20881783962249756,-0.311232328414917
0.17804820835590363,-0.7752057909965515,1.212526798248291,0.24493658542633057,-0.18889811635017395,-0.2803471088409424
0.2729272246360779,-0.6277173757553101,1.2157104015350342,0.25465357303619385,-0.13879087567329407,-0.24529802799224854
0.3675794005393982,-0.3886706233024597,1.2009787559509277,0.2341766357421875,-0.12020093202590942,-0.2296905517578125
0.46968501806259155,-0.2309250682592392,1.2315407991409302,0.2578299045562744,-0.14960011839866638,-0.2586826980113983
0.5266216397285461,-0.392339825630188,1.3418041467666626,0.28285956382751465,-0.16973358392715454,-0.29723209142684937
0.5588461756706238,-0.7169889211654663,1.5690174102783203,0.26301491260528564,-0.16163977980613708,-0.2935658097267151
0.648170530796051,-0.990847647190094,1.7370991706848145,0.16481685638427734,-0.13336893916130066,-0.2753472328186035
0.8779886960983276,-1.0470845699310303,1.7683629989624023,0.02409207820892334,-0.07825389504432678,-0.27056747674942017
1.2310758829116821,-0.9573245644569397,1.7978399991989136,-0.009616255760192871,-0.016306601464748383,-0.2671685516834259
1.4784350395202637,-0.9168077707290649,1.8330707550048828,0.0378534197807312,0.029414668679237366,-0.24291077256202698
1.5905332565307617,-0.9501197338104248,1.8333896398544312,0.10731339454650879,0.11106830835342407,-0.18429088592529297
1.5074995756149292,-0.9347832798957825,1.8236943483352661,0.15353763103485107,0.1746816486120224,-0.1168866753578186
1.2867367267608643,-0.8939124345779419,1.8645000457763672,0.2232363224029541,0.17115354537963867,-0.06536847352981567
1.137502670288086,-0.9837603569030762,1.9326255321502686,0.24691730737686157,0.17121988534927368,-0.046986401081085205
1.1552313566207886,-1.1832743883132935,2.070556402206421,0.2973664402961731,0.16843688488006592,-0.11265188455581665
1.1061352491378784,-1.409182071685791,2.101588249206543,0.27609336376190186,0.19516688585281372,-0.07270729541778564
1.065982699394226,-1.4488484859466553,1.985744595527649,0.1891251802444458,0.23839151859283447,-0.022812962532043457
1.1108328104019165,-1.4746918678283691,1.9619477987289429,0.19802618026733398,0.22875189781188965,-0.04454416036605835
1.1007317304611206,-1.4990193843841553,1.9335983991622925,0.2127150297164917,0.21923905611038208,-0.010646581649780273
1.187673807144165,-1.3962113857269287,1.96161949634552,0.2654927968978882,0.21546369791030884,-0.02460843324661255
1.335863709449768,-1.218139410018921,1.8398021459579468,0.2131233811378479,0.21945011615753174,-0.03610813617706299
1.3932418823242188,-1.1260569095611572,1.6781336069107056,0.18128395080566406,0.2234358787536621,-0.03449898958206177
1.2637970447540283,-1.1441017389297485,1.5884461402893066,0.20194405317306519,0.1832905411720276,0.018215596675872803
1.1792576313018799,-1.2405301332473755,1.6186705827713013,0.28084468841552734,0.15682923793792725,0.007382750511169434
1.0565268993377686,-1.3635451793670654,1.5928223133087158,0.26453739404678345,0.1576595902442932,0.01735609769821167
1.0748662948608398,-1.3915600776672363,1.4942471981048584,0.21605238318443298,0.18194085359573364,0.009482085704803467
1.202257513999939,-1.353284478187561,1.3776367902755737,0.20250222086906433,0.18124139308929443,-0.03707742691040039
1.3432974815368652,-1.3719842433929443,1.3429701328277588,0.19076386094093323,0.19416195154190063,-0.0311909019947052
1.5005931854248047,-1.3018203973770142,1.3721709251403809,0.22033721208572388,0.19839578866958618,-0.03076055645942688
1.4880203008651733,-1.0947000980377197,1.3592917919158936,0.21672096848487854,0.19202768802642822,0.027423977851867676
1.4560880661010742,-0.9457224011421204,1.2972100973129272,0.15664400160312653,0.18728560209274292,0.044371455907821655
1.6102079153060913,-0.8691644072532654,1.184788703918457,0.11808103322982788,0.19234007596969604,-0.001294255256652832
1.8116939067840576,-0.7574012279510498,0.9941322207450867,0.0461193323135376,0.2325085997581482,-0.027759134769439697
1.9098042249679565,-0.6833781599998474,0.9932076930999756,0.05344653129577637,0.2453203797340393,-0.013471901416778564
1.829655647277832,-0.7293734550476074,0.9790313839912415,0.11169403791427612,0.24184691905975342,0.037408292293548584
1.7175430059432983,-0.6445580124855042,0.8718931078910828,0.08579075336456299,0.25582075119018555,0.061190128326416016
1.4680923223495483,-0.473270446062088,0.9481595158576965,0.07415660470724106,0.2387341856956482,0.12131717801094055
1.2038755416870117,-0.5454128384590149,1.1261831521987915,0.09178175777196884,0.22473514080047607,0.1507120281457901
0.9553515911102295,-0.7210919857025146,1.1671948432922363,0.027195215225219727,0.20396697521209717,0.14273113012313843
0.6521477103233337,-0.7076365351676941,0.8635423183441162,-0.10334694385528564,0.20916670560836792,0.15098817646503448
0.3911733627319336,-0.5992090106010437,0.49614575505256653,-0.1783556044101715,0.23517203330993652,0.16791367530822754
0.38502395153045654,-0.5577637553215027,0.2665088176727295,-0.10684177279472351,0.2619785666465759,0.09445442259311676
0.5082816481590271,-0.5773391127586365,0.2764124870300293,-0.04882267117500305,0.27523738145828247,0.01651895046234131
0.569402277469635,-0.6763343811035156,0.46570348739624023,0.017954736948013306,0.26466500759124756,-0.003071904182434082
0.6125900745391846,-0.7406983375549316,0.5827894806861877,0.03130504488945007,0.2706744074821472,-0.007587313652038574
0.6333867311477661,-0.6465768218040466,0.5978904366493225,-0.020752310752868652,0.305614173412323,-0.0011034011840820312
0.6554998159408569,-0.4902884364128113,0.5451074242591858,-0.058230191469192505,0.33254826068878174,-0.0034203529357910156
0.5943628549575806,-0.2692558765411377,0.39241889119148254,-0.12136724591255188,0.37541472911834717,0.01710134744644165
0.48976582288742065,-0.16725286841392517,0.23356518149375916,-0.13314571976661682,0.38495635986328125,0.02332770824432373
0.3810778558254242,-0.18423885107040405,0.1261342316865921,-0.12084510922431946,0.36328136920928955,-0.007334351539611816
0.2934170663356781,-0.2674154043197632,0.08839812874794006,-0.11049655079841614,0.3214818239212036,-0.03640878200531006
0.205646350979805,-0.3161495327949524,0.04250091686844826,-0.13656261563301086,0.28851693868637085,-0.06070345640182495
0.10587234795093536,-0.24051018059253693,-0.10283603519201279,-0.17732438445091248,0.2577838897705078,-0.06991081684827805
-0.15628229081630707,-0.26445263624191284,-0.3369083106517792,-0.1712166965007782,0.25908970832824707,-0.04084836691617966
-0.48658400774002075,-0.3565073311328888,-0.5667383074760437,-0.11867599934339523,0.2667768597602844,-0.004465334117412567
-0.7103604674339294,-0.5237946510314941,-0.7711072564125061,-0.07206933945417404,0.26250743865966797,0.0013041645288467407
-0.7002348303794861,-0.6277181506156921,-0.7762231826782227,-0.007674302905797958,0.25006282329559326,-0.039589397609233856
-0.6168826222419739,-0.6763564944267273,-0.6707236766815186,0.023696009069681168,0.22539031505584717,-0.05309019982814789
-0.6250349283218384,-0.574233889579773,-0.6342476606369019,-0.009854971431195736,0.24054807424545288,-0.026267632842063904
-0.7213663458824158,-0.3632206618785858,-0.671929121017456,-0.0525127649307251,0.2594444751739502,-0.002224564552307129
-0.7841214537620544,-0.36759883165359497,-0.8633811473846436,-0.1020193099975586,0.2705891728401184,-0.01846201717853546
-0.7118610143661499,-0.4573666453361511,-1.1783394813537598,-0.14475572109222412,0.2619035243988037,-0.06074881553649902
-0.6748085021972656,-0.5213742852210999,-1.3517271280288696,-0.13701412081718445,0.23360532522201538,-0.05345247685909271
-0.8807970285415649,-0.5601518750190735,-1.3666356801986694,-0.10156101733446121,0.19288569688796997,0.028496891260147095
-1.1791943311691284,-0.38216426968574524,-1.3430793285369873,-0.06984828412532806,0.17700111865997314,0.09726718068122864
-1.0352153778076172,-0.03696710616350174,-1.2493617534637451,-0.052074626088142395,0.1963953971862793,0.03583291172981262
-0.49023351073265076,0.3313995599746704,-1.2155115604400635,-0.0263795405626297,0.1879754662513733,-0.10908827185630798
-0.08276522159576416,0.38330718874931335,-1.312169075012207,-0.04692588746547699,0.17435431480407715,-0.12170407176017761
-0.04756788909435272,0.26451125741004944,-1.3643866777420044,-0.022891104221343994,0.15365254878997803,-0.06625086069107056
-0.20199187099933624,0.15075598657131195,-1.3630733489990234,0.008909046649932861,0.12194854021072388,0.00875389575958252
-0.225007563829422,0.058016613125801086,-1.330832600593567,0.011209547519683838,0.09924739599227905,-0.016263723373413086
-0.35247111320495605,-0.07212726771831512,-1.4091007709503174,-0.04068443179130554,0.06891477108001709,-0.003681361675262451
-0.49083298444747925,-0.25098344683647156,-1.335899829864502,-0.008564561605453491,0.06498479843139648,0.06435230374336243
-0.3747154772281647,-0.13630522787570953,-1.2032763957977295,0.036213696002960205,0.05453449487686157,0.0069606006145477295
-0.06865556538105011,0.15661998093128204,-1.330165147781372,-0.0625852644443512,0.08596867322921753,-0.06670629978179932
0.1310267299413681,0.5162108540534973,-1.7406178712844849,-0.18339818716049194,0.11090075969696045,-0.08525678515434265
0.10490000247955322,0.8198022842407227,-2.2447187900543213,-0.2535725235939026,0.07859492301940918,-0.016418099403381348
-0.01932891085743904,0.8378751873970032,-2.6038336753845215,-0.2082829475402832,0.0590628981590271,0.02878531813621521
-0.12061882764101028,0.5350052118301392,-2.7270736694335938,-0.15206211805343628,0.06650424003601074,0.021994590759277344
-0.07464338839054108,0.24841463565826416,-2.347346067428589,0.0532684326171875,0.0965222716331482,1.3232231140136719e-05
0.13258814811706543,0.4117662012577057,-1.950227975845337,0.20395618677139282,0.022127270698547363,-0.08926552534103394
0.42465972900390625,0.7062957286834717,-2.083753824234009,0.06968724727630615,0.022114932537078857,-0.12544339895248413
0.7136545777320862,0.9388585090637207,-2.4092793464660645,-0.03621178865432739,0.06877070665359497,-0.14563266932964325
0.5816643834114075,0.8607409000396729,-2.4730303287506104,0.08266103267669678,0.10427975654602051,-0.03585374355316162
-0.11551440507173538,0.5055232644081116,-2.2672626972198486,0.3231261372566223,-0.01174306869506836,0.07930412888526917
-0.9758003950119019,-0.16342416405677795,-1.6784288883209229,0.5040838122367859,-0.14372950792312622,0.16525579988956451
-1.3697736263275146,-0.6269261240959167,-1.291175127029419,0.41873472929000854,-0.18555396795272827,0.09597814083099365
-1.1709399223327637,-0.5600454807281494,-1.4734958410263062,0.07802003622055054,-0.04437369108200073,0.0014934241771697998
-0.656697154045105,-0.03373125195503235,-1.9274805784225464,-0.19840174913406372,0.09505438804626465,-0.03907397389411926
-0.06775306910276413,0.6410338878631592,-2.1751558780670166,-0.13147848844528198,0.16466951370239258,-0.026451706886291504
0.1917978823184967,1.0370547771453857,-1.9576865434646606,0.15677398443222046,0.0710996687412262,-0.037418097257614136
0.014695268124341965,0.9731165170669556,-1.6886776685714722,0.28186607360839844,0.012325525283813477,0.026763394474983215
-0.3698360323905945,0.7077294588088989,-1.7831041812896729,0.14611589908599854,0.07498973608016968,0.10416251420974731
-0.702619194984436,0.4742383062839508,-2.1172399520874023,-0.03394407033920288,0.19076094031333923,0.11947353184223175
-0.7868852019309998,0.41525620222091675,-2.359285831451416,-0.044423818588256836,0.2813796401023865,0.08313974738121033
-0.613219678401947,0.6405805349349976,-2.2899954319000244,0.10789912939071655,0.25619712471961975,0.028857126832008362
-0.3184373378753662,0.9661192893981934,-2.1476621627807617,0.26139479875564575,0.16241681575775146,-0.038242459297180176
-0.158910870552063,1.0900375843048096,-2.2358639240264893,0.2096908688545227,0.10960423946380615,-0.045613452792167664
-0.16167494654655457,0.9463210105895996,-2.4028570652008057,0.14112871885299683,0.10760422050952911,-0.048538848757743835
-0.2553868591785431,0.6646791696548462,-2.4901483058929443,0.18880951404571533,0.10811260342597961,-0.058753252029418945
-0.2960928976535797,0.5600838661193848,-2.4971137046813965,0.234963059425354,0.09278364479541779,-0.07107686996459961
-0.17479681968688965,0.59061199426651,-2.402803421020508,0.29678118228912354,0.04694133251905441,-0.11794000118970871
0.14964941143989563,0.7095250487327576,-2.218052864074707,0.37563377618789673,-0.008447512984275818,-0.17688065767288208
0.5488594770431519,0.841614842414856,-1.942044973373413,0.45287764072418213,-0.08463585376739502,-0.22442787885665894
0.7796576619148254,0.9836503863334656,-1.5147072076797485,0.4672476649284363,-0.1746731698513031,-0.22788894176483154
0.6998757123947144,0.8171098828315735,-1.0882823467254639,0.4462716579437256,-0.2455766648054123,-0.18001437187194824
0.45638370513916016,0.4201502799987793,-0.731094241142273,0.39590102434158325,-0.25968703627586365,-0.1288909912109375
0.25357627868652344,-0.07905407249927521,-0.3761638402938843,0.3553205728530884,-0.27812156081199646,-0.11957979202270508
0.143264502286911,-0.40295082330703735,-0.06335067003965378,0.30581873655319214,-0.2660050392150879,-0.09400742501020432
0.12581828236579895,-0.3953014016151428,0.12448184937238693,0.20274847745895386,-0.23483258485794067,-0.05497032403945923
0.1932954043149948,-0.24087421596050262,0.2385016530752182,0.10923480987548828,-0.19934362173080444,-0.03965126723051071
0.24729672074317932,-0.1404295116662979,0.2972871661186218,0.09321248531341553,-0.18372997641563416,-0.034716784954071045
0.21429499983787537,-0.1477518379688263,0.40293601155281067,0.09789443016052246,-0.18154986202716827,-0.040424175560474396
0.14962686598300934,-0.22354905307292938,0.48705941438674927,0.11407852172851562,-0.19393937289714813,-0.03599744290113449
0.09839602559804916,-0.30308303236961365,0.5256829261779785,0.11321008205413818,-0.20855368673801422,-0.048641495406627655
0.11352211236953735,-0.36417850852012634,0.6602045297622681,0.1865234375,-0.22316643595695496,-0.09017837047576904
0.19780194759368896,-0.3324907720088959,0.9346193671226501,0.2675049304962158,-0.2455025613307953,-0.1300593614578247
0.3532847464084625,-0.31973809003829956,1.2159812450408936,0.3412373661994934,-0.2519156336784363,-0.14971061050891876
0.4752069413661957,-0.3055081069469452,1.3457777500152588,0.3004814386367798,-0.21822062134742737,-0.1440247744321823
0.5528830885887146,-0.41375380754470825,1.4067466259002686,0.256061315536499,-0.17786407470703125,-0.13777995109558105
0.5867894887924194,-0.5970762372016907,1.4592020511627197,0.2856122851371765,-0.1288209706544876,-0.12779277563095093
0.6372018456459045,-0.7158623337745667,1.5040441751480103,0.3187748193740845,-0.08668254315853119,-0.12138038873672485
0.7421320080757141,-0.7326925992965698,1.4803801774978638,0.32856082916259766,-0.038206275552511215,-0.11743956804275513
0.7519592046737671,-0.7395714521408081,1.4314720630645752,0.3565903902053833,-0.06183774024248123,-0.11686812341213226
0.25137171149253845,-1.0512189865112305,1.3596060276031494,0.3616482615470886,-0.10643965005874634,-0.02922368049621582
-0.6748042106628418,-1.7806710004806519,1.5014119148254395,0.37260115146636963,-0.1226811408996582,0.08558471500873566
-1.8579373359680176,-2.8750059604644775,1.796532154083252,0.38968849182128906,-0.1369728147983551,0.2004496455192566
-2.719482421875,-4.001677513122559,2.1650288105010986,0.42020612955093384,-0.06701378524303436,0.25229766964912415
-2.1083168983459473,-3.7635223865509033,2.2688608169555664,0.3514552116394043,0.06448820233345032,0.04965206980705261
-0.09486719220876694,-2.1323487758636475,2.100879192352295,0.23359209299087524,0.12299424409866333,-0.4659622311592102
1.6126360893249512,-0.7358291149139404,2.0517709255218506,0.22217053174972534,0.13864636421203613,-0.6740859150886536
1.7858113050460815,-0.5020899176597595,2.0926880836486816,0.29677218198776245,0.1683449149131775,-0.4020630121231079
0.7959409356117249,-1.4542813301086426,2.2686169147491455,0.3896723985671997,0.14842388033866882,-0.025711387395858765
-0.14984452724456787,-2.64760160446167,2.37253999710083,0.4320451021194458,0.18922191858291626,0.1561639904975891
-0.3728652000427246,-2.988081216812134,2.2820329666137695,0.32448649406433105,0.24870100617408752,0.1021987795829773
0.20132049918174744,-2.6292073726654053,2.09356951713562,0.2141762375831604,0.3221631348133087,-0.048348426818847656
1.0717722177505493,-1.9704644680023193,1.9440182447433472,0.13807988166809082,0.3522993326187134,-0.1686255931854248
1.6240590810775757,-1.5618197917938232,1.8357009887695312,0.13843423128128052,0.39304429292678833,-0.1292428970336914
1.5471826791763306,-1.4715505838394165,1.6813721656799316,0.10715872049331665,0.40875154733657837,0.034392595291137695
1.1207417249679565,-1.618834376335144,1.5457921028137207,0.09920847415924072,0.37582266330718994,0.17702078819274902
0.9371798634529114,-1.5500365495681763,1.3965758085250854,0.07761698961257935,0.385481595993042,0.18725156784057617
0.962645947933197,-1.2361866235733032,1.203519344329834,0.06735050678253174,0.3618220090866089,0.09349644184112549
1.0315155982971191,-0.9521549344062805,1.0684878826141357,0.05858495831489563,0.345254123210907,0.047021329402923584
1.0753544569015503,-0.9395083785057068,1.0069215297698975,0.05250993371009827,0.3310135006904602,0.05783969163894653
0.9466055631637573,-1.0990384817123413,0.9764829277992249,0.09189403057098389,0.30921733379364014,0.06205582618713379
0.7917735576629639,-1.378316879272461,0.9323248267173767,0.05843129754066467,0.3124431371688843,0.11181879043579102
0.6872459650039673,-1.3960894346237183,0.8139275312423706,0.0044494569301605225,0.3040151596069336,0.12245303392410278
0.7847693562507629,-1.0866492986679077,0.6474343538284302,-0.016861826181411743,0.30263257026672363,0.09865528345108032
0.9691327214241028,-0.5875128507614136,0.49090835452079773,-0.05865180492401123,0.27410900592803955,0.055604755878448486
1.1089037656784058,-0.3264820873737335,0.5144116878509521,-0.033583372831344604,0.2509729266166687,0.013691067695617676
0.914276123046875,-0.47716015577316284,0.6025915741920471,0.021280616521835327,0.22894322872161865,0.0751810073852539
0.38561972975730896,-0.8679624795913696,0.5479052066802979,-0.0027701109647750854,0.2161756157875061,0.15939092636108398
-0.14652511477470398,-1.2661372423171997,0.4340457320213318,-0.041358187794685364,0.20891648530960083,0.19635319709777832
-0.37995457649230957,-1.3454715013504028,0.32762014865875244,-0.05067415535449982,0.2022196650505066,0.1574251651763916
-0.22315195202827454,-0.9800040125846863,0.22257113456726074,-0.06725671887397766,0.20845389366149902,0.041489601135253906
0.009416818618774414,-0.4740966260433197,0.20795083045959473,-0.06854431331157684,0.19334697723388672,-0.03457552194595337
0.16513217985630035,-0.2567432224750519,0.18112023174762726,-0.09561027586460114,0.18294602632522583,-0.053223609924316406
0.1209762915968895,-0.2831425964832306,0.0689699575304985,-0.12444635480642319,0.192651629447937,-0.035026371479034424
-0.07621181756258011,-0.494240939617157,-0.12274353206157684,-0.16082563996315002,0.20478373765945435,-0.001607060432434082
-0.40012431144714355,-0.6840710043907166,-0.33400198817253113,-0.20583805441856384,0.2146446704864502,0.06653708219528198
-0.6236489415168762,-0.7170844078063965,-0.5005425214767456,-0.17243531346321106,0.16857469081878662,0.08821004629135132
-0.6221450567245483,-0.7013421654701233,-0.4618203341960907,-0.13109341263771057,0.12826937437057495,0.07906782627105713
-0.4417036771774292,-0.5007064342498779,-0.336017906665802,-0.15358075499534607,0.15262705087661743,0.0292510986328125
-0.3041064441204071,-0.18905475735664368,-0.204534113407135,-0.18323859572410583,0.10990822315216064,-0.005799770355224609
-0.1906847208738327,-0.09651567041873932,-0.003523625899106264,-0.1170685738325119,0.09932136535644531,-0.03612089157104492
-0.05873291194438934,-0.223363995552063,0.11871850490570068,-0.06691556423902512,0.11177688837051392,-0.036447107791900635
0.030791085213422775,-0.44075891375541687,0.04316854104399681,-0.07509877532720566,0.11357700824737549,0.0005035996437072754
-0.0022495605517178774,-0.44926202297210693,-0.17421095073223114,-0.09419034421443939,0.09986412525177002,0.08847343921661377
-0.11286888271570206,-0.2477482110261917,-0.27314767241477966,-0.05896177142858505,0.04286128282546997,0.11995154619216919
-0.1506354957818985,0.16737088561058044,-0.13492777943611145,-0.020542994141578674,0.0028105974197387695,0.09063178300857544
-1.1505237817764282,-0.7959041595458984,-0.14830662310123444,0.034358516335487366,0.02652353048324585,0.030002295970916748
-1.4284132719039917,-0.9624232649803162,0.04275209456682205,0.16029305756092072,-0.049908339977264404,-0.015122532844543457
-1.5532965660095215,-0.6566309332847595,0.09868697822093964,0.08921806514263153,-0.08230787515640259,-0.03252333402633667
-1.081640362739563,-0.7642123699188232,0.04510093107819557,0.02693236991763115,-0.08271247148513794,-0.02887779474258423
-0.5770671963691711,-0.3984072208404541,0.1744636446237564,-0.0320163369178772,-0.05881643295288086,-0.07766437530517578
0.024132536724209785,0.48923879861831665,0.5026707053184509,-0.014346182346343994,-0.024924159049987793,-0.08435225486755371
0.9147850275039673,1.3510054349899292,0.8627168536186218,0.0387192964553833,0.05988508462905884,-0.12718576192855835
1.7854390144348145,1.5146231651306152,1.091491460800171,0.11521603167057037,0.09870767593383789,-0.1272944211959839
2.0895016193389893,1.15972101688385,0.9605711698532104,0.05939623713493347,0.0721735954284668,-0.0001372694969177246
1.6694868803024292,0.74676513671875,0.39364349842071533,0.00964757427573204,0.014940619468688965,0.1134679913520813
0.8295624852180481,0.5481452941894531,-0.2638481855392456,-0.038058821111917496,0.14135032892227173,0.20094025135040283
0.07291994243860245,0.10835206508636475,-0.55851149559021,-0.12504856288433075,0.2305881381034851,0.22489702701568604
-0.7058338522911072,0.78619784116745,-0.15351152420043945,-0.07828135788440704,0.21931922435760498,0.1941601037979126
-0.9321446418762207,1.8142356872558594,0.5267028212547302,-0.0008916705846786499,0.26445484161376953,0.08078634738922119
-0.6188772916793823,1.7791062593460083,0.9119893908500671,0.08875930309295654,0.21602225303649902,-0.12788718938827515
-0.4621093273162842,0.9135186672210693,0.4572620093822479,0.14428205788135529,0.1679675579071045,-0.06522166728973389
-0.3891552984714508,0.6179273724555969,0.06079687550663948,0.10056845843791962,0.14271515607833862,0.08209168910980225
-0.29081594944000244,0.18953198194503784,-0.1448931097984314,-0.024238266050815582,0.14598041772842407,0.1926599144935608
-0.09051432460546494,0.34862929582595825,-0.22033214569091797,0.018317148089408875,0.0874258279800415,0.07725465297698975
0.09127591550350189,0.9010114669799805,-0.13887378573417664,0.10771964490413666,0.08385264873504639,-0.06072503328323364
0.41035670042037964,1.286415934562683,0.1479065865278244,0.17471998929977417,0.12197738885879517,-0.11357033252716064
0.587071418762207,1.4794429540634155,0.4849317669868469,0.13040326535701752,0.18140548467636108,-0.0708463191986084
0.2501177489757538,0.6196229457855225,0.32811686396598816,0.016753405332565308,0.21584153175354004,0.10000848770141602
-0.2970859408378601,0.3016520142555237,-0.25365495681762695,-0.14494581520557404,0.10296410322189331,0.2011244297027588
-0.6945507526397705,0.2724248468875885,-0.6915996074676514,-0.2143622636795044,0.21835023164749146,0.21835559606552124
-0.6544050574302673,-0.14178870618343353,-0.5795596837997437,0.058858081698417664,0.21221047639846802,0.20210444927215576
-0.6029813289642334,-1.2127532958984375,-0.40355271100997925,0.16763904690742493,0.17008918523788452,0.2604806423187256
-0.7756463885307312,-2.284731149673462,-0.3545679748058319,0.14473268389701843,0.15630626678466797,0.36374592781066895
-0.7526847720146179,-2.2435638904571533,-0.2328430712223053,0.05294869840145111,0.1967780590057373,0.43240171670913696
-0.3513070344924927,-1.7697736024856567,0.10924442857503891,-0.053928524255752563,0.2757667303085327,0.2004002332687378
-0.2582498788833618,-1.3638008832931519,1.097251296043396,0.21197892725467682,0.1891496777534485,0.24818450212478638
-0.6840285062789917,-1.6877825260162354,1.3021193742752075,0.11394907534122467,0.08909088373184204,0.4147258400917053
-1.0757715702056885,-2.179471492767334,1.1194051504135132,-0.04011721909046173,0.1806962490081787,0.48308098316192627
-0.9212731122970581,-3.0261242389678955,1.062866449356079,0.009806141257286072,0.1424354910850525,0.4231102466583252
-0.5422185063362122,-3.3787648677825928,1.0104347467422485,0.0032401978969573975,0.20185750722885132,0.2248692512512207
-0.7803118228912354,-3.4721479415893555,0.833533763885498,-0.027657553553581238,0.10956209897994995,0.23132431507110596
-1.4210470914840698,-2.9764039516448975,0.5991978049278259,-0.11218741536140442,0.016806185245513916,0.2702024579048157
-1.9079376459121704,-2.6365087032318115,0.897992730140686,-0.047695279121398926,0.13112372159957886,0.23817312717437744
-2.3048312664031982,-2.0319056510925293,1.3975632190704346,0.051153093576431274,0.1960398554801941,0.2158856987953186
-2.6168105602264404,-2.006237268447876,1.7179523706436157,0.09424728155136108,0.20890235900878906,0.2548980712890625
-2.938258409500122,-1.8319166898727417,1.5237669944763184,-0.08621722459793091,-0.00721365213394165,0.08973896503448486
-2.798032760620117,-1.4560855627059937,1.316611647605896,-0.1838986873626709,0.021030336618423462,-0.1985914707183838
-2.4365804195404053,-1.3686519861221313,1.3726317882537842,-0.09919273853302002,0.12402123212814331,-0.24650490283966064
-2.003633975982666,-1.7277657985687256,1.6273590326309204,0.06511276960372925,0.2342817187309265,-0.16101866960525513
-2.2434232234954834,-2.0471737384796143,1.616348385810852,0.05976039171218872,0.18109694123268127,0.008239448070526123
-3.101048707962036,-1.6846294403076172,1.1868716478347778,-0.16664135456085205,-0.004318669438362122,0.07006901502609253
-3.4493308067321777,-0.9823201894760132,0.7933477163314819,-0.3463171720504761,0.00045305490493774414,-0.1386396288871765
-2.9149057865142822,-0.7060304284095764,0.9267643690109253,-0.24191468954086304,0.17223459482192993,-0.48283666372299194
-1.969020962715149,-1.1784753799438477,1.4241029024124146,-0.044204652309417725,0.33429911732673645,-0.5391278862953186
-1.117684006690979,-2.2908945083618164,1.9711964130401611,0.0816832184791565,0.401204913854599,-0.35046273469924927
-0.7962864637374878,-3.254423141479492,2.0159358978271484,-0.030171990394592285,0.3624475598335266,-0.1878475546836853
-1.355291724205017,-3.2355594635009766,1.8226399421691895,-0.2503945827484131,0.27744436264038086,-0.1077621579170227
-2.2738442420959473,-2.157153844833374,1.9227713346481323,-0.32985424995422363,0.3085026443004608,-0.139887273311615
-2.303171396255493,-1.3235893249511719,2.1161632537841797,-0.34753596782684326,0.3132159113883972,-0.4890257716178894
-1.5606578588485718,-1.5083585977554321,1.987847089767456,-0.4744279384613037,0.15752792358398438,-0.8035969138145447
-0.9624877572059631,-1.7754027843475342,1.1795783042907715,-0.6572481989860535,-0.18660804629325867,-0.8906451463699341
-0.3869253993034363,-1.2539546489715576,0.12240791320800781,-0.8927478194236755,-0.38499313592910767,-0.913105845451355
0.10550180077552795,0.0760064497590065,-0.5643088817596436,-0.9038509130477905,-0.3471243679523468,-0.9846289157867432
0.10640119761228561,1.3103491067886353,-0.8166173696517944,-0.6065860390663147,-0.18430641293525696,-0.6510391235351562
-0.05958230793476105,1.8244450092315674,-0.8675849437713623,-0.3478913903236389,-0.10845497250556946,-0.23587369918823242
0.03481507673859596,1.514600396156311,-0.8459492325782776,-0.22432470321655273,-0.07869777083396912,-0.047565460205078125
0.4790218472480774,0.6654472351074219,-0.9846586585044861,-0.2218838334083557,-0.12110072374343872,-0.04147493839263916
1.0184980630874634,-0.0115566560998559,-1.1608389616012573,-0.27184897661209106,-0.14111551642417908,-0.14328205585479736
1.1535207033157349,-0.1197480708360672,-1.2258399724960327,-0.30027008056640625,-0.08333432674407959,-0.13264429569244385
0.9369985461235046,0.22224976122379303,-1.2918418645858765,-0.3167150020599365,-0.07505597174167633,-0.11943024396896362
0.7054052948951721,0.6512132287025452,-1.5274218320846558,-0.3978309631347656,-0.11666205525398254,-0.14229512214660645
0.6157188415527344,0.8883630037307739,-1.767337441444397,-0.4511444568634033,-0.12184885144233704,-0.1825929880142212
0.7176125645637512,0.8749780654907227,-1.8944096565246582,-0.4205247163772583,-0.09187987446784973,-0.21823972463607788
0.917056143283844,0.6729369163513184,-1.9687823057174683,-0.36021459102630615,-0.07779611647129059,-0.242404043674469
1.139114260673523,0.4236975908279419,-2.1278913021087646,-0.3873699903488159,-0.10414141416549683,-0.2726248502731323
1.3436228036880493,0.3575699031352997,-2.202653646469116,-0.366382896900177,-0.08632245659828186,-0.3013622760772705
1.475005865097046,0.45975977182388306,-2.2201313972473145,-0.34304410219192505,-0.04116533696651459,-0.30123698711395264
1.6549102067947388,0.4499094784259796,-2.2702274322509766,-0.33551061153411865,-0.03325952589511871,-0.30973172187805176
1.7813835144042969,0.35595452785491943,-2.317817449569702,-0.30899661779403687,-0.02493976056575775,-0.2615613341331482
1.9140613079071045,0.3016625642776489,-2.3867812156677246,-0.29024022817611694,0.006404221057891846,-0.25180667638778687
1.9336638450622559,0.3734515309333801,-2.4436581134796143,-0.2527480721473694,0.053102850914001465,-0.1883975863456726
1.9829356670379639,0.3551042079925537,-2.441434860229492,-0.20301002264022827,0.10481390357017517,-0.14899134635925293
2.170477867126465,0.17717933654785156,-2.396270990371704,-0.1671849489212036,0.1486237645149231,-0.18406671285629272
2.3539693355560303,-0.0597371943295002,-2.3121368885040283,-0.10416996479034424,0.20571523904800415,-0.15966671705245972
2.5033202171325684,-0.14301332831382751,-2.2464449405670166,-0.07743513584136963,0.27676939964294434,-0.13442206382751465
2.573423385620117,-0.33924880623817444,-2.1445369720458984,0.00480198860168457,0.36737293004989624,-0.04968172311782837
2.392627000808716,-0.682550847530365,-1.9926857948303223,0.09147071838378906,0.40036243200302124,0.05719849467277527
2.0783498287200928,-1.0207072496414185,-1.8415403366088867,0.08041554689407349,0.36839377880096436,0.10742118954658508
1.7112174034118652,-1.0195399522781372,-1.7406501770019531,0.013649523258209229,0.33152174949645996,0.07534787058830261
1.6050240993499756,-1.0017235279083252,-1.6185725927352905,-0.04429811239242554,0.3531189560890198,-0.056833863258361816
1.7577632665634155,-1.0574220418930054,-1.5823577642440796,-0.12624028325080872,0.33560383319854736,-0.17125636339187622
1.948563814163208,-0.9107131958007812,-1.6357232332229614,-0.1902765929698944,0.3263111114501953,-0.25238364934921265
1.5806021690368652,-0.3854128420352936,-1.7413595914840698,-0.2378278374671936,0.2623676657676697,-0.16457943618297577
1.0721707344055176,0.18838883936405182,-1.9383445978164673,-0.28142693638801575,0.18706172704696655,-0.019750356674194336
0.9187660813331604,0.50095534324646,-1.885106086730957,-0.16650468111038208,0.19290316104888916,-0.046914249658584595
0.8177353739738464,0.6907837986946106,-1.703717827796936,-0.045806825160980225,0.19051527976989746,-0.05336545407772064
0.8458391427993774,0.6023589372634888,-1.6745480298995972,-0.04632905125617981,0.16833919286727905,-0.04177257418632507
0.9808141589164734,0.32031235098838806,-1.6447254419326782,-0.04052841663360596,0.17140311002731323,-0.06099182367324829
1.1910285949707031,0.10728294402360916,-1.6253199577331543,-0.000588536262512207,0.2145339846611023,-0.06907398998737335
1.25014328956604,0.0027708839625120163,-1.5824509859085083,0.026991352438926697,0.2696354389190674,-0.05329488217830658
0.9987872838973999,0.13711786270141602,-1.4998124837875366,0.06470787525177002,0.28153395652770996,0.037620291113853455
0.6182945966720581,0.42470768094062805,-1.3313930034637451,0.10011078417301178,0.3151096701622009,0.10628766566514969
0.410663366317749,0.601180374622345,-1.134569525718689,0.1324443221092224,0.3283002972602844,0.08822751045227051
0.4176618158817291,0.551651656627655,-0.981902539730072,0.12781839072704315,0.334414541721344,0.026040025055408478
0.5388752222061157,0.3590353727340698,-0.9263099431991577,0.10044977068901062,0.32851213216781616,-0.016518354415893555
0.6498247385025024,0.09552296996116638,-0.9458961486816406,0.06765837222337723,0.31265294551849365,-0.02719663828611374
0.6097099184989929,0.0346204973757267,-0.8314622044563293,0.09648066759109497,0.3182768225669861,-0.008953269571065903
0.49028974771499634,0.23361064493656158,-0.6453609466552734,0.12129774689674377,0.3446502685546875,-0.006929691880941391
0.4095451235771179,0.42219218611717224,-0.4996921122074127,0.13405486941337585,0.3425087332725525,-0.03048229031264782
0.3842943012714386,0.5113298296928406,-0.4134656488895416,0.10027377307415009,0.3278789520263672,-0.01706928014755249
0.38126900792121887,0.307077020406723,-0.4594982862472534,0.03629563748836517,0.2893384099006653,-0.012884318828582764
0.4664546549320221,-0.01184860710054636,-0.45459771156311035,0.019282251596450806,0.25027579069137573,0.026378512382507324
0.5442253947257996,-0.27700257301330566,-0.30550703406333923,0.06400908529758453,0.27450549602508545,0.014274835586547852
0.5691772699356079,-0.30117031931877136,-0.13393880426883698,0.08353602141141891,0.2768181562423706,0.016777873039245605
0.30378127098083496,0.027480147778987885,0.03416496887803078,0.06802622228860855,0.2632253170013428,0.051696181297302246
-0.11997226625680923,0.4524365961551666,0.16568616032600403,0.058294110000133514,0.25234442949295044,0.0963507890701294
-0.4946103096008301,0.5268887281417847,0.10651309043169022,0.01193312555551529,0.21200847625732422,0.14686286449432373
-0.6338227391242981,0.3685293197631836,0.1029399037361145,0.002410478889942169,0.1833711862564087,0.15330755710601807
-0.6695794463157654,0.24316248297691345,0.2138933390378952,0.054667532444000244,0.2100113034248352,0.11596536636352539
-0.628593385219574,0.21758230030536652,0.4377390444278717,0.10160455852746964,0.24927234649658203,0.08397847414016724
-0.621422290802002,0.22944162786006927,0.6723819971084595,0.10423891246318817,0.2628381848335266,0.07654398679733276
-0.7319697141647339,0.2541508674621582,0.8037381768226624,0.06489482522010803,0.2439064383506775,0.11771142482757568
-0.9011477828025818,0.18687675893306732,0.8365457057952881,0.015848569571971893,0.21528208255767822,0.14272302389144897
-1.109243631362915,0.19942539930343628,0.8291627168655396,0.016352981328964233,0.2176406979560852,0.15607547760009766
-1.3385579586029053,0.20748808979988098,0.8412757515907288,0.03652875870466232,0.23184609413146973,0.1580948829650879
-1.402746319770813,0.1324751377105713,0.984092652797699,0.11037790030241013,0.27524977922439575,0.12708131968975067
-1.3384946584701538,-0.04791831597685814,1.154184341430664,0.16010239720344543,0.3072003722190857,0.05647321045398712
-1.2752653360366821,-0.2881961762905121,1.1913440227508545,0.14030195772647858,0.32349270582199097,0.03896154463291168
-1.2747873067855835,-0.6759954690933228,1.187057375907898,0.12535147368907928,0.3301495909690857,0.07036855816841125
-1.3161299228668213,-1.2385567426681519,1.1544185876846313,0.1428404152393341,0.37956494092941284,0.11122766137123108
-1.4916467666625977,-1.5296255350112915,1.0535502433776855,0.11078216135501862,0.40072381496429443,0.11954088509082794
-2.1697287559509277,-1.3185392618179321,0.7982282042503357,-0.009528905153274536,0.3813962936401367,0.19090187549591064
-2.523993730545044,-0.8810816407203674,0.6985666155815125,-0.054042696952819824,0.3818339705467224,0.09624773263931274
-2.1191232204437256,-0.8043806552886963,1.0266125202178955,0.0909552276134491,0.4767017960548401,-0.1455930471420288
-1.0550856590270996,-1.5112069845199585,1.5420726537704468,0.1956840455532074,0.48296213150024414,-0.2871631681919098
0.05289146304130554,-2.3136231899261475,1.8098411560058594,0.06569397449493408,0.38227593898773193,-0.34556829929351807
-0.10455062240362167,-2.2288825511932373,1.8306881189346313,-0.11738187074661255,0.1831997036933899,-0.16381913423538208
-1.3546303510665894,-1.0374653339385986,1.7719552516937256,-0.2321670651435852,0.08008307218551636,0.16689351201057434
-2.2066826820373535,0.22530196607112885,1.6721184253692627,-0.24579966068267822,0.08532649278640747,0.16001734137535095
-1.8209865093231201,0.33576199412345886,1.8478912115097046,-0.11516910791397095,0.15181195735931396,-0.0804939866065979
-0.6460697650909424,-0.4189802408218384,2.1448822021484375,0.03783053159713745,0.21202796697616577,-0.3022424876689911
-0.18260014057159424,-1.0615042448043823,2.5059962272644043,0.09957337379455566,0.17685437202453613,-0.1568087339401245
-1.0980968475341797,-0.9504657983779907,2.468982696533203,-0.10225379467010498,0.08796340227127075,0.23937273025512695
-2.0168159008026123,-0.5302634239196777,2.3126134872436523,-0.285990834236145,0.01497429609298706,0.34385085105895996
-1.9436309337615967,-0.2041529268026352,2.2815628051757812,-0.27141278982162476,0.080361008644104,0.05527222156524658
-0.9659267067909241,-0.30338752269744873,2.3195464611053467,-0.212602436542511,0.12553268671035767,-0.23209434747695923
-0.6278587579727173,-0.6423010230064392,2.399610996246338,-0.16911554336547852,0.08653432130813599,-0.16597884893417358
-1.2584365606307983,-0.7572630047798157,2.4596638679504395,-0.17480766773223877,0.017587274312973022,0.20806965231895447
-2.2091264724731445,-0.3711766302585602,2.5065114498138428,-0.19505321979522705,0.006761223077774048,0.3221520781517029
-2.544058084487915,0.09519810974597931,2.470951795578003,-0.23944252729415894,0.04565858840942383,0.17143797874450684
-1.925646185874939,-0.1761387139558792,2.032336950302124,-0.46752864122390747,0.07446491718292236,-0.11184000968933105
-1.0661184787750244,-1.0288397073745728,1.754616618156433,-0.4595242738723755,0.05064648389816284,-0.21125513315200806
-1.3139275312423706,-1.5903937816619873,1.7908897399902344,-0.3006155490875244,0.019355371594429016,-0.03564310073852539
-2.4350099563598633,-1.452002763748169,1.7849409580230713,-0.2805136442184448,-0.0027716904878616333,0.202925443649292
-3.19248366355896,-0.631808340549469,1.6774253845214844,-0.42195916175842285,-0.020717613399028778,0.04498043656349182
-3.1606462001800537,0.24501733481884003,1.646349310874939,-0.476016104221344,-0.04525388777256012,-0.28406861424446106
-2.4832544326782227,0.4045791029930115,1.3187142610549927,-0.5399237275123596,-0.08148851990699768,-0.4541722238063812
-1.4073207378387451,-0.2587112784385681,0.7875319123268127,-0.6356819272041321,-0.12975028157234192,-0.5016943216323853
-0.5026226043701172,-1.0857317447662354,0.5682001113891602,-0.4229586124420166,-0.11014639586210251,-0.44610002636909485
-0.16752494871616364,-1.4409971237182617,0.5755306482315063,-0.21162164211273193,-0.07481172680854797,-0.28594300150871277
-0.41054168343544006,-1.0057169198989868,0.7047538161277771,-0.08984112739562988,-0.045230597257614136,-0.1797943413257599
-0.9572654962539673,-0.3427734375,0.8496546149253845,-0.023861587047576904,-0.03204020857810974,-0.05444321036338806
-1.2396926879882812,-0.013266024179756641,0.9074865579605103,-0.017526090145111084,-0.0277697890996933,-0.05713889002799988
-1.1018112897872925,-0.08586793392896652,1.004342794418335,-0.02736842632293701,-0.03552863001823425,-0.13316437602043152
-0.705943763256073,-0.3539426326751709,1.3173534870147705,0.04877227544784546,-0.002216234803199768,-0.21457120776176453
-0.3612706959247589,-0.39120280742645264,1.564504861831665,0.10236525535583496,0.025782495737075806,-0.25192368030548096
-0.25638487935066223,0.01902705989778042,1.2607325315475464,-0.13354980945587158,0.007459312677383423,-0.23165416717529297
-0.071322001516819,0.42671144008636475,0.40483954548835754,-0.48516494035720825,-0.12720075249671936,-0.2803192734718323
0.0233534574508667,0.5598156452178955,-0.08799272775650024,-0.43652331829071045,-0.2277470827102661,-0.26746615767478943
-0.3009563088417053,0.59972083568573,-0.21816295385360718,-0.25265347957611084,-0.21062824130058289,-0.13223358988761902
-0.849388837814331,0.8099155426025391,-0.438814640045166,-0.25029242038726807,-0.21215054392814636,-0.05688837170600891
-1.2022924423217773,1.2756513357162476,-0.7484392523765564,-0.3561555743217468,-0.1977054476737976,-0.14287632703781128
-1.11263906955719,1.752368450164795,-1.0475953817367554,-0.42163604497909546,-0.16687947511672974,-0.31889593601226807
-0.6246663331985474,2.0104761123657227,-1.2460240125656128,-0.42384594678878784,-0.1256057322025299,-0.44664379954338074
-0.09497145563364029,1.9358083009719849,-1.3479210138320923,-0.3687620162963867,-0.10002140700817108,-0.4651348292827606
0.2216162085533142,1.7216488122940063,-1.421561360359192,-0.3154996633529663,-0.08781246840953827,-0.38137030601501465
0.45122137665748596,1.5785987377166748,-1.5750267505645752,-0.35389214754104614,-0.07945983111858368,-0.3324406147003174
0.7061669826507568,1.4952417612075806,-1.697613000869751,-0.3822932243347168,-0.051004379987716675,-0.32344162464141846
1.0176023244857788,1.4424920082092285,-1.7569530010223389,-0.3766864538192749,-0.011225774884223938,-0.34031111001968384
1.2386648654937744,1.463258147239685,-1.7360824346542358,-0.34664350748062134,0.030212387442588806,-0.31883180141448975
1.372754693031311,1.457293152809143,-1.7746210098266602,-0.3365236520767212,0.044227614998817444,-0.27379852533340454
1.5332492589950562,1.3929450511932373,-1.9086421728134155,-0.37531208992004395,0.041858360171318054,-0.2530890703201294
1.7144360542297363,1.3380482196807861,-1.9475477933883667,-0.3437325358390808,0.06763104349374771,-0.2413460612297058
1.8344284296035767,1.2309134006500244,-1.904798150062561,-0.27892303466796875,0.09599855542182922,-0.21468126773834229
2.000378131866455,1.0778093338012695,-1.8165372610092163,-0.23964804410934448,0.10953257977962494,-0.1874154806137085
2.2301225662231445,0.9598417282104492,-1.8168078660964966,-0.2315022349357605,0.1267857700586319,-0.21043086051940918
2.2971346378326416,0.9153626561164856,-1.8941476345062256,-0.28166741132736206,0.12146586179733276,-0.15464246273040771
2.254105806350708,0.7904728651046753,-1.8790873289108276,-0.2351035475730896,0.13773968815803528,-0.093921959400177
2.3891172409057617,0.534515917301178,-1.86033296585083,-0.21315789222717285,0.17079859972000122,-0.11147725582122803
2.487494468688965,0.48732802271842957,-1.819472312927246,-0.21568655967712402,0.18917319178581238,-0.168479323387146
2.345686912536621,0.7498611211776733,-1.7195706367492676,-0.19178873300552368,0.22174584865570068,-0.13707894086837769
2.3051342964172363,0.9363531470298767,-1.7577649354934692,-0.23951518535614014,0.23027658462524414,-0.1267436146736145
2.4453372955322266,0.9355961680412292,-1.8536556959152222,-0.27026814222335815,0.25666379928588867,-0.16090351343154907
2.620018243789673,0.8937907814979553,-1.9485124349594116,-0.23402944207191467,0.3136037588119507,-0.14823180437088013
2.527813673019409,0.9821763634681702,-2.0052902698516846,-0.18905049562454224,0.3239014148712158,-0.08789610862731934
2.2003676891326904,1.223398208618164,-1.9359261989593506,-0.1015034019947052,0.34133070707321167,0.013109803199768066
1.8098313808441162,1.4331438541412354,-1.8398419618606567,-0.061397045850753784,0.3418900966644287,0.062144696712493896
1.4274439811706543,1.7083399295806885,-1.7085120677947998,-0.04318869113922119,0.3387805223464966,0.06580621004104614
0.9367668032646179,2.308788537979126,-1.6018940210342407,-0.04551622271537781,0.32411259412765503,0.09450173377990723
0.3840467631816864,3.072547197341919,-1.5524096488952637,-0.09070084989070892,0.3259866237640381,0.11265319585800171
0.29131802916526794,3.3474817276000977,-1.4474588632583618,-0.1159592717885971,0.3530777096748352,0.11897552013397217
0.8520501852035522,2.7140157222747803,-1.2613954544067383,-0.10196894407272339,0.38036447763442993,0.0187685489654541
1.6751644611358643,1.729653239250183,-1.0968565940856934,-0.0632423460483551,0.3598313331604004,-0.07745066285133362
2.106602430343628,1.0131686925888062,-0.9830489754676819,-0.04832661896944046,0.33863121271133423,-0.03135320544242859
2.064681053161621,0.7025223970413208,-0.9359354972839355,-0.0522109791636467,0.3222179412841797,0.0822153091430664
1.7823342084884644,0.6678508520126343,-0.9224643707275391,-0.059805728495121,0.30883485078811646,0.1396189033985138
1.4441840648651123,0.5181546211242676,-0.8984092473983765,-0.048856958746910095,0.271661639213562,0.17829757928848267
1.2523177862167358,0.3588062822818756,-0.8414931893348694,-0.030358806252479553,0.255776047706604,0.1609756052494049
1.176344633102417,0.2710059881210327,-0.7442558407783508,-0.012057043612003326,0.26070094108581543,0.10737141966819763
1.0481624603271484,0.3012361526489258,-0.6455365419387817,-0.014743365347385406,0.26372456550598145,0.09417280554771423
0.9532535076141357,0.35564401745796204,-0.6088793277740479,-0.021167248487472534,0.2516562342643738,0.09004265069961548
0.9108948111534119,0.4046744108200073,-0.5758262872695923,-0.03070218116044998,0.26147156953811646,0.08194103837013245
0.9357224702835083,0.3540629744529724,-0.5799217820167542,-0.027338162064552307,0.2627105116844177,0.0691111832857132
0.9089725017547607,0.23496383428573608,-0.5786533355712891,-0.023125380277633667,0.2604435682296753,0.10488128662109375
0.8143350481987,0.17786306142807007,-0.49204736948013306,0.0013939589262008667,0.28361976146698,0.13569970428943634
0.7173620462417603,0.11327024549245834,-0.36405760049819946,0.015590295195579529,0.3037540316581726,0.14499486982822418
0.7387089729309082,0.016075201332569122,-0.2520016133785248,0.0212896466255188,0.3056396245956421,0.10377109050750732
0.6992611885070801,-0.019071439281105995,-0.14986738562583923,0.015938326716423035,0.2987915277481079,0.08206021785736084
0.5183953046798706,0.08942638337612152,-0.06717709451913834,0.0026561766862869263,0.2962267994880676,0.10098820924758911
0.23296181857585907,0.2682735323905945,0.005467712879180908,-0.006598114967346191,0.28752315044403076,0.12787820398807526
-0.07275547832250595,0.3270765542984009,0.06254837661981583,-0.00919400155544281,0.2825678586959839,0.16536134481430054
-0.34081119298934937,0.350468248128891,0.1557082086801529,0.012996435165405273,0.2985907793045044,0.19301022589206696
-0.49049919843673706,0.3029134273529053,0.3019145727157593,0.03964090347290039,0.31437361240386963,0.17994160950183868
-0.5801520347595215,0.21417178213596344,0.521292507648468,0.061190634965896606,0.332086980342865,0.16176837682724
-0.6195398569107056,0.11301275342702866,0.7053505182266235,0.0543954074382782,0.3244898319244385,0.13994871079921722
-0.699569582939148,0.05710180848836899,0.8182756900787354,0.02270112931728363,0.30502820014953613,0.1322435736656189
-0.8062013387680054,-0.06179608032107353,0.8268061280250549,-0.01385548710823059,0.28180068731307983,0.15891151130199432
-0.9750686287879944,-0.12366583198308945,0.8361799120903015,-0.03171414136886597,0.2864832878112793,0.1756361722946167
-1.144498586654663,-0.17009328305721283,0.9139401912689209,0.007686890661716461,0.3098927140235901,0.1598070114850998
-1.1505447626113892,-0.20012348890304565,1.1020253896713257,0.05733998119831085,0.34872037172317505,0.08178265392780304
-0.8908016681671143,-0.4929417073726654,1.1385478973388672,0.031893327832221985,0.36302345991134644,0.004125833511352539
-0.32697972655296326,-0.9549479484558105,0.8990341424942017,-0.11096298694610596,0.3122684955596924,-0.10583972930908203
-0.24135813117027283,-0.9321788549423218,0.6762225031852722,-0.16717049479484558,0.23942124843597412,-0.11768904328346252
-1.0183582305908203,0.12199299037456512,0.674690842628479,-0.09181809425354004,0.2513354420661926,0.035488784313201904
-2.066645622253418,1.3513224124908447,0.8889491558074951,-0.0014128908514976501,0.2977549433708191,0.20498499274253845
-2.449537992477417,1.3852171897888184,1.2404178380966187,0.12603969871997833,0.35212522745132446,0.2389165759086609
-1.687496542930603,0.05273924767971039,1.6184583902359009,0.16006657481193542,0.3513492941856384,0.059671998023986816
-0.7534212470054626,-1.567755937576294,1.8915315866470337,0.13548672199249268,0.3182640075683594,-0.05678117275238037
-0.5637332201004028,-2.273144006729126,2.0607712268829346,0.06217557191848755,0.2657473087310791,0.024890601634979248
-1.2959884405136108,-1.8301044702529907,2.1133556365966797,-0.009091585874557495,0.20225054025650024,0.1571638584136963
-1.5717312097549438,-0.9778739809989929,2.1753182411193848,-0.09620501101016998,0.2065030336380005,0.0740308165550232
-0.6535652279853821,-0.9769337773323059,2.357962131500244,-0.015962958335876465,0.28215980529785156,-0.22717034816741943
0.19259311258792877,-1.5338566303253174,2.5351219177246094,0.01449882984161377,0.24713200330734253,-0.2501378059387207
-0.7696588635444641,-1.4520723819732666,2.630235433578491,0.034626543521881104,0.09614449739456177,0.15656501054763794
-2.20021915435791,-0.5215298533439636,2.5346782207489014,-0.07269218564033508,0.013968884944915771,0.46050700545310974
-2.279664993286133,0.1654173731803894,2.6734251976013184,-0.09155747294425964,0.09031170606613159,0.12700426578521729
-1.191985011100769,0.26960843801498413,2.840810775756836,-0.023140013217926025,0.18224453926086426,-0.2374902367591858
-0.6208518147468567,-0.004599717445671558,2.523611307144165,-0.2784007787704468,0.044818997383117676,-0.2428111433982849
-1.53556227684021,-0.015052086673676968,2.0675933361053467,-0.3690692186355591,-0.1833810806274414,0.11303436756134033
-2.731592893600464,0.4599505662918091,1.826720118522644,-0.3391839265823364,-0.23731333017349243,0.3647942543029785
-2.792710781097412,0.3535996079444885,1.99221932888031,-0.16334664821624756,-0.07603377103805542,0.14296674728393555
-1.5037983655929565,-0.7429835200309753,2.355205774307251,0.012211263179779053,0.10841840505599976,-0.18114429712295532
-0.27055785059928894,-2.1219162940979004,2.3353028297424316,-0.11030459403991699,0.11097270250320435,-0.3248899579048157
-0.4349469542503357,-2.33480167388916,2.2286288738250732,-0.20423758029937744,-0.024570852518081665,-0.06990253925323486
-1.2228894233703613,-1.4166901111602783,2.188267946243286,-0.24254947900772095,-0.029619604349136353,0.046121835708618164
-1.7014062404632568,-0.395602285861969,2.352149248123169,-0.19732117652893066,0.05484414100646973,0.00818336009979248
-1.5173206329345703,-0.26000291109085083,2.5821361541748047,-0.10486960411071777,0.1752023547887802,-0.1116943359375
-1.0487242937088013,-1.0196794271469116,2.4429221153259277,-0.20622164011001587,0.17700530588626862,-0.10186117887496948
-1.2231255769729614,-1.667411208152771,2.172889471054077,-0.29884111881256104,0.05530639737844467,-0.0024161934852600098
-1.7746891975402832,-1.5852937698364258,2.1605937480926514,-0.28749608993530273,0.02601984515786171,0.07379984855651855
-1.9278450012207031,-1.0256139039993286,2.2954063415527344,-0.2915751338005066,0.10492822527885437,-0.14756423234939575
-1.7670354843139648,-0.5193353891372681,2.4452426433563232,-0.2993934154510498,0.15164101123809814,-0.3191125988960266
-1.5907365083694458,-0.44140389561653137,2.4895694255828857,-0.28989481925964355,0.16247937083244324,-0.30809712409973145
-1.4233675003051758,-0.671465277671814,2.5193066596984863,-0.25141358375549316,0.11112993955612183,-0.25106680393218994
-1.1578339338302612,-0.9776608347892761,2.5985052585601807,-0.2216445803642273,0.07282525300979614,-0.2642902731895447
-0.8828263878822327,-1.1083242893218994,2.6757471561431885,-0.2122567892074585,0.02340155839920044,-0.2984417676925659
-0.565585732460022,-0.9863748550415039,2.5527477264404297,-0.2680765986442566,-0.010645389556884766,-0.3548298478126526
-0.23637042939662933,-0.7464061379432678,2.0757107734680176,-0.4259849190711975,-0.029935866594314575,-0.3630867600440979
-0.017062760889530182,-0.32446059584617615,1.2393306493759155,-0.5745063424110413,-0.052349984645843506,-0.3196010887622833
-0.02889440953731537,0.1410818099975586,0.449698805809021,-0.5634671449661255,-0.07047277688980103,-0.21259981393814087
-0.2057275027036667,0.49710410833358765,0.043203204870224,-0.39098525047302246,-0.04695817828178406,-0.08233046531677246
-0.49919393658638,0.6767070889472961,-0.0606459304690361,-0.2120038866996765,-0.02752786874771118,0.03744128346443176
-0.8557987809181213,0.7008506059646606,-0.06805016845464706,-0.12442630529403687,-0.028313279151916504,0.09873265027999878
-0.9688767194747925,0.5470107197761536,-0.20869804918766022,-0.15384811162948608,-0.09362876415252686,0.04678452014923096
-0.627966582775116,0.31466710567474365,-0.5431338548660278,-0.3002975583076477,-0.14856356382369995,-0.15093064308166504
-0.052895139902830124,0.2209058701992035,-0.9436832666397095,-0.43278276920318604,-0.19999074935913086,-0.34922724962234497
0.23812195658683777,0.4210183620452881,-1.0974959135055542,-0.40919995307922363,-0.15422287583351135,-0.3819858133792877
0.2761116623878479,0.6979342103004456,-1.1327266693115234,-0.3589901924133301,-0.1194334328174591,-0.29516464471817017
0.38788607716560364,0.7353609204292297,-1.196653127670288,-0.4054000973701477,-0.11089935898780823,-0.26055604219436646
0.699894905090332,0.44314876198768616,-1.3855888843536377,-0.48815566301345825,-0.11576426029205322,-0.29318004846572876
1.0675220489501953,0.06459857523441315,-1.623572826385498,-0.5347174406051636,-0.09345880150794983,-0.34236931800842285
1.2792192697525024,-0.1347079575061798,-1.896467924118042,-0.5732582211494446,-0.06675553321838379,-0.35035160183906555
1.326365351676941,-0.015011005103588104,-2.138726234436035,-0.6128531098365784,-0.03128771483898163,-0.3499230742454529
1.291909098625183,0.2002156674861908,-2.265068769454956,-0.5837007761001587,0.01958341896533966,-0.3334848880767822
1.210835576057434,0.41857704520225525,-2.337468385696411,-0.529747486114502,0.04528440535068512,-0.32029518485069275
1.2045472860336304,0.34394514560699463,-2.3786110877990723,-0.4929850697517395,0.049614317715168,-0.3113804757595062
1.4856905937194824,0.039501436054706573,-2.352418899536133,-0.40507757663726807,0.09453967213630676,-0.34784024953842163
2.0063118934631348,-0.2498750388622284,-2.361663579940796,-0.34336525201797485,0.14247533679008484,-0.4215926229953766
2.3331761360168457,-0.4093005657196045,-2.4074926376342773,-0.31027060747146606,0.1678238809108734,-0.39526739716529846
2.267122507095337,-0.25903812050819397,-2.438398838043213,-0.26524150371551514,0.17118419706821442,-0.2717694938182831
2.075610399246216,0.007011403329670429,-2.4152753353118896,-0.1994801163673401,0.20431813597679138,-0.1657133400440216
1.9488173723220825,0.18853946030139923,-2.4319217205047607,-0.15621024370193481,0.24412792921066284,-0.12228339910507202
1.8803856372833252,0.18041367828845978,-2.4542770385742188,-0.13867241144180298,0.2551988661289215,-0.09618556499481201
1.899660348892212,0.1595822274684906,-2.4292514324188232,-0.0630766749382019,0.3011896312236786,-0.08997058868408203
1.8944876194000244,0.20339323580265045,-2.3700473308563232,-0.016981005668640137,0.34176287055015564,-0.08349081873893738
1.775462031364441,0.39839351177215576,-2.321406602859497,-0.015245199203491211,0.35278668999671936,-0.06558287143707275
1.4719393253326416,0.7260692715644836,-2.0796010494232178,0.03657877445220947,0.39746659994125366,0.009044080972671509
1.0872619152069092,1.1154180765151978,-1.7253297567367554,0.1245962381362915,0.42451560497283936,0.07505771517753601
0.6269537210464478,1.4570119380950928,-1.4924544095993042,0.1793203353881836,0.40465807914733887,0.15916085243225098
0.41574716567993164,1.6784498691558838,-1.5632789134979248,0.09799385070800781,0.3448368310928345,0.15227654576301575
0.45750105381011963,1.703614354133606,-1.7058265209197998,0.010226547718048096,0.2964363694190979,0.08533376455307007
0.6244320273399353,1.8165271282196045,-1.7897030115127563,-0.011731863021850586,0.30893439054489136,0.028265297412872314
0.7670059204101562,1.8944441080093384,-1.692718505859375,0.011260747909545898,0.3599911332130432,0.031874239444732666
0.9080432057380676,1.7709587812423706,-1.4327317476272583,0.07406735420227051,0.3830084800720215,0.06537574529647827
1.0401850938796997,1.4161680936813354,-1.1226654052734375,0.1341744065284729,0.38086122274398804,0.09025132656097412
1.0619946718215942,0.9594895243644714,-0.932732880115509,0.14950045943260193,0.3452935814857483,0.13625279068946838
1.073233962059021,0.6898577213287354,-0.9169341325759888,0.08520382642745972,0.27004474401474,0.12811052799224854
1.0216294527053833,0.5076024532318115,-0.9153467416763306,0.03917232155799866,0.23920702934265137,0.11712223291397095
0.9490348100662231,0.38916468620300293,-0.869106650352478,0.07755258679389954,0.24064695835113525,0.12566372752189636
0.8565050959587097,0.45000919699668884,-0.7641943693161011,0.09284305572509766,0.24561822414398193,0.09520381689071655
0.9631300568580627,0.4219512939453125,-0.6653395295143127,0.10066527128219604,0.2435254454612732,0.04449671506881714
1.0938924551010132,0.2661292254924774,-0.6206391453742981,0.07838577032089233,0.22794204950332642,0.020449697971343994
1.0725830793380737,0.1400582194328308,-0.5810078382492065,0.0799071192741394,0.22236526012420654,0.0496557354927063
0.8876891732215881,0.028420064598321915,-0.49297139048576355,0.08561897277832031,0.22732186317443848,0.11383551359176636
0.7752842307090759,-0.04338192194700241,-0.47361063957214355,0.07951223850250244,0.20470041036605835,0.10214680433273315
0.7947224378585815,-0.08364340662956238,-0.4443489611148834,0.06804439425468445,0.1979352831840515,0.06590333580970764
0.9010916352272034,-0.03483176603913307,-0.3846229314804077,0.08792397379875183,0.22106629610061646,0.016951948404312134
0.8729647994041443,0.04704594612121582,-0.33084428310394287,0.08221432566642761,0.22661012411117554,0.036952823400497437
0.6536971926689148,0.06878006458282471,-0.3262522518634796,0.06885486841201782,0.21180981397628784,0.08872109651565552
0.4771622121334076,-0.018452933058142662,-0.37147438526153564,0.055140554904937744,0.18544667959213257,0.12063458561897278
0.4767722189426422,-0.23989364504814148,-0.4165540039539337,0.046113818883895874,0.18400239944458008,0.09465524554252625
0.5810346603393555,-0.407497376203537,-0.450623095035553,0.04238966107368469,0.20451903343200684,0.04938039183616638
0.5489062070846558,-0.2689383625984192,-0.42671746015548706,0.04178863763809204,0.231705904006958,0.020179644227027893
0.29029205441474915,-0.0020270803943276405,-0.3709360957145691,0.055910974740982056,0.25979363918304443,0.05502922832965851
0.002277519553899765,0.030987953767180443,-0.4527563452720642,0.03797793388366699,0.24896728992462158,0.10603684186935425
-0.07544035464525223,-0.17788539826869965,-0.7742461562156677,-0.0543883740901947,0.21215635538101196,0.09865263104438782
0.012221178039908409,-0.26124170422554016,-0.9794435501098633,-0.050265833735466,0.20880979299545288,0.022685661911964417
-0.015050792135298252,-0.19690068066120148,-0.8378680348396301,0.04611027240753174,0.2477901577949524,0.024077653884887695
-0.14024437963962555,-0.05764036625623703,-0.49994510412216187,0.14534229040145874,0.3078877925872803,0.040270328521728516
-0.14302879571914673,-0.010408896021544933,-0.27094101905822754,0.15694060921669006,0.30488651990890503,0.022409826517105103
-0.03547675535082817,-0.02568809874355793,-0.35429707169532776,0.03268708288669586,0.25437575578689575,-0.05053350329399109
-0.05540386959910393,-0.008499117568135262,-0.5767823457717896,-0.0238209068775177,0.23552262783050537,-0.05100706219673157
-0.25848373770713806,-0.13233502209186554,-0.7695501446723938,-0.035175904631614685,0.1880311369895935,0.010373666882514954
-0.4456042945384979,-0.026742486283183098,-1.002519130706787,-0.0454532653093338,0.18080514669418335,0.013386502861976624
-0.5132733583450317,0.30839434266090393,-0.8810564875602722,-0.009080871939659119,0.32100939750671387,-0.027773872017860413
-0.45346078276634216,0.35642296075820923,-0.12475934624671936,0.24791939556598663,0.3705061078071594,-0.028681010007858276
-0.21506267786026,-0.10200181603431702,0.5603587031364441,0.33278581500053406,0.34010761976242065,0.023160099983215332
0.058219969272613525,-0.5441334843635559,0.7837081551551819,0.1993735283613205,0.27489137649536133,0.005738288164138794
-0.032172854989767075,-0.5298483371734619,0.6144217848777771,0.005942434072494507,0.19195735454559326,0.038064539432525635
-0.4945114254951477,-0.2605469524860382,0.3665196895599365,-0.06313236057758331,0.1756305694580078,0.12635469436645508
-1.0225642919540405,0.07270956039428711,0.2616456151008606,-0.019690796732902527,0.24759918451309204,0.19290652871131897
-1.1711719036102295,-0.020846623927354813,0.49476757645606995,0.12223906815052032,0.28980720043182373,0.15579736232757568
-1.1094858646392822,-0.598737895488739,0.7714079022407532,0.19729547202587128,0.24061042070388794,0.10857394337654114
-1.1412270069122314,-0.7476581335067749,0.8885012269020081,0.10794755816459656,0.15789562463760376,0.06157487630844116
-1.3783550262451172,-0.41639962792396545,0.9727870225906372,0.02345675230026245,0.16660892963409424,0.08488225936889648
-1.3943617343902588,-0.3281484544277191,1.2161294221878052,0.08681623637676239,0.23106062412261963,0.12566861510276794
-1.0084474086761475,-0.8689919114112854,1.6124389171600342,0.19644585251808167,0.27325958013534546,0.10047167539596558
-0.48603448271751404,-1.4787347316741943,1.952867031097412,0.22914311289787292,0.30203890800476074,0.0887150764465332
-0.55354905128479,-1.5353069305419922,2.1583735942840576,0.1145508885383606,0.2223854660987854,0.1458457112312317
-0.9260600805282593,-0.8756321668624878,2.488900899887085,0.08951601386070251,0.25043803453445435,0.2516383230686188
-0.8123325109481812,-0.7345589399337769,3.0004422664642334,0.1754576563835144,0.35016024112701416,0.2139715850353241
-0.1504187136888504,-1.2415001392364502,3.475193500518799,0.2245635986328125,0.39622682332992554,0.11605092883110046
0.18084201216697693,-1.5487937927246094,3.502412796020508,0.07342100143432617,0.3350321054458618,0.10144287347793579
-0.5353655815124512,-1.3509680032730103,3.235992670059204,-0.15381813049316406,0.15206778049468994,0.25319576263427734
-1.6211336851119995,-0.6798135638237,2.9287848472595215,-0.3141945004463196,0.11164522171020508,0.4109220504760742
-2.2918648719787598,-0.37669482827186584,3.219987630844116,-0.11861485242843628,0.2163252830505371,0.3582004904747009
-2.3328676223754883,-0.8519117832183838,3.8395068645477295,0.10589265823364258,0.24363061785697937,0.11220735311508179
-2.2806522846221924,-1.0460078716278076,4.062169551849365,-0.0908544659614563,0.14912149310112,-0.08163818717002869
-2.459380865097046,-0.7288038730621338,3.6860053539276123,-0.4576358199119568,0.07198569178581238,-0.12331509590148926
-2.468372106552124,-1.0242083072662354,3.229753255844116,-0.5964168310165405,0.1293378472328186,-0.09084898233413696
-1.8881086111068726,-1.823164701461792,3.2289347648620605,-0.4160536527633667,0.16816465556621552,-0.1596975028514862
-0.820209801197052,-2.449490785598755,3.105923891067505,-0.3681905269622803,0.1726842224597931,-0.31702351570129395
-0.01537740882486105,-2.569369316101074,2.6828219890594482,-0.46347570419311523,0.14334404468536377,-0.363309383392334
-0.05028672516345978,-2.339266538619995,2.363229990005493,-0.476817786693573,0.03989192843437195,-0.24053022265434265
-0.5203998684883118,-1.7575035095214844,2.2338221073150635,-0.4108550548553467,-0.08541068434715271,-0.09796153008937836
-0.9296404123306274,-1.391553521156311,2.110821008682251,-0.37862133979797363,-0.17143607139587402,-0.04268038272857666
-1.0564584732055664,-1.1170564889907837,1.8143926858901978,-0.3842232823371887,-0.2672099471092224,-0.11315393447875977
-0.9876369833946228,-0.888085663318634,1.413398027420044,-0.3581055998802185,-0.3181920051574707,-0.21060901880264282
-0.8070788383483887,-0.7629624009132385,0.938190221786499,-0.30024993419647217,-0.33393359184265137,-0.22325611114501953
-0.5601943135261536,-0.5893322825431824,0.4983336329460144,-0.2558615803718567,-0.2403685599565506,-0.19641590118408203
-0.22620049118995667,-0.4262581169605255,0.36654427647590637,-0.11602962017059326,-0.10088387131690979,-0.18184249103069305
0.13496938347816467,-0.4678232967853546,0.4982603192329407,0.07680130004882812,-0.033019036054611206,-0.1821189522743225
0.57635098695755,-1.0224310159683228,0.5467683672904968,0.07818371057510376,-0.045887693762779236,-0.12017160654067993
0.9069163203239441,-1.7018333673477173,0.4379841983318329,-0.09261876344680786,-0.0028186440467834473,-0.07300632447004318
0.9669881463050842,-1.8926893472671509,0.3650650978088379,-0.24618196487426758,0.03474262356758118,-0.019833803176879883
0.7270829677581787,-1.69731605052948,0.4381508529186249,-0.24928343296051025,0.059152036905288696,0.00792306661605835
0.3215024471282959,-1.3248990774154663,0.48875555396080017,-0.29494214057922363,0.05559206008911133,0.030812740325927734
-0.02141987718641758,-0.9235923886299133,0.4091307520866394,-0.4217660427093506,0.09459900856018066,0.018645882606506348
-0.22103111445903778,-0.740406334400177,0.08538627624511719,-0.6046028733253479,0.11159756779670715,-0.010624174028635025
-0.25618019700050354,-0.824845552444458,-0.2775399088859558,-0.7042706608772278,0.09856647253036499,-0.011636145412921906
-0.1994280070066452,-0.8430180549621582,-0.48464787006378174,-0.6234267950057983,0.055080264806747437,-0.060561902821063995
-0.05201363191008568,-0.8173328042030334,-0.6163927912712097,-0.5453289151191711,0.055323392152786255,-0.08578289300203323
0.08061463385820389,-0.5975915789604187,-0.7043097019195557,-0.5170835852622986,0.1048339456319809,-0.09615924209356308
0.09860750287771225,-0.2449212670326233,-0.8163759112358093,-0.5281000733375549,0.12344209849834442,-0.04949010908603668
-0.03535984456539154,0.22999294102191925,-0.9609500169754028,-0.5477482676506042,0.10870969295501709,0.0291890949010849
-0.01828061416745186,0.021719766780734062,-1.2422804832458496,-0.5991076827049255,0.06111645698547363,0.11511863768100739
0.09112999588251114,-0.6565322875976562,-1.4918620586395264,-0.6067488193511963,0.026015952229499817,0.16575835645198822
-0.0024217315949499607,-0.8905426263809204,-1.6017705202102661,-0.5690683722496033,0.0004910081624984741,0.18880115449428558
-0.23146690428256989,-0.7029014229774475,-1.791117787361145,-0.5823683738708496,0.011763393878936768,0.1798640489578247
-0.2894669473171234,-0.5966306328773499,-1.9870805740356445,-0.6153662800788879,0.023139305412769318,0.15125276148319244
-0.06351172178983688,-0.7254919409751892,-2.258033514022827,-0.6585426926612854,0.015709994360804558,0.08961734175682068
0.05908316746354103,-0.8638128042221069,-2.431344747543335,-0.6485162377357483,0.03235873579978943,0.09446430206298828
0.21620741486549377,-1.2037032842636108,-2.5886311531066895,-0.6092052459716797,0.04122552275657654,0.13785719871520996
0.25697433948516846,-1.1837602853775024,-2.512481689453125,-0.4963592290878296,0.049869343638420105,0.09609928727149963
0.1391790360212326,-0.9103925824165344,-2.390573501586914,-0.3656947612762451,0.057972073554992676,0.09370243549346924
-0.013402476906776428,-0.6638543605804443,-2.363121271133423,-0.3507980704307556,0.05721333622932434,0.10223498940467834
-0.09079545736312866,-0.5292202830314636,-2.347705125808716,-0.297280490398407,0.0791161060333252,0.06687140464782715
-0.09048248827457428,-0.558686375617981,-2.2957770824432373,-0.24030250310897827,0.09221798181533813,0.016914933919906616
0.16849450767040253,-0.6700669527053833,-2.2763426303863525,-0.1998382806777954,0.06730067729949951,-0.029428482055664062
0.44285669922828674,-0.706076443195343,-2.211217164993286,-0.14982342720031738,0.03690174221992493,-0.08381453156471252
0.52196204662323,-0.6734824180603027,-2.18967342376709,-0.10337841510772705,0.03333646059036255,-0.028349846601486206
0.40213945508003235,-0.4247738718986511,-2.1030044555664062,-0.051384031772613525,0.04009261727333069,0.02769377827644348
0.2608722746372223,-0.26218047738075256,-2.135406255722046,-0.07389682531356812,0.02497348189353943,0.04653167724609375
0.18237443268299103,-0.243020161986351,-2.1457974910736084,-0.0688968300819397,0.05414307117462158,0.04972386360168457
0.07890910655260086,-0.33329007029533386,-2.10904598236084,-0.061690568923950195,0.0303499698638916,0.05202031135559082
0.1439647376537323,-0.6308732032775879,-2.2162821292877197,-0.09909993410110474,0.06913238763809204,0.02701026201248169
0.2765920162200928,-0.7035461068153381,-2.4380486011505127,-0.13512486219406128,0.07870984077453613,-0.0768384337425232
0.22338898479938507,-0.40338268876075745,-2.509989023208618,-0.11127603054046631,0.11080276966094971,-0.12330079078674316
0.1710098385810852,-0.12860913574695587,-2.6221587657928467,-0.047879576683044434,0.1605755090713501,-0.1323489546775818
0.08228377252817154,0.28849804401397705,-2.6738531589508057,-0.01174694299697876,0.23227614164352417,-0.18560415506362915
-0.23556235432624817,0.7064311504364014,-2.63372802734375,0.04512149095535278,0.24912208318710327,-0.13387399911880493
-0.6989828944206238,0.8373739719390869,-2.5664894580841064,0.06968003511428833,0.3021649718284607,0.009668290615081787
-1.0914160013198853,0.9251551032066345,-2.5596017837524414,0.10734337568283081,0.29295915365219116,0.06688427925109863
-1.0332173109054565,0.9499676823616028,-2.6373324394226074,0.05839961767196655,0.35711950063705444,-0.023260116577148438
-0.590214729309082,0.9105631709098816,-2.553778648376465,0.07215672731399536,0.412162184715271,-0.18567252159118652
-0.4006679952144623,1.1790180206298828,-2.288832187652588,0.11246630549430847,0.39293134212493896,-0.21819764375686646
-0.5383883118629456,1.4869407415390015,-2.136669158935547,0.08088520169258118,0.4044724702835083,-0.060086458921432495
-0.6854161024093628,1.3915140628814697,-2.0999538898468018,0.01868140697479248,0.39436638355255127,0.018296360969543457
-0.8209517598152161,1.3507438898086548,-2.0574898719787598,0.03598833084106445,0.40717124938964844,0.03763425350189209
-0.8841134905815125,1.542460322380066,-1.919368863105774,0.06724628806114197,0.4414471983909607,-0.009112372994422913
-0.8989055156707764,1.849273681640625,-1.6842156648635864,0.12622761726379395,0.46164679527282715,-0.043272972106933594
-0.7388607263565063,1.9460620880126953,-1.4578814506530762,0.15801076591014862,0.456915020942688,-0.07486771047115326
-0.49964866042137146,1.896517038345337,-1.2659502029418945,0.17206645011901855,0.45106565952301025,-0.08284306526184082
-0.2717095911502838,1.711883544921875,-1.2078965902328491,0.13082361221313477,0.42776262760162354,-0.06404486298561096
-0.16919225454330444,1.5625196695327759,-1.1638332605361938,0.10647164285182953,0.39889979362487793,-0.02974770963191986
-0.16538219153881073,1.6024962663650513,-1.043803095817566,0.11397573351860046,0.39741820096969604,-0.0007361173629760742
-0.09960892051458359,1.674505352973938,-0.8021038174629211,0.16128957271575928,0.4141238331794739,-0.01052071899175644
-0.05486509948968887,1.840848684310913,-0.4981365501880646,0.17995941638946533,0.4118545651435852,-0.06998573243618011
-0.23917746543884277,2.074005365371704,-0.30004334449768066,0.16494181752204895,0.38446468114852905,-0.032845743000507355
-0.46463871002197266,1.912176251411438,-0.4099842309951782,0.017134010791778564,0.30809831619262695,0.030836105346679688
-0.6486372351646423,1.3994967937469482,-0.5572237968444824,-0.05661764740943909,0.25821948051452637,0.06425285339355469
-0.7964814305305481,0.9530493021011353,-0.4616047143936157,0.02072960138320923,0.2825658917427063,0.04946541786193848
-0.9186038374900818,0.9119592905044556,-0.1240217462182045,0.13241149485111237,0.27795302867889404,-0.024883870035409927
-0.9245958924293518,1.1443711519241333,0.0820079818367958,0.12650372087955475,0.2832750082015991,-0.09997224807739258
-0.796581506729126,1.2269572019577026,0.046541742980480194,0.03073861449956894,0.2437669038772583,-0.14187240600585938
-0.6219617128372192,1.0032763481140137,-0.04662328213453293,-0.01941622793674469,0.2139630913734436,-0.12435835599899292
-0.5364569425582886,0.5966373682022095,-0.00043348781764507294,0.03092491626739502,0.18139898777008057,-0.058992207050323486
-0.602272093296051,0.4940127432346344,0.20328018069267273,0.12439118325710297,0.1857222318649292,-0.007518589496612549
-0.7160188555717468,0.6535239219665527,0.37265849113464355,0.1440943032503128,0.16891014575958252,-0.004924707114696503
-0.8039736747741699,0.9309250116348267,0.4194106459617615,0.1095186322927475,0.15488475561141968,-0.03460884094238281
-0.8863682746887207,1.1791239976882935,0.3883325755596161,0.06911052763462067,0.16131383180618286,-0.04320000112056732
-0.9579868316650391,1.2651547193527222,0.353539377450943,0.06192222237586975,0.19308006763458252,-0.030788466334342957
-1.0242583751678467,1.1688321828842163,0.2898486256599426,0.06050341576337814,0.1913132667541504,-0.0048714280128479
-1.2037549018859863,1.1551958322525024,0.27778252959251404,0.06748412549495697,0.19879114627838135,0.03178226947784424
-1.4356769323349,1.1660456657409668,0.3447163701057434,0.09740652143955231,0.23147201538085938,0.09176690876483917
-1.5759402513504028,1.0108554363250732,0.5076113939285278,0.15684640407562256,0.25213027000427246,0.1203332245349884
-1.490889549255371,0.7165426015853882,0.7712597250938416,0.17621122300624847,0.2745465040206909,0.07335364818572998
-1.179958462715149,0.1667138934135437,0.9773751497268677,0.16007348895072937,0.29514819383621216,0.014298498630523682
-0.9405272603034973,-0.2633388638496399,1.032952904701233,0.09664855897426605,0.2592731714248657,-0.03565678000450134
-1.1858092546463013,-0.2336546629667282,0.921204686164856,0.024020448327064514,0.21764594316482544,0.034976422786712646
-1.7720293998718262,0.2172585278749466,0.7658215165138245,-0.010868072509765625,0.1978817582130432,0.1384088695049286
-2.2640621662139893,0.5810564160346985,0.7558475732803345,0.028879284858703613,0.23877573013305664,0.18188941478729248
-2.187504291534424,0.3706056475639343,1.026822805404663,0.1376636028289795,0.28081977367401123,0.08106034994125366
-1.6215101480484009,-0.369731068611145,1.3554234504699707,0.205558642745018,0.3120197653770447,-0.06713059544563293
-1.1912504434585571,-0.7801964282989502,1.4457851648330688,0.16117602586746216,0.2551668882369995,-0.13157427310943604
-1.5045057535171509,-0.4880620241165161,1.2091697454452515,-0.017722129821777344,0.18379956483840942,-0.01362830400466919
-2.136873722076416,0.10366473346948624,0.9876925349235535,-0.0693434476852417,0.14507842063903809,0.1406734585762024
-2.356510639190674,0.24735665321350098,1.1539586782455444,0.0656188428401947,0.2102360725402832,0.18505167961120605
-1.7411617040634155,-0.611529529094696,1.6679627895355225,0.2684381604194641,0.2809038758277893,0.07096052169799805
-1.2013869285583496,-1.572669267654419,1.9913959503173828,0.241330087184906,0.24172842502593994,-0.046802520751953125
-1.6805564165115356,-1.1913995742797852,1.6815799474716187,-0.047790199518203735,0.0813400149345398,0.043058156967163086
-2.703964948654175,0.10957622528076172,1.1278772354125977,-0.3140299320220947,0.03617894649505615,0.17333859205245972
-3.252314329147339,0.8453921675682068,1.0416227579116821,-0.19783276319503784,0.14026308059692383,0.1956169605255127
-2.9338889122009277,0.23553085327148438,1.5461270809173584,0.1466045379638672,0.2119576334953308,0.05243074893951416
-2.8468217849731445,-0.2716811001300812,1.8930326700210571,0.22231611609458923,0.12810426950454712,-0.026742517948150635
-3.5649189949035645,0.16448920965194702,1.4198540449142456,-0.13024425506591797,0.010343879461288452,0.03246110677719116
-4.598796367645264,1.3422507047653198,0.4481046199798584,-0.4594235420227051,-0.1267319917678833,0.07559913396835327
-5.089219570159912,1.9937734603881836,-0.24491983652114868,-0.4633302092552185,-0.020309150218963623,0.037223100662231445
-4.460632801055908,1.146694540977478,-0.1619332730770111,-0.08339694142341614,0.11357679963111877,-0.07468926906585693
-2.767151117324829,-0.8373091220855713,0.6268671751022339,0.2704809010028839,0.204591765999794,-0.2700396776199341
-0.5441224575042725,-2.729410409927368,1.499202013015747,0.379626601934433,0.20189183950424194,-0.4608513116836548
1.091123342514038,-3.50439190864563,1.8475364446640015,0.2228211760520935,0.16350075602531433,-0.43811094760894775
1.071031928062439,-3.276205062866211,1.7854783535003662,0.033645451068878174,0.07928866147994995,-0.13129276037216187
-0.1880156546831131,-2.186814308166504,1.5745792388916016,-0.06109285354614258,-0.018998384475708008,0.25138598680496216
-1.3589274883270264,-1.116530418395996,1.521863341331482,-0.08185714483261108,0.012633875012397766,0.36235111951828003
-1.4400206804275513,-0.9729958772659302,1.597758173942566,-0.020255088806152344,0.012071043252944946,0.12037456035614014
-0.5478032827377319,-1.5867236852645874,1.6139036417007446,-0.05009406805038452,0.047768883407115936,-0.1853378415107727
0.36242198944091797,-2.2320353984832764,1.4916595220565796,-0.12489056587219238,0.09124989807605743,-0.24574601650238037
0.5323001742362976,-2.4888904094696045,1.3776600360870361,-0.13126736879348755,0.09669765830039978,-0.10135418176651001
-0.025690363720059395,-2.1957554817199707,1.355964183807373,-0.05812960863113403,0.05462604761123657,0.08209383487701416
-0.7854236364364624,-1.8047140836715698,1.477874517440796,-0.026195049285888672,0.08150508999824524,0.15244925022125244
-1.349628210067749,-1.4578535556793213,1.5807666778564453,-0.02212226390838623,0.10786059498786926,0.09059149026870728
-1.5143804550170898,-1.0662181377410889,1.482440710067749,-0.1925135850906372,0.14304059743881226,-0.09682118892669678
-1.368293046951294,-0.9457636475563049,1.3939112424850464,-0.28733450174331665,0.19295328855514526,-0.22924202680587769
-1.3157858848571777,-0.887082040309906,1.321152687072754,-0.240886390209198,0.1208251416683197,-0.2306264042854309
-1.4396023750305176,-0.5428391098976135,0.9865696430206299,-0.28097832202911377,0.09233462810516357,-0.18234533071517944
-1.3847379684448242,0.1409706473350525,0.553348958492279,-0.45298612117767334,0.16606324911117554,-0.28920766711235046
-1.0277526378631592,0.6168994307518005,0.4550700783729553,-0.4779762029647827,0.24246984720230103,-0.4258882999420166
-0.6428820490837097,0.5052531957626343,0.5185145735740662,-0.4215521216392517,0.2546321451663971,-0.4119645953178406
-0.5412002205848694,0.18295696377754211,0.44756054878234863,-0.472720205783844,0.2403964102268219,-0.31214094161987305
-0.5940393209457397,0.057336002588272095,0.10136961191892624,-0.6043292880058289,0.16183063387870789,-0.2814389765262604
-0.49169981479644775,0.32649463415145874,-0.39113128185272217,-0.7965806126594543,0.07607334852218628,-0.43035340309143066
-0.19493278861045837,0.8386956453323364,-0.7445830702781677,-0.8424179553985596,0.06489872932434082,-0.5825792551040649
-0.017656899988651276,1.25322425365448,-0.9692381024360657,-0.7943428754806519,0.04991218447685242,-0.6135997176170349
-0.024918772280216217,1.3999269008636475,-1.1761149168014526,-0.7543741464614868,0.043259650468826294,-0.5140374898910522
0.09329196810722351,1.2200535535812378,-1.3399049043655396,-0.7476027011871338,0.04359996318817139,-0.4801877737045288
0.5589237213134766,0.8876098990440369,-1.4787120819091797,-0.7312873601913452,0.05800360441207886,-0.5590612292289734
1.174236536026001,0.6963955163955688,-1.5503727197647095,-0.7000871896743774,0.08388394117355347,-0.6636160612106323
1.556134581565857,0.7827998995780945,-1.638128399848938,-0.6620789766311646,0.10369914770126343,-0.6248326897621155
1.7191003561019897,0.891362726688385,-1.776352882385254,-0.6370527148246765,0.11212265491485596,-0.4876292943954468
1.861170768737793,0.799144983291626,-1.829535961151123,-0.5821638703346252,0.08587521314620972,-0.3735617995262146
1.9736419916152954,0.6021764874458313,-1.790984034538269,-0.45099079608917236,0.08411015570163727,-0.27863454818725586
2.074810266494751,0.38283011317253113,-1.8164899349212646,-0.39276623725891113,0.05382773280143738,-0.22436070442199707
2.133111000061035,0.1908249706029892,-1.8859889507293701,-0.3819463849067688,0.007267532870173454,-0.19246739149093628
2.2221827507019043,0.0994497537612915,-1.9270068407058716,-0.32283109426498413,-0.02074912190437317,-0.1857050657272339
2.2925853729248047,0.07293912023305893,-2.0532901287078857,-0.29383087158203125,-0.006495624780654907,-0.17955565452575684
2.263183116912842,0.10074232518672943,-2.2271158695220947,-0.28819507360458374,0.01854577660560608,-0.1355859637260437
2.1516244411468506,0.21390178799629211,-2.358534097671509,-0.23861992359161377,0.014425322413444519,-0.09058034420013428
1.9904524087905884,0.3676966726779938,-2.350457191467285,-0.16581279039382935,0.033314526081085205,-0.057076334953308105
1.8865655660629272,0.3976675868034363,-2.3648648262023926,-0.12164711952209473,0.043929606676101685,-0.036963582038879395
2.040421485900879,0.281264066696167,-2.409029722213745,-0.13164782524108887,0.0677151083946228,-0.09070843458175659
2.411170482635498,0.06428293883800507,-2.4521636962890625,-0.08895599842071533,0.1357508897781372,-0.17555677890777588
2.680961847305298,0.10797137022018433,-2.5225536823272705,-0.08822846412658691,0.18220990896224976,-0.21553486585617065
2.704639434814453,0.3306392431259155,-2.5608255863189697,-0.07761156558990479,0.2618953585624695,-0.14548969268798828
2.610734701156616,0.5357100963592529,-2.5089519023895264,-0.06432658433914185,0.3161187171936035,-0.07692623138427734
2.645435094833374,0.5219830870628357,-2.3309032917022705,-0.01128154993057251,0.38065314292907715,-0.05500835180282593
3.01693058013916,0.024829955771565437,-2.149953842163086,-0.0019261837005615234,0.4805421829223633,-0.13926637172698975
3.3944952487945557,-0.8291587233543396,-1.9480962753295898,0.03454393148422241,0.5668827891349792,-0.20731723308563232
3.220900058746338,-1.4694015979766846,-1.822627067565918,0.02434810996055603,0.5433323383331299,-0.17140042781829834
2.4939167499542236,-1.6060525178909302,-1.8785654306411743,0.00886276364326477,0.48882508277893066,0.00421905517578125
1.764829158782959,-1.0153628587722778,-1.876426339149475,-0.06748232245445251,0.3974772095680237,-0.008998692035675049
1.4590818881988525,-0.22684699296951294,-1.7294098138809204,-0.02658209204673767,0.43025797605514526,-0.1225692480802536
1.450619101524353,0.30978211760520935,-1.4224885702133179,0.03772744536399841,0.4255636930465698,-0.17284703254699707
1.569452166557312,0.4594176113605499,-1.2839144468307495,0.08602342009544373,0.4229704737663269,-0.12980800867080688
1.8693275451660156,0.06686148792505264,-1.5965763330459595,-0.037071824073791504,0.40064704418182373,-0.0710861086845398
2.0413272380828857,-0.44172850251197815,-1.8369945287704468,-0.01146620512008667,0.4497773051261902,-0.020722858607769012
1.8465831279754639,-0.5479726195335388,-1.7101688385009766,0.16339974105358124,0.4859962463378906,0.06838500499725342
1.404552936553955,-0.1776798516511917,-1.4202836751937866,0.2682682275772095,0.4890608787536621,0.09401798248291016
0.9730400443077087,0.18817676603794098,-1.1430418491363525,0.29937881231307983,0.506523609161377,0.09656012058258057
0.6926469206809998,0.4278601109981537,-0.8838836550712585,0.27544504404067993,0.4969661235809326,0.062349315732717514
0.6437481641769409,0.5115034580230713,-0.7445213198661804,0.20835638046264648,0.5012558102607727,-0.010648850351572037
0.7721855044364929,0.3124085068702698,-0.6780031323432922,0.1262296587228775,0.5052950382232666,-0.07277525961399078
0.8546051979064941,0.04605736583471298,-0.5384114980697632,0.1452154517173767,0.49736177921295166,-0.07367145270109177
0.8275490999221802,-0.02173401229083538,-0.37875673174858093,0.1785593032836914,0.48623138666152954,-0.058747053146362305
0.824234127998352,-0.00971310492604971,-0.23772120475769043,0.1558092087507248,0.46975159645080566,-0.07040025293827057
0.8873263001441956,-0.04890468344092369,-0.02035233937203884,0.17543339729309082,0.4533652067184448,-0.07765603065490723
0.920431911945343,-0.09668498486280441,0.24069368839263916,0.1976075917482376,0.41724514961242676,-0.08181895315647125
0.854129433631897,-0.16373033821582794,0.38351523876190186,0.16797178983688354,0.39368462562561035,-0.046724915504455566
0.6523723602294922,-0.13849449157714844,0.33109357953071594,0.06068810075521469,0.3525086045265198,0.006566032767295837
0.35700321197509766,-0.04027942940592766,0.2571096122264862,-0.0003506317734718323,0.3493124842643738,0.04769405722618103
0.14938318729400635,0.06422791630029678,0.370695561170578,0.06423734128475189,0.3368713855743408,0.029060572385787964
-0.00891805812716484,0.2234448492527008,0.6022109985351562,0.1370231956243515,0.3268886208534241,-0.007048964500427246
-0.22173787653446198,0.5661841630935669,0.7546566724777222,0.12863823771476746,0.29267460107803345,-0.02135944366455078
-0.3532469868659973,0.6971047520637512,0.7694788575172424,0.0852101743221283,0.2742158770561218,-0.00934937596321106
-0.36730754375457764,0.5576621890068054,0.7414624691009521,0.0597834438085556,0.2529110908508301,0.0030205249786376953
-0.3779212534427643,0.3424466550350189,0.7767159938812256,0.058862850069999695,0.25670450925827026,0.015372753143310547
-0.5850980877876282,0.3842182159423828,0.8690080046653748,0.1183277815580368,0.2775239944458008,0.037323251366615295
-1.0050935745239258,0.64918452501297,0.8457970023155212,0.12901484966278076,0.3218832015991211,0.08739231526851654
-1.4936763048171997,0.9789217710494995,0.8830357193946838,0.18224269151687622,0.36627334356307983,0.11548220366239548
-1.8134355545043945,1.1597158908843994,1.0301350355148315,0.2523373067378998,0.4004121422767639,0.10875332355499268
-1.8544816970825195,1.0934104919433594,1.1389129161834717,0.2462325394153595,0.3878765106201172,0.054357413202524185
-1.9222009181976318,0.995252251625061,1.0686924457550049,0.15846940875053406,0.34838443994522095,0.02542489767074585
-2.1035022735595703,0.9773574471473694,1.0310341119766235,0.11391600966453552,0.31852906942367554,0.0801122784614563
-2.161278247833252,0.9698207378387451,1.0906329154968262,0.12749573588371277,0.3100561499595642,0.07216145098209381
-2.0613114833831787,0.8563467860221863,1.2060432434082031,0.12358954548835754,0.3050127625465393,0.042087212204933167
-1.971258282661438,0.60978102684021,1.282199501991272,0.10948646068572998,0.2709585428237915,0.02813170850276947
-2.120907783508301,0.48743849992752075,1.4145103693008423,0.09128400683403015,0.23207873106002808,0.08848752081394196
-2.249990701675415,0.4288066327571869,1.5596224069595337,0.08449262380599976,0.1980096697807312,0.10387983918190002
-2.0227694511413574,0.14079886674880981,1.611103892326355,0.043699294328689575,0.1742437481880188,0.04701197147369385
-1.5430063009262085,-0.3245210349559784,1.6595349311828613,0.046285271644592285,0.15883225202560425,-0.040494680404663086
-1.1075776815414429,-0.697974681854248,1.693999171257019,0.061848342418670654,0.17727327346801758,-0.04894760251045227
-0.8064049482345581,-0.9560970664024353,1.8186208009719849,0.07208245992660522,0.18698060512542725,-0.011780768632888794
-0.8241228461265564,-1.0919009447097778,2.0082082748413086,0.10948801040649414,0.17134279012680054,0.03180071711540222
-1.166598916053772,-0.8604795336723328,2.074627161026001,0.05178999900817871,0.15397971868515015,0.10521760582923889
-1.4505963325500488,-0.4515478312969208,1.9635753631591797,-0.05272388458251953,0.13876235485076904,0.09552869200706482
-1.2337605953216553,-0.42150023579597473,1.9566946029663086,-0.04219925403594971,0.15223991870880127,-0.00929558277130127
-0.5111106634140015,-0.9063878059387207,2.141691207885742,0.08959305286407471,0.220056414604187,-0.10151201486587524
0.1483014076948166,-1.735290765762329,2.493629217147827,0.1860642433166504,0.2752648591995239,-0.11032271385192871
-0.2170127034187317,-1.7573720216751099,2.660858631134033,0.0993925929069519,0.18747806549072266,0.06492534279823303
-1.2909226417541504,-0.8378990888595581,2.5648558139801025,-0.07130932807922363,0.1388826072216034,0.24562272429466248
-2.1071999073028564,0.24906671047210693,2.3501040935516357,-0.1644270420074463,0.14795243740081787,0.19902288913726807
-2.0676934719085693,0.5659434199333191,2.1502935886383057,-0.15217620134353638,0.15457403659820557,0.01195681095123291
-1.4212504625320435,0.06373348832130432,2.1468088626861572,-0.02139335870742798,0.1935659646987915,-0.14357319474220276
-0.9447245597839355,-0.6818605661392212,2.186483144760132,-0.0035290122032165527,0.15575462579727173,-0.14379221200942993
-1.0995529890060425,-0.8038291931152344,2.1756412982940674,-0.06356453895568848,0.07315310835838318,-0.013940364122390747
-1.5510432720184326,-0.4550060033798218,2.0727806091308594,-0.18910348415374756,0.0699792355298996,0.058733075857162476
-1.7566874027252197,-0.14052218198776245,1.9718425273895264,-0.242944598197937,0.09438014030456543,0.034679114818573
-1.3994168043136597,-0.3833217918872833,1.8949272632598877,-0.22875171899795532,0.13214722275733948,-0.11659562587738037
-0.8047268390655518,-0.8678958415985107,1.7847248315811157,-0.29133111238479614,0.09787166118621826,-0.23298880457878113
-0.4263368844985962,-1.3199005126953125,1.6721476316452026,-0.320779025554657,0.12834951281547546,-0.23346474766731262
-0.3481805622577667,-1.5413309335708618,1.6728134155273438,-0.38361674547195435,0.17919570207595825,-0.14715149998664856
-0.3964615762233734,-1.8234809637069702,1.955179214477539,-0.3573627471923828,0.1801416277885437,-0.11921951174736023
-0.6030429005622864,-1.673688292503357,2.286039113998413,-0.3751232624053955,0.15582728385925293,-0.13682740926742554
-0.7881253361701965,-1.022325038909912,2.2366859912872314,-0.4925016760826111,0.05167533457279205,-0.24341146647930145
-0.5906343460083008,-0.5424084663391113,2.128209114074707,-0.6284471750259399,0.012258082628250122,-0.3872993588447571
-0.10980706661939621,-0.5486783385276794,1.934855341911316,-0.6891520023345947,-0.020556867122650146,-0.4880831241607666
0.24388019740581512,-0.7115170359611511,1.412280797958374,-0.8325491547584534,-0.05677029490470886,-0.40896034240722656
0.41156840324401855,-0.5786275267601013,0.7290225028991699,-0.9741612076759338,-0.12087422609329224,-0.32096385955810547
0.4266278147697449,-0.05313226580619812,0.26923319697380066,-0.8672341704368591,-0.14572948217391968,-0.2585717439651489
0.419834703207016,0.5019579529762268,-0.047195497900247574,-0.7534723281860352,-0.07072389125823975,-0.1893451064825058
0.4029090404510498,0.8821001052856445,-0.2628273665904999,-0.6645263433456421,0.012144476175308228,-0.11215518414974213
0.48509320616722107,1.0155798196792603,-0.3959844708442688,-0.6072468161582947,0.06563544273376465,-0.05298346281051636
0.6098124384880066,0.8088318705558777,-0.4424540102481842,-0.5599743127822876,0.09083455801010132,-0.0022833943367004395
0.7887827754020691,0.4573202133178711,-0.5368483662605286,-0.5843061208724976,0.04007557034492493,0.021098047494888306
