rotation_x,rotation_y,rotation_z,acceleration_x,acceleration_y,acceleration_z
-0.20251084864139557,-0.16377809643745422,-0.2760676443576813,-0.008705079555511475,-0.02237868309020996,0.05031418800354004
-0.38720983266830444,-0.420084148645401,-0.27115824818611145,0.02578631043434143,-0.05196666717529297,0.08947676420211792
-0.44271835684776306,-0.7120369076728821,-0.2775799036026001,-0.008854269981384277,-0.017826974391937256,0.07272201776504517
-0.41105014085769653,-1.0369793176651,-0.33489280939102173,-0.009768307209014893,-0.025979042053222656,0.05490517616271973
-0.36060914397239685,-1.4463354349136353,-0.45095983147621155,0.005816400051116943,-0.04968249797821045,0.04515659809112549
-0.23082032799720764,-1.6400216817855835,-0.6034380197525024,0.05084910988807678,-0.07299560308456421,0.0005753040313720703
-0.20005643367767334,-1.8312815427780151,-0.7528498768806458,-0.004247903823852539,-0.010268807411193848,0.01736438274383545
-0.41910308599472046,-1.7741682529449463,-0.845550537109375,-0.028893426060676575,-0.008807063102722168,0.04149359464645386
-0.4978795349597931,-1.4732105731964111,-0.839258074760437,-0.024736016988754272,-0.003791332244873047,-0.019865214824676514
-0.43559712171554565,-1.7571489810943604,-0.7168100476264954,-0.04193161427974701,0.029552817344665527,-0.07963842153549194
-0.5329522490501404,-2.2362215518951416,-0.555482804775238,0.020880624651908875,0.006309986114501953,0.005585372447967529
-0.7488399147987366,-2.1451094150543213,-0.25792020559310913,0.07800789177417755,-0.10217565298080444,0.025574862957000732
-0.8390088081359863,-1.5942754745483398,-0.01947701722383499,-0.007650017738342285,-0.03663581609725952,0.0008664727210998535
-0.8424938321113586,-1.0117523670196533,0.225039541721344,-0.052501097321510315,-0.0033547282218933105,-0.03370702266693115
-0.9455978870391846,-0.9087390899658203,0.5085046887397766,-0.0795854926109314,0.0013090670108795166,0.026247859001159668
-0.7706970572471619,-0.7805709838867188,0.825584888458252,-0.06746158003807068,-0.05082133412361145,0.033010780811309814
-0.12889526784420013,-0.37181738018989563,1.011694073677063,-0.02196429669857025,-0.14988893270492554,-0.08884894847869873
0.7316080927848816,0.12758281826972961,-0.05718674883246422,0.03178483247756958,-0.12244981527328491,-0.09561324119567871
1.08895742893219,-0.41182777285575867,0.02857632376253605,0.10304765403270721,-0.15706083178520203,-0.07400017976760864
1.1419470310211182,-0.7827163934707642,0.21993419528007507,0.04149468243122101,-0.054788827896118164,0.019442081451416016
1.1059746742248535,-0.9911637902259827,0.27326056361198425,-0.04375886544585228,-0.21511760354042053,0.0535891056060791
1.018471598625183,-1.190014362335205,0.2503759264945984,-0.07242720574140549,-0.3197461664676666,-0.011186659336090088
1.08927583694458,-1.7482930421829224,-0.382217139005661,-0.24970629811286926,-0.2083032727241516,-0.022071897983551025
1.228621482849121,-2.0871660709381104,-0.9877426028251648,-0.31662237644195557,-0.26639461517333984,-0.10708451271057129
1.1258331537246704,-1.471960425376892,-1.0145810842514038,-0.10895651578903198,-0.169023334980011,-0.1987643837928772
0.7672950625419617,-0.8407807946205139,-0.6869024038314819,0.06980226933956146,-0.01370537281036377,-0.17018651962280273
0.30667993426322937,-0.7303351163864136,-0.7342724800109863,0.04071745276451111,-0.012462437152862549,-0.006351113319396973
-0.08160261809825897,-0.45077013969421387,-1.014369010925293,-0.08783078193664551,0.008219122886657715,0.021699130535125732
-0.10351280122995377,-0.0988602563738823,-1.2660421133041382,-0.09429532289505005,0.10087710618972778,-0.17012077569961548
0.17675890028476715,0.15453028678894043,-0.9035561680793762,-0.001194298267364502,0.25312936305999756,-0.319797158241272
0.42362675070762634,0.3304283618927002,0.11273899674415588,0.34058159589767456,0.5841332674026489,-0.3352581858634949
0.4621943235397339,-0.01293503399938345,-0.1743706613779068,0.18232838809490204,0.22317612171173096,-0.2471555471420288
0.7615398168563843,-0.33461248874664307,-0.36825984716415405,0.04031233489513397,0.20457959175109863,-0.24018216133117676
0.7120110392570496,-0.5873419046401978,-0.4446543753147125,0.020175188779830933,0.18532246351242065,-0.14856135845184326
0.47757312655448914,-0.42497509717941284,-0.4805862307548523,0.025608986616134644,0.1888974905014038,-0.02083873748779297
0.03360765054821968,0.4343467950820923,-0.3240341544151306,0.008372463285923004,0.17974120378494263,-0.011441409587860107
0.16952727735042572,0.3456957936286926,-0.2030247151851654,0.012748479843139648,0.21895831823349,0.051290154457092285
0.28014183044433594,0.12612657248973846,-0.17130015790462494,0.0008428171277046204,0.14965790510177612,0.0850631594657898
0.30399852991104126,0.17015990614891052,-0.0737074762582779,0.04262639582157135,0.14631223678588867,0.07508832216262817
0.058638833463191986,0.2372172325849533,-0.10908544063568115,0.02545415610074997,0.13161110877990723,0.14193755388259888
-0.1574173867702484,0.24773624539375305,-0.12888550758361816,0.042126014828681946,0.10168927907943726,0.1794281005859375
-0.11395032703876495,0.17725567519664764,-0.08460354059934616,0.07135920226573944,0.12906956672668457,0.11091423034667969
0.05734313651919365,0.2219356894493103,0.11038307100534439,0.06589029729366302,0.13871383666992188,0.02512657642364502
0.1325380653142929,0.2941710352897644,0.31531602144241333,0.07419178634881973,0.1396874189376831,0.034930646419525146
0.12436901032924652,0.09992745518684387,0.3796949088573456,0.0719587504863739,0.06607156991958618,0.07856684923171997
0.04184166342020035,-0.311447411775589,0.26512545347213745,0.035655632615089417,-0.00022619962692260742,0.14815211296081543
-0.18863746523857117,-0.3822552561759949,0.11537955701351166,-0.03060266375541687,-0.044586777687072754,0.16578227281570435
-0.5099603533744812,-0.06409019976854324,-0.03556327521800995,-0.10479335486888885,-0.05212199687957764,0.14144611358642578
-0.6298607587814331,0.30818578600883484,-0.011429416947066784,-0.05661998689174652,-0.03323394060134888,0.0664556622505188
-0.5081984400749207,0.3532101511955261,-0.04261251538991928,-0.06194509565830231,-0.03674966096878052,0.007053971290588379
-0.35263246297836304,0.2519204020500183,-0.10802978277206421,-0.04815332591533661,-0.06616109609603882,-0.01521235704421997
-0.2333362102508545,0.23657231032848358,-0.1512003242969513,-0.011992126703262329,-0.06335890293121338,-0.027512311935424805
-0.13946649432182312,0.26511573791503906,-0.1874682456254959,-0.00022655725479125977,-0.030141592025756836,-0.05479633808135986
-0.09273664653301239,0.09892000257968903,-0.18233737349510193,0.029144786298274994,-0.04335987567901611,-0.042381227016448975
-0.0315447561442852,-0.05449680984020233,-0.15628616511821747,0.055183425545692444,-0.040384531021118164,-0.021810591220855713
-0.002796732122078538,-0.08120192587375641,-0.09729580581188202,0.046221718192100525,-0.02484762668609619,-0.047812700271606445
0.006775804795324802,-0.06723170727491379,-0.07180409878492355,0.04050186276435852,-0.027916252613067627,-0.03276747465133667
-0.011999214068055153,0.020916257053613663,-0.09042065590620041,-0.0013110898435115814,-0.04599040746688843,-0.010675966739654541
-0.08126956224441528,-0.026251716539263725,-0.12858062982559204,-0.025793861597776413,-0.06648528575897217,0.03279191255569458
-0.10450553894042969,-0.10449954867362976,-0.11835117638111115,-0.019570957869291306,-0.05916851758956909,0.06155502796173096
-0.04774775728583336,-0.13753864169120789,-0.1094728633761406,0.00667170062661171,-0.026965081691741943,0.023701965808868408
0.06037404388189316,-0.01213025487959385,-0.11940151453018188,-0.015134066343307495,-0.014201641082763672,-0.044706761837005615
0.05437281355261803,0.08038803935050964,-0.09878051280975342,-0.018436893820762634,-0.005157053470611572,-0.023280441761016846
0.0031556757166981697,0.022620586678385735,-0.06650982052087784,0.006670594215393066,0.00613558292388916,0.025534331798553467
-0.08283031731843948,-0.14072704315185547,-0.06357795000076294,0.016497701406478882,-0.009665846824645996,0.07496964931488037
-0.18983368575572968,-0.07804378122091293,-0.00617738114669919,0.024109680205583572,-0.00563502311706543,0.04905712604522705
-0.21469414234161377,-0.005024403799325228,0.11231821030378342,0.04760730266571045,0.014755666255950928,-0.0010951757431030273
-0.09766559302806854,-0.11883159726858139,0.1842336505651474,0.029305964708328247,-0.005796611309051514,-0.025638997554779053
0.02611919492483139,-0.22743704915046692,0.17001432180404663,-0.0305233895778656,-0.07470178604125977,-0.02398693561553955
0.006261632312089205,-0.17183327674865723,0.161184161901474,-0.09357137978076935,-0.15175849199295044,-0.0002231597900390625
-0.23836231231689453,-0.09892439097166061,0.154368057847023,-0.16717053949832916,-0.2776985168457031,0.049127399921417236
-0.3496021628379822,-0.11315461248159409,0.21252213418483734,-0.16368237137794495,-0.4078899025917053,0.05764847993850708
-0.1129613071680069,-0.5067972540855408,0.3964002728462219,-0.08872905373573303,-0.5720224380493164,-0.010789811611175537
0.5241981148719788,-0.7063923478126526,0.08485505729913712,-0.21196511387825012,-0.7286360263824463,-0.20097321271896362
0.8963029384613037,-1.4616034030914307,0.029227325692772865,-0.46723365783691406,-0.7423191070556641,-0.168052077293396
1.254671573638916,-1.9753750562667847,-0.17816884815692902,-0.2805580198764801,-0.891456663608551,-0.17209327220916748
1.3792064189910889,-2.3914411067962646,-0.5434706807136536,-0.3237742483615875,-0.8252755999565125,-0.06271624565124512
1.4214632511138916,-2.3878726959228516,-0.9398283362388611,-0.3330845236778259,-0.6822649836540222,-0.05417478084564209
1.5664507150650024,-2.515794277191162,-1.009063720703125,-0.14512494206428528,-0.520193874835968,0.007194161415100098
1.9552035331726074,-3.2889044284820557,-0.6663799285888672,0.09667940437793732,-0.2740762233734131,0.09984862804412842
2.3596270084381104,-4.169730186462402,-0.026104947552084923,0.42781829833984375,-0.12535637617111206,0.14819055795669556
2.3172056674957275,-4.860964775085449,0.2588452696800232,0.37159332633018494,0.0735674500465393,0.26137298345565796
1.1435750722885132,-4.556995868682861,0.20158855617046356,0.1402043104171753,0.13865691423416138,0.41310209035873413
-0.5588790774345398,-3.404561758041382,-0.06017281860113144,-0.0033673346042633057,0.18361204862594604,0.5567734837532043
-1.197968602180481,-3.082026243209839,-0.3017440438270569,-0.129777193069458,0.39725637435913086,0.3669387102127075
-0.7383137345314026,-3.3739442825317383,-0.20980003476142883,0.008349359035491943,0.5267107486724854,-0.05308103561401367
-0.6514690518379211,-3.02321457862854,-0.03878830745816231,0.05388462543487549,0.6707148551940918,-0.16323834657669067
-1.201047420501709,-2.1232776641845703,0.15000005066394806,0.071064293384552,0.79619300365448,-0.013626575469970703
-1.9997663497924805,-1.1031794548034668,-0.030749192461371422,-0.011821150779724121,0.7949013710021973,-0.0037101805210113525
-2.1365256309509277,-0.5846264958381653,-0.24033114314079285,-0.015463471412658691,0.7624738812446594,-0.10674959421157837
-1.4758957624435425,-0.5928673148155212,-0.3273794949054718,0.07526832818984985,0.736671507358551,-0.3452475965023041
-0.6838634014129639,-0.760442316532135,-0.2983494699001312,0.1810387372970581,0.6708655953407288,-0.41767796874046326
-0.22589105367660522,-0.5457696914672852,-0.20298832654953003,0.2561439275741577,0.579144299030304,-0.32733505964279175
-0.1263607144355774,-0.2183164656162262,-0.09259083122015,0.33186662197113037,0.5154016613960266,-0.15353253483772278
-0.1138082891702652,-0.1916293203830719,-0.01776733063161373,0.36003077030181885,0.44485533237457275,0.0018995404243469238
0.05319834500551224,-0.4628666043281555,0.017708200961351395,0.33720940351486206,0.43260252475738525,0.05648210644721985
0.28185737133026123,-0.6927017569541931,0.0672735944390297,0.3055427670478821,0.4465392231941223,0.04272294044494629
0.2579174041748047,-0.5347159504890442,0.0903967097401619,0.26088905334472656,0.42159759998321533,0.07493537664413452
-0.03842829167842865,-0.13733704388141632,0.23910269141197205,0.27990084886550903,0.3304041624069214,0.15193000435829163
-0.1908586323261261,-0.13650870323181152,0.27391302585601807,0.28728586435317993,0.24551153182983398,0.15597712993621826
-0.04718535766005516,-0.46532654762268066,0.21469071507453918,0.16931354999542236,0.1945134997367859,0.09763604402542114
0.16956043243408203,-0.7172073721885681,0.04758375883102417,0.07817399501800537,0.21509641408920288,0.030165374279022217
0.20271481573581696,-0.47668102383613586,-0.08593584597110748,0.04199337959289551,0.232446551322937,-0.0017167925834655762
-0.11057320982217789,0.06860186904668808,-0.1169651672244072,0.09913700819015503,0.2441156506538391,0.06281605362892151
-0.43961745500564575,0.3051780164241791,-0.02782273292541504,0.20514994859695435,0.21978509426116943,0.156022846698761
-0.507535994052887,0.10088642686605453,0.1323780119419098,0.2343418002128601,0.20660841464996338,0.1479039192199707
-0.3062739074230194,-0.1849573254585266,0.22197730839252472,0.15008008480072021,0.20915770530700684,0.05331921577453613
-0.11607476323843002,-0.3859459161758423,0.2903662919998169,0.0752914547920227,0.21467655897140503,-0.013947516679763794
-0.037862714380025864,-0.35066697001457214,0.34139513969421387,0.04113107919692993,0.2147393822669983,-0.023478657007217407
-0.15045076608657837,-0.10689729452133179,0.4763050079345703,0.056336283683776855,0.21914011240005493,-0.008388042449951172
-0.39923396706581116,0.08817537873983383,0.5597377419471741,0.01814824342727661,0.19519060850143433,0.07747676968574524
-0.6016923189163208,0.027938982471823692,0.6556529998779297,-0.029714226722717285,0.18457752466201782,0.12278559803962708
-0.6302391290664673,-0.19839559495449066,0.8382009267807007,-0.04773414134979248,0.20102989673614502,0.06864506006240845
-0.5146031975746155,-0.4140792489051819,1.03636634349823,-0.08612287044525146,0.14612215757369995,-0.018495917320251465
-0.4490930438041687,-0.3435742259025574,1.1427985429763794,-0.15412920713424683,0.017975211143493652,-0.11823049187660217
-0.32548853754997253,-0.31443721055984497,1.1782779693603516,-0.26044005155563354,-0.16571956872940063,-0.19530236721038818
-0.180784672498703,-0.4246751070022583,1.0937280654907227,-0.3893023729324341,-0.28539276123046875,-0.23946189880371094
-0.1700478345155716,-0.6401673555374146,0.9443386197090149,-0.46358752250671387,-0.32659268379211426,-0.2286015748977661
-0.2936396300792694,-0.6135231852531433,0.8328560590744019,-0.5244144797325134,-0.3750156760215759,-0.2050800919532776
-0.40461423993110657,-0.4234744608402252,0.6750499606132507,-0.595192551612854,-0.39124125242233276,-0.26405346393585205
-0.40732312202453613,-0.039552055299282074,0.4650956988334656,-0.7275404334068298,-0.436662495136261,-0.38324224948883057
-0.39444708824157715,0.23472538590431213,0.2294503003358841,-0.807969331741333,-0.472123384475708,-0.4601230025291443
-0.35637572407722473,0.24316000938415527,0.09246274828910828,-0.7660225033760071,-0.5203239917755127,-0.43506667017936707
-0.20039908587932587,0.04267694056034088,-0.07310020923614502,-0.7419500350952148,-0.5523079633712769,-0.45491474866867065
-0.07095683366060257,0.05138811841607094,-0.1444980651140213,-0.7129253149032593,-0.501128613948822,-0.4408378303050995
-0.031580135226249695,0.05633946880698204,-0.13096441328525543,-0.6127954721450806,-0.4469389319419861,-0.36331138014793396
0.015013116411864758,0.009223136119544506,-0.10483454167842865,-0.5660539269447327,-0.43456292152404785,-0.33598247170448303
0.04556879773736,-0.05885322019457817,-0.07713313400745392,-0.5300823450088501,-0.4743325710296631,-0.3235260844230652
0.07819706946611404,-0.12213496118783951,-0.20126157999038696,-0.5519281625747681,-0.4688582420349121,-0.3317112922668457
0.04225824400782585,-0.04759947583079338,-0.47931504249572754,-0.6509627103805542,-0.43457114696502686,-0.3285221457481384
-0.19087813794612885,0.2194110006093979,-0.5907202363014221,-0.5734561681747437,-0.3113197088241577,-0.26315486431121826
-0.3055221438407898,0.4002752900123596,-0.5352007746696472,-0.4247356653213501,-0.21666091680526733,-0.23488831520080566
-0.10123316943645477,0.323349267244339,-0.3671015799045563,-0.31653904914855957,-0.15011268854141235,-0.2953422963619232
0.29697370529174805,0.03902313485741615,-0.22739280760288239,-0.28114622831344604,-0.14025110006332397,-0.3397546112537384
0.5213558077812195,-0.17090332508087158,-0.1653580665588379,-0.2918587327003479,-0.1251574158668518,-0.2784159183502197
0.5035073757171631,-0.2281658798456192,-0.2057052105665207,-0.3046897053718567,-0.1638314127922058,-0.13587656617164612
0.2995253801345825,-0.07417736202478409,-0.35531899333000183,-0.3355093002319336,-0.18862318992614746,-0.04847216606140137
0.02345559187233448,0.18403421342372894,-0.46465378999710083,-0.2951323390007019,-0.17272692918777466,0.01475822925567627
-0.040783707052469254,0.17987769842147827,-0.4695805013179779,-0.17628508806228638,-0.1334511637687683,0.009108662605285645
0.01332523487508297,0.008535006083548069,-0.4361437261104584,-0.0734717845916748,-0.08785873651504517,-0.025355100631713867
0.009161305613815784,0.0011563742300495505,-0.4676543176174164,-0.07919478416442871,-0.0681573748588562,-0.042088210582733154
-0.08983006328344345,0.15783299505710602,-0.6060616374015808,-0.12063628435134888,-0.05401343107223511,-0.02251848578453064
-0.09769178926944733,0.2897113263607025,-0.7429911494255066,-0.11587715148925781,-0.015089452266693115,-0.025529563426971436
-0.017173871397972107,0.30650806427001953,-0.9248747229576111,-0.07919597625732422,0.06353944540023804,-0.03434675931930542
0.08391036093235016,0.3547953963279724,-1.0894192457199097,-0.020250976085662842,0.1768597960472107,-0.025941401720046997
0.18662333488464355,0.5201503038406372,-1.149722933769226,0.09126478433609009,0.3359695076942444,-0.014767646789550781
0.4312887489795685,0.41804924607276917,-1.0513170957565308,0.2755403518676758,0.4464913606643677,0.02843034267425537
0.715391993522644,0.20318463444709778,-0.8873885869979858,0.4117864966392517,0.5161247253417969,0.0588870644569397
0.9641150832176208,-0.055382125079631805,-0.6650732755661011,0.5047006607055664,0.5557885766029358,0.1593935787677765
1.050803780555725,-0.41729936003685,-0.5265341401100159,0.5079306960105896,0.5579007863998413,0.2724063992500305
0.8967685103416443,-0.7683352828025818,-0.5453028678894043,0.4557304382324219,0.5812095403671265,0.39046111702919006
0.4095996618270874,-0.5213859677314758,-0.7038758397102356,0.33447080850601196,0.6101893782615662,0.41527435183525085
-0.23988157510757446,0.3420675992965698,-0.9382168650627136,0.2561452388763428,0.658394992351532,0.40688496828079224
-0.6420262455940247,1.268450140953064,-0.9480428695678711,0.358694851398468,0.6947351694107056,0.3459300994873047
-0.6413195729255676,1.585355281829834,-0.5476524233818054,0.6138443946838379,0.6385322213172913,0.29510498046875
-0.262813925743103,0.7718318700790405,0.14556150138378143,0.820549488067627,0.49877405166625977,0.2898353338241577
0.33406922221183777,-0.7039176821708679,0.8037021160125732,0.7777653336524963,0.3674836754798889,0.26432639360427856
0.7294511795043945,-1.6074384450912476,0.9726435542106628,0.39628034830093384,0.22576570510864258,0.20229116082191467
0.6755701899528503,-1.467668056488037,0.7855992913246155,0.006364583969116211,0.07277065515518188,0.12190666794776917
0.31525224447250366,-0.5871391296386719,0.44508934020996094,-0.20914840698242188,-0.056886494159698486,0.07246217131614685
-0.014960838481783867,0.31975775957107544,0.14451979100704193,-0.24696016311645508,-0.1235010027885437,0.019114971160888672
-0.14585092663764954,0.5634492635726929,-0.09550294280052185,-0.16225647926330566,-0.13294082880020142,0.03353923559188843
-0.06981805711984634,0.2739845812320709,-0.19786763191223145,-0.0018864870071411133,-0.07253843545913696,0.054612040519714355
0.023503221571445465,-0.04211999848484993,-0.13197316229343414,0.15866965055465698,0.02365744113922119,0.06717497110366821
0.06617140769958496,-0.1259627491235733,0.08770566433668137,0.27366936206817627,0.11310791969299316,0.06502583622932434
0.1415971964597702,-0.18698973953723907,0.26170656085014343,0.3034442067146301,0.15814894437789917,0.06699052453041077
0.17360827326774597,-0.20204442739486694,0.2806991934776306,0.24952799081802368,0.1724974513053894,0.07337823510169983
0.11832161247730255,-0.06730151921510696,0.1599537581205368,0.17207962274551392,0.18458235263824463,0.10637247562408447
0.07021480053663254,0.038728777319192886,0.0736984983086586,0.1743198037147522,0.22565162181854248,0.1314881145954132
0.019113149493932724,0.021458059549331665,-0.007536671124398708,0.2176927924156189,0.2810167074203491,0.1812744140625
-0.0048795538023114204,-0.048460185527801514,0.04974767565727234,0.29223960638046265,0.3138082027435303,0.206559419631958
-0.024239739403128624,-0.17079389095306396,0.21686643362045288,0.39871591329574585,0.31962746381759644,0.20497432351112366
0.09874363243579865,-0.3312579393386841,0.27304455637931824,0.3754808306694031,0.33283787965774536,0.15985625982284546
0.2138037532567978,-0.42327046394348145,0.25511524081230164,0.3030380606651306,0.335060179233551,0.11554130911827087
0.21672044694423676,-0.5897941589355469,0.26343443989753723,0.3196309208869934,0.3184921145439148,0.13958722352981567
0.1482139676809311,-0.6998345255851746,0.21265463531017303,0.27139467000961304,0.31540578603744507,0.15294018387794495
-0.0013089939020574093,-0.6319341063499451,0.08934687077999115,0.20995092391967773,0.3301003575325012,0.13984251022338867
-0.15230463445186615,-0.35718056559562683,-0.07492365688085556,0.16920208930969238,0.33610236644744873,0.07825124263763428
-0.2994711399078369,0.157377228140831,-0.2364175170660019,0.1714252233505249,0.396900475025177,0.02349090576171875
-0.36860284209251404,0.5562413334846497,-0.07539254426956177,0.29234784841537476,0.42895203828811646,0.013829082250595093
-0.260006844997406,0.32953882217407227,0.3493095636367798,0.4763806462287903,0.4299742579460144,0.05806425213813782
0.025820638984441757,-0.40329810976982117,0.6630541682243347,0.4459279179573059,0.34389519691467285,0.07319727540016174
0.27302923798561096,-1.0425732135772705,0.8168665766716003,0.27909737825393677,0.24271440505981445,0.059644997119903564
0.3332782983779907,-0.9722209572792053,0.9804202318191528,0.14037078619003296,0.2030765414237976,0.003669172525405884
0.17729224264621735,-0.37968671321868896,1.1329765319824219,0.036862730979919434,0.1386204957962036,-0.02561086416244507
-0.019986093044281006,0.0054967645555734634,1.0959913730621338,-0.07723438739776611,0.024318218231201172,-0.016998231410980225
-0.16825145483016968,-0.01643090508878231,0.8357999920845032,-0.2059430480003357,-0.02381819486618042,0.024134308099746704
-0.1438772827386856,-0.24283313751220703,0.5982577204704285,-0.2843799591064453,-0.005190014839172363,0.008411616086959839
-0.05027185007929802,-0.35425370931625366,0.6953223943710327,-0.20238572359085083,-0.015313267707824707,-0.05773976445198059
-0.04802346229553223,-0.3671451210975647,0.9203523397445679,-0.16851437091827393,-0.05253249406814575,-0.07140973210334778
-0.18356820940971375,-0.365119606256485,0.9723364114761353,-0.2697147727012634,-0.15869241952896118,-0.03446599841117859
-0.28833165764808655,-0.19599080085754395,0.8739449381828308,-0.39118897914886475,-0.25082123279571533,-0.08039355278015137
-0.27377036213874817,-0.023699810728430748,0.7559564709663391,-0.45326173305511475,-0.2723357081413269,-0.1515154242515564
-0.09863758087158203,-0.13082800805568695,0.7181459069252014,-0.43628501892089844,-0.2296714186668396,-0.16940844058990479
-0.06826746463775635,-0.2300839126110077,0.6577582359313965,-0.4536212682723999,-0.2402697205543518,-0.15711146593093872
-0.2227075845003128,-0.1741340607404709,0.7096283435821533,-0.4256824254989624,-0.2571655511856079,-0.093472421169281
-0.4186224043369293,0.15126532316207886,0.7115547060966492,-0.4685208201408386,-0.2746516466140747,-0.12387260794639587
-0.42784056067466736,0.22104421257972717,0.7655741572380066,-0.4930734634399414,-0.3047056198120117,-0.15763354301452637
-0.2913760840892792,-0.14049002528190613,0.7635928988456726,-0.5127123594284058,-0.29494404792785645,-0.19207441806793213
-0.23877966403961182,-0.43048903346061707,0.6671576499938965,-0.6099023818969727,-0.3317783772945404,-0.18777093291282654
-0.37163659930229187,-0.27692314982414246,0.5440724492073059,-0.6601895689964294,-0.35232463479042053,-0.20216867327690125
-0.5022937059402466,0.29694288969039917,0.24212418496608734,-0.7679804563522339,-0.3575362265110016,-0.22110867500305176
-0.43159985542297363,0.6560023427009583,0.15968090295791626,-0.7136287689208984,-0.33023378252983093,-0.25704464316368103
-0.11401814967393875,0.17660941183567047,0.2823694050312042,-0.5349571108818054,-0.33499211072921753,-0.20085787773132324
0.1856176257133484,-0.5808495879173279,0.41170167922973633,-0.4772346615791321,-0.3948940932750702,-0.15466773509979248
0.27936550974845886,-0.7973409295082092,0.3175514042377472,-0.6687340140342712,-0.47237637639045715,-0.14927920699119568
0.0754772499203682,-0.337591290473938,0.07840727269649506,-0.8378275632858276,-0.513713002204895,-0.16880089044570923
-0.23508766293525696,0.2271108627319336,-0.16165100038051605,-0.8975901007652283,-0.5139838457107544,-0.1308864951133728
-0.30536046624183655,0.2510451376438141,-0.32819482684135437,-0.8311706781387329,-0.4758628308773041,-0.13784000277519226
-0.20422080159187317,-0.06449219584465027,-0.4164249002933502,-0.703096330165863,-0.445041686296463,-0.20210352540016174
-0.08947210758924484,-0.2608594298362732,-0.540703535079956,-0.650913655757904,-0.4200332462787628,-0.23528537154197693
-0.06860069930553436,-0.09151853621006012,-0.6268439888954163,-0.6099541187286377,-0.36685141921043396,-0.2604341208934784
-0.0932597890496254,0.07720755785703659,-0.7361481785774231,-0.5689249634742737,-0.30376750230789185,-0.23274099826812744
-0.05720224231481552,0.21982549130916595,-0.8183512687683105,-0.4829885959625244,-0.23246729373931885,-0.21576619148254395
0.021664947271347046,0.2980724275112152,-0.8385424017906189,-0.3852159380912781,-0.16045016050338745,-0.21267589926719666
0.13820534944534302,0.1971150040626526,-0.8210061192512512,-0.2685203552246094,-0.1048119068145752,-0.181715726852417
0.2248748242855072,0.08361490815877914,-0.7955824732780457,-0.1870136857032776,-0.07067036628723145,-0.14030912518501282
0.2277967780828476,0.016826361417770386,-0.7945258021354675,-0.11210381984710693,-0.04322940111160278,-0.09463509917259216
0.15589547157287598,0.09510082751512527,-0.8258206248283386,-0.06801331043243408,-0.003565073013305664,-0.070151686668396
0.0808446854352951,0.32423391938209534,-0.9170359373092651,-0.08309215307235718,0.12846195697784424,-0.09735286235809326
0.15156219899654388,0.49319425225257874,-1.127789855003357,-0.10424482822418213,0.21640688180923462,-0.1568138301372528
0.22580215334892273,0.7205851078033447,-1.2465180158615112,-0.023555874824523926,0.25998878479003906,-0.15102103352546692
0.3202937841415405,0.8215618133544922,-1.2620691061019897,0.11230462789535522,0.3221473693847656,-0.08811837434768677
0.38170570135116577,0.7829990386962891,-1.242908239364624,0.1914832592010498,0.38460981845855713,0.0036025047302246094
0.5271131992340088,0.6078664660453796,-1.1398004293441772,0.2752842307090759,0.4494475722312927,0.06272700428962708
0.7063735723495483,0.44231903553009033,-1.0264772176742554,0.36930590867996216,0.48486852645874023,0.10201910138130188
0.8532523512840271,0.3232589364051819,-0.892818808555603,0.4166383147239685,0.46484971046447754,0.15651670098304749
0.8775399923324585,0.027157099917531013,-0.7760118246078491,0.45090270042419434,0.42939138412475586,0.252063512802124
0.6108440160751343,-0.24445080757141113,-0.8591224551200867,0.3848038911819458,0.4324466586112976,0.3485265374183655
0.05739016458392143,0.0025326418690383434,-1.0642905235290527,0.3009362816810608,0.463681697845459,0.3905770480632782
-0.4681040942668915,0.5113388895988464,-1.0730602741241455,0.33083271980285645,0.6202561259269714,0.32969239354133606
-0.7103357911109924,0.82905113697052,-0.7945838570594788,0.43729913234710693,0.7724376320838928,0.2417302429676056
-0.5239608287811279,0.6416212916374207,-0.3691587746143341,0.5540470480918884,0.774819016456604,0.13652101159095764
0.04333999752998352,-0.10345770418643951,0.12040071189403534,0.5915574431419373,0.6266583800315857,0.03763189911842346
0.7136048078536987,-0.8742392063140869,0.4765492379665375,0.48234111070632935,0.39417827129364014,-0.049694985151290894
1.186333179473877,-1.1801979541778564,0.323646605014801,0.19250673055648804,0.20383954048156738,-0.05274960398674011
1.046661138534546,-0.6361846923828125,-0.19026482105255127,-0.10559457540512085,0.05483800172805786,0.024030625820159912
0.286304235458374,0.39617720246315,-0.4754860997200012,-0.050549089908599854,0.017743706703186035,0.2415902316570282
-0.3336053788661957,0.9051851034164429,-0.3685095012187958,0.1896967887878418,0.06966882944107056,0.36976897716522217
-0.36345940828323364,0.40624940395355225,0.031713686883449554,0.40534496307373047,0.09163546562194824,0.29766249656677246
0.006069216877222061,-0.5361406207084656,0.32831087708473206,0.4192907214164734,0.05088287591934204,0.1541435420513153
0.2341333031654358,-1.0164399147033691,0.37643957138061523,0.23679548501968384,-0.012919485569000244,0.021936148405075073
0.27608397603034973,-0.9603989720344543,0.2869071066379547,0.06881588697433472,-0.07237011194229126,-0.014058738946914673
0.247386172413826,-0.47610026597976685,0.2179785668849945,0.015715301036834717,-0.08713507652282715,-0.07880783081054688
0.19233466684818268,-0.014212249778211117,0.10340793430805206,0.006696224212646484,-0.07456320524215698,-0.08893805742263794
0.11178736388683319,0.1952829211950302,-0.06171710789203644,0.024448931217193604,-0.028505682945251465,-0.028536051511764526
0.06282652169466019,0.2135687619447708,-0.12914377450942993,0.12091982364654541,0.04223275184631348,0.02145075798034668
0.0289623960852623,0.23802892863750458,-0.07093258947134018,0.2447221279144287,0.11916220188140869,0.04612138867378235
-0.010010470636188984,0.2996697723865509,0.04542889818549156,0.3075945973396301,0.1764010190963745,0.06481078267097473
0.03622087463736534,0.3789755702018738,0.20702920854091644,0.3429343104362488,0.21734237670898438,0.07241976261138916
0.11315849423408508,0.29320642352104187,0.35094863176345825,0.3774508237838745,0.24819213151931763,0.07755035161972046
0.18431806564331055,0.07342751324176788,0.4485401213169098,0.3650307059288025,0.2595321536064148,0.11975628137588501
0.19826404750347137,-0.13938336074352264,0.5343265533447266,0.3447161316871643,0.26329606771469116,0.1489122211933136
0.1511661857366562,-0.13613788783550262,0.5251832008361816,0.29352867603302,0.2685789465904236,0.14487361907958984
0.10845107585191727,0.07657171785831451,0.37879109382629395,0.2192440629005432,0.27367448806762695,0.10044139623641968
0.04264483600854874,0.4471827447414398,0.31575411558151245,0.21322369575500488,0.33036482334136963,0.08941188454627991
0.014310214668512344,0.6536056399345398,0.4393133521080017,0.309733510017395,0.41244906187057495,0.12614849209785461
0.10308021306991577,0.3368634283542633,0.6132814288139343,0.3996219038963318,0.41110557317733765,0.12972888350486755
0.26801514625549316,-0.24595575034618378,0.6855215430259705,0.38797491788864136,0.37814009189605713,0.1468004286289215
0.3695645034313202,-0.4445783495903015,0.5656453967094421,0.2877141237258911,0.368166446685791,0.07287633419036865
0.40034154057502747,0.05971112102270126,0.42508411407470703,0.1646641492843628,0.3654704689979553,-0.07324552536010742
0.49485349655151367,0.6936824321746826,0.46082523465156555,0.17709839344024658,0.37526780366897583,-0.1932598352432251
0.6560935974121094,0.9950975179672241,0.5112265944480896,0.20536959171295166,0.3759263753890991,-0.17647331953048706
0.7887003421783447,0.7286702394485474,0.44946643710136414,0.23968279361724854,0.4032760262489319,-0.08711239695549011
0.9251083135604858,0.06973136216402054,0.17547163367271423,0.20770400762557983,0.3829141855239868,0.03018219769001007
0.9228692054748535,-0.07260578125715256,0.3010163903236389,0.2640823721885681,0.4189673662185669,-0.045971959829330444
0.9180887341499329,0.20665699243545532,0.8501240611076355,0.4547198414802551,0.47762614488601685,-0.13915185630321503
1.2979910373687744,0.49227991700172424,1.3332959413528442,0.4128284454345703,0.48305147886276245,-0.3024592399597168
1.9568151235580444,0.5006046295166016,1.443401575088501,0.17731404304504395,0.46606171131134033,-0.4680400490760803
2.189422130584717,0.6320936679840088,1.4518201351165771,0.011782944202423096,0.48317253589630127,-0.3909183144569397
1.6187162399291992,0.8030893206596375,1.4671733379364014,-0.006285309791564941,0.488223671913147,-0.13148444890975952
1.0967941284179688,0.8408585786819458,1.6148638725280762,0.06322872638702393,0.39674901962280273,-0.0008325427770614624
1.0208600759506226,0.824324369430542,1.8664604425430298,0.12447911500930786,0.2701769471168518,-0.12125653028488159
1.4055507183074951,0.7445642948150635,2.330106258392334,0.17458117008209229,0.24117118120193481,-0.3186239004135132
1.8105460405349731,0.6905879378318787,2.6628894805908203,0.07938092947006226,0.23411089181900024,-0.3886731266975403
2.01418137550354,0.6791251301765442,2.8598034381866455,-0.10734838247299194,0.22621148824691772,-0.32201486825942993
1.939508080482483,0.7832105755805969,2.976547956466675,-0.24117982387542725,0.20187640190124512,-0.2184574156999588
1.777388095855713,1.0032545328140259,3.0547683238983154,-0.32335352897644043,0.19338005781173706,-0.1555269956588745
1.747317910194397,1.299517035484314,2.908031702041626,-0.4968017339706421,0.17422553896903992,-0.19397801160812378
1.9462203979492188,1.6633425951004028,2.8222315311431885,-0.6007660031318665,0.17714697122573853,-0.36776137351989746
2.2124273777008057,1.6921883821487427,2.8668644428253174,-0.6034532785415649,0.2510005533695221,-0.3942345976829529
2.383009672164917,0.9613980054855347,2.858989715576172,-0.6534698605537415,0.13807860016822815,-0.2703680396080017
2.3383724689483643,0.7408425211906433,2.579098701477051,-0.8944154977798462,0.09630963206291199,-0.1425572633743286
1.9757440090179443,1.090440034866333,2.2246968746185303,-1.0698537826538086,-0.020151987671852112,-0.05302879214286804
1.8070180416107178,1.23374605178833,1.9133203029632568,-1.1494781970977783,-0.06706699728965759,-0.048374712467193604
1.7924391031265259,0.9768164753913879,1.452919363975525,-1.3191158771514893,-0.14294901490211487,-0.026414737105369568
1.7384719848632812,0.7680946588516235,1.008603811264038,-1.374267816543579,-0.1841188371181488,0.008083164691925049
1.4945112466812134,0.8935189247131348,0.7430769801139832,-1.3408398628234863,-0.19494718313217163,0.08744651079177856
1.4101941585540771,0.821408748626709,0.5175711512565613,-1.3196388483047485,-0.19069615006446838,0.12117016315460205
1.3335182666778564,0.5099306106567383,0.2946907877922058,-1.2526048421859741,-0.19445598125457764,0.1490127146244049
1.0871371030807495,0.11592783778905869,0.04415085166692734,-1.1729068756103516,-0.20279264450073242,0.1824817657470703
1.03016197681427,-0.1619797646999359,0.0018348926678299904,-1.0380291938781738,-0.17046582698822021,0.06203719973564148
1.5730702877044678,-0.6777691841125488,0.12104301154613495,-0.9021248817443848,-0.10724829882383347,-0.228417307138443
2.4776225090026855,-1.1886773109436035,0.019313443452119827,-0.9792628288269043,-0.10903297364711761,-0.5133861899375916
2.995699644088745,-1.0709182024002075,-0.21338646113872528,-1.0560318231582642,-0.07373686134815216,-0.49920469522476196
3.181178331375122,-1.216493844985962,-0.37822407484054565,-0.9425556659698486,-0.026297912001609802,-0.283216267824173
3.1475672721862793,-1.6157689094543457,-0.3746861517429352,-0.7214404344558716,0.016516685485839844,-0.07995891571044922
2.9449257850646973,-1.7640271186828613,-0.5455961227416992,-0.5884812474250793,0.034857794642448425,-0.030389845371246338
2.3141283988952637,-1.1275827884674072,-0.9011366963386536,-0.6521744728088379,0.009211495518684387,0.03196621686220169
1.8166519403457642,-0.7033470273017883,-1.075864553451538,-0.5344955325126648,0.048032596707344055,0.07302987575531006
1.857801079750061,-1.0988051891326904,-0.9508678913116455,-0.334685742855072,0.13367493450641632,-0.003255661576986313
2.3611533641815186,-1.9257360696792603,-0.6853726506233215,-0.13021636009216309,0.18681469559669495,-0.15259885787963867
2.7993597984313965,-2.508089542388916,-0.42369627952575684,0.02767854928970337,0.22754552960395813,-0.2081456184387207
2.5673251152038574,-2.0779504776000977,-0.3122931718826294,0.0845407247543335,0.21378016471862793,-0.0808173418045044
1.993299126625061,-1.3936527967453003,-0.3339713215827942,0.04578644037246704,0.20880569517612457,0.08706699311733246
1.6276183128356934,-1.2360918521881104,-0.34776341915130615,0.09855681657791138,0.14647361636161804,0.17750275135040283
1.5939230918884277,-1.2988375425338745,-0.16080604493618011,0.2538621425628662,0.1929265260696411,0.16301777958869934
1.7752485275268555,-1.6471754312515259,0.12136656790971756,0.37366437911987305,0.22760342061519623,0.11864563822746277
1.7930809259414673,-1.899251103401184,0.4075382351875305,0.4775387644767761,0.22080063819885254,0.18365204334259033
1.482550859451294,-1.756960391998291,0.492817759513855,0.4520379304885864,0.157313272356987,0.25945019721984863
0.9419782161712646,-1.4350675344467163,0.4914456307888031,0.42223477363586426,0.11341388523578644,0.2981409430503845
0.4515693485736847,-1.3196017742156982,0.47560787200927734,0.4702439308166504,0.08438742160797119,0.3036870062351227
0.1493646800518036,-1.4138264656066895,0.40502122044563293,0.4905230402946472,0.05702686309814453,0.20718884468078613
-0.1417032778263092,-1.384938359260559,0.36164724826812744,0.5128058195114136,0.06683248281478882,0.10514670610427856
-0.37676921486854553,-1.2695571184158325,0.38284164667129517,0.5494264364242554,0.08046603202819824,0.007474064826965332
-0.6094790697097778,-1.0253914594650269,0.4009283185005188,0.5800352692604065,0.09303265810012817,-0.10113978385925293
-0.71101975440979,-0.9827300906181335,0.39647573232650757,0.518397331237793,0.09005026519298553,-0.18597978353500366
-0.6902148127555847,-1.2102696895599365,0.32727476954460144,0.48386049270629883,0.06409643590450287,-0.2885422706604004
-0.42393139004707336,-1.3698896169662476,0.5044253468513489,0.4626316428184509,0.0939054936170578,-0.5046406984329224
-0.07751047611236572,-1.4698293209075928,0.6718624830245972,0.42423689365386963,0.06166060268878937,-0.5742337703704834
0.376748651266098,-1.4964483976364136,0.7308248281478882,0.33595794439315796,0.045385465025901794,-0.6578429341316223
0.95782470703125,-1.8539597988128662,0.5411020517349243,0.18643724918365479,-0.002232789993286133,-0.7067354321479797
1.1073499917984009,-1.3675733804702759,0.5484110713005066,0.20940667390823364,-0.01050642877817154,-0.7871259450912476
0.573128342628479,-0.9411301016807556,0.3465193212032318,0.1438988447189331,-0.11341563612222672,-0.3211368918418884
0.10640615224838257,-0.5516765117645264,0.0786210298538208,0.029370129108428955,-0.14295753836631775,-0.1606695055961609
-0.005951807834208012,-0.1496916562318802,-0.07178384065628052,0.048870742321014404,-0.06991781294345856,-0.2276366949081421
0.07933123409748077,0.049555376172065735,-0.11892695724964142,0.13753855228424072,0.01000959426164627,-0.26072031259536743
0.11555898189544678,0.18897195160388947,-0.07943809777498245,0.22014671564102173,0.04140890762209892,-0.2132471203804016
0.11121425032615662,0.30948778986930847,-0.06725035607814789,0.2278808355331421,0.04171932116150856,-0.15346044301986694
0.16814786195755005,0.40595242381095886,-0.04679855704307556,0.21436774730682373,0.04276208579540253,-0.1165875792503357
0.3073696792125702,0.32569143176078796,-0.09318212419748306,0.14883559942245483,0.007286041975021362,-0.10660308599472046
0.31228113174438477,0.49170586466789246,-0.06465385109186172,0.14256495237350464,0.010075800120830536,-0.036693036556243896
0.10046614706516266,0.9905483722686768,-0.03825259208679199,0.1254211664199829,0.03398517891764641,0.00941002368927002
-0.029237624257802963,1.1182230710983276,-0.09408725798130035,0.11581367254257202,0.04413986578583717,0.0523189902305603
-0.10435532033443451,0.9021115303039551,-0.2402576506137848,0.07016688585281372,0.03213983401656151,0.09282463788986206
-0.306565523147583,0.8344984650611877,-0.4061884582042694,0.07620614767074585,0.03884151577949524,0.14222878217697144
-0.6839768290519714,0.9911850094795227,-0.5876097083091736,0.11581522226333618,0.07960928231477737,0.18885695934295654
-1.2892851829528809,1.4483529329299927,-0.8543984293937683,0.13125139474868774,0.09635929018259048,0.2589447498321533
-1.937840223312378,1.9089726209640503,-1.1157146692276,0.20145678520202637,0.1338137835264206,0.3098453879356384
-2.559014320373535,2.231951951980591,-1.3475347757339478,0.34725308418273926,0.21774737536907196,0.3476904034614563
-2.9207165241241455,2.0584089756011963,-1.5572868585586548,0.42701053619384766,0.28517061471939087,0.3060395121574402
-3.343618869781494,1.8904513120651245,-1.8547931909561157,0.39487093687057495,0.3182952404022217,0.3227580487728119
-3.656928777694702,1.8537811040878296,-2.0625290870666504,0.3979511260986328,0.3869868218898773,0.25979840755462646
-3.9862377643585205,2.0667824745178223,-2.2228546142578125,0.3963086009025574,0.4581906199455261,0.22926270961761475
-4.35659646987915,2.6460113525390625,-2.400986909866333,0.3450698256492615,0.49279260635375977,0.21005448698997498
-4.287993431091309,2.9274723529815674,-2.5201587677001953,0.3452010154724121,0.5414316058158875,0.15836192667484283
-3.8504152297973633,2.6726419925689697,-2.6062660217285156,0.35460835695266724,0.5414103269577026,0.049629442393779755
-3.372349500656128,2.1263716220855713,-2.610335350036621,0.3316221237182617,0.48595166206359863,0.03588134050369263
-3.198418378829956,1.6842830181121826,-2.594858407974243,0.3184037208557129,0.4007243514060974,0.08848707377910614
-3.1973161697387695,1.7204135656356812,-2.5446131229400635,0.2640800476074219,0.3336132764816284,0.08672982454299927
-3.083050489425659,2.240032911300659,-2.5216147899627686,0.2183018922805786,0.2782970070838928,-0.061139464378356934
-2.679624080657959,2.4455690383911133,-2.2886109352111816,0.28966474533081055,0.2899712324142456,-0.13754022121429443
-1.861413598060608,1.7885527610778809,-2.165757894515991,0.27924108505249023,0.22503960132598877,-0.21559935808181763
-1.1518430709838867,0.7409698367118835,-2.1808409690856934,0.18098396062850952,0.10380953550338745,-0.24944379925727844
-1.1428419351577759,0.3979227840900421,-2.034837245941162,0.18848687410354614,0.02941596508026123,-0.11493551731109619
-1.352181315422058,0.7873716354370117,-1.914401650428772,0.1347985863685608,-0.01666814088821411,-0.11341434717178345
-1.2493889331817627,1.1624819040298462,-1.796182632446289,0.04483437538146973,-0.037293195724487305,-0.24985867738723755
-0.8675077557563782,1.1741178035736084,-1.555853009223938,0.0392947793006897,-0.030498385429382324,-0.35010826587677
-0.6617376208305359,0.8161468505859375,-1.4744714498519897,0.021937459707260132,-0.06952166557312012,-0.2717483639717102
-0.7786248922348022,0.3794841170310974,-1.6692330837249756,-0.12047386169433594,-0.1774088740348816,-0.17447900772094727
-1.2527780532836914,0.5130642056465149,-1.7640784978866577,-0.13251981139183044,-0.2228909730911255,-0.12066280841827393
-1.5913419723510742,1.085183024406433,-1.7024757862091064,-0.1429068148136139,-0.20142531394958496,-0.23636746406555176
-1.5049669742584229,1.528339147567749,-1.5078637599945068,-0.14680945873260498,-0.1628495454788208,-0.4218357801437378
-1.2482357025146484,1.4199552536010742,-1.3017771244049072,-0.13734130561351776,-0.16096168756484985,-0.4526699185371399
-0.9901615381240845,0.9827273488044739,-1.1685444116592407,-0.1469455361366272,-0.2000543475151062,-0.35503172874450684
-0.8467493057250977,0.496028333902359,-1.0371476411819458,-0.11175131797790527,-0.23647421598434448,-0.2684975862503052
-0.8571732044219971,0.09603872150182724,-0.9407393932342529,-0.027300894260406494,-0.2723451256752014,-0.17046880722045898
-0.9492561221122742,0.28972259163856506,-0.7057135701179504,-0.0023027658462524414,-0.286318838596344,-0.2789248824119568
-1.5174132585525513,0.5999894738197327,-0.501082718372345,0.055982381105422974,-0.3296407461166382,-0.16608119010925293
-1.7666712999343872,0.6999846696853638,-0.3027633726596832,0.057019323110580444,-0.31238293647766113,-0.21898001432418823
-1.572048544883728,0.7476167678833008,-0.42521700263023376,-0.13949981331825256,-0.28449738025665283,-0.4760013818740845
-1.3748509883880615,0.4803284704685211,-0.56391441822052,-0.1896701455116272,-0.33390283584594727,-0.5824764966964722
-1.2683727741241455,0.38570597767829895,-0.5405497550964355,-0.058179497718811035,-0.3179095387458801,-0.5428261160850525
-1.1287702322006226,0.590079128742218,-0.37175118923187256,0.018523424863815308,-0.23352700471878052,-0.6803834438323975
-0.840917706489563,0.5538652539253235,-0.2476678490638733,0.07720613479614258,-0.2033596634864807,-0.6912081837654114
-0.5361281037330627,0.4875658452510834,-0.19081446528434753,0.027157500386238098,-0.248571515083313,-0.6822497248649597
-0.2913435995578766,0.6156056523323059,-0.11200495064258575,-0.011081282049417496,-0.24551361799240112,-0.6682665944099426
-0.1718035489320755,0.7516171932220459,0.028730710968375206,-0.0020496398210525513,-0.20153677463531494,-0.576164722442627
0.03844418749213219,0.577566921710968,0.07951483130455017,-0.02447827160358429,-0.20908528566360474,-0.4972425699234009
0.20839716494083405,0.30556485056877136,0.1889050006866455,-0.005270823836326599,-0.17820370197296143,-0.3923161029815674
0.22307057678699493,0.09376544505357742,0.16294537484645844,-0.006543152034282684,-0.18929964303970337,-0.25517261028289795
0.16024228930473328,0.14139416813850403,-0.016878396272659302,-0.06061701476573944,-0.16295510530471802,-0.2008570432662964
0.02794821932911873,0.241723895072937,-0.2910265028476715,-0.09194337576627731,-0.14933311939239502,-0.17314213514328003
-0.023242801427841187,0.2536129057407379,-0.43879133462905884,-0.03863811492919922,-0.10442924499511719,-0.15800225734710693
-0.10722899436950684,0.19600705802440643,-0.4346979558467865,0.05975113809108734,-0.06204134225845337,-0.13170301914215088
-0.08300918340682983,-0.11022082716226578,-0.423786461353302,0.09128805249929428,-0.01619964838027954,-0.11608165502548218
0.1159670427441597,-0.4514853358268738,-0.38033029437065125,0.10542935132980347,0.014063000679016113,-0.13419479131698608
0.31794652342796326,-0.5999050140380859,-0.24499724805355072,0.09183761477470398,0.04258835315704346,-0.14637279510498047
0.4913724362850189,-0.48533695936203003,-0.10743314772844315,0.11456520855426788,0.07349890470504761,-0.15073764324188232
0.5304971933364868,-0.12801890075206757,-0.05825156345963478,0.021554693579673767,0.07907253503799438,-0.1489243507385254
0.39472976326942444,0.023120766505599022,-0.09036462754011154,-0.021978333592414856,0.058204710483551025,-0.017406940460205078
0.326423704624176,0.006917876191437244,-0.10767433792352676,-0.029484868049621582,0.04031050205230713,0.043057382106781006
0.29348224401474,-0.1763150542974472,-0.044730428606271744,0.02754749357700348,0.07771176099777222,0.10373097658157349
0.3176725506782532,-0.19726227223873138,-0.044480811804533005,0.030334264039993286,0.09255915880203247,0.1204267144203186
0.35138434171676636,0.0945885106921196,-0.12642110884189606,-0.053235165774822235,0.0812838077545166,0.06948232650756836
0.3102072477340698,0.369632363319397,-0.15830783545970917,-0.06120944023132324,0.10296499729156494,0.12136352062225342
0.1838793009519577,0.45388054847717285,-0.11009448021650314,-0.028247997164726257,0.12048554420471191,0.19901108741760254
0.14572876691818237,0.28004753589630127,-0.173691526055336,0.003736242651939392,0.12432944774627686,0.26806676387786865
0.3178938627243042,0.5617868304252625,-0.235203355550766,-0.0653289407491684,0.13844972848892212,0.1474294662475586
0.570588231086731,0.8367598652839661,-0.2092285305261612,-0.06970733404159546,0.18732154369354248,0.0793183445930481
0.713740348815918,0.8107365369796753,-0.06526179611682892,-0.04036152362823486,0.17447906732559204,0.13316351175308228
0.7252870202064514,0.7977896332740784,0.1237972229719162,0.009367212653160095,0.2107924222946167,0.2014787197113037
0.7503493428230286,0.6717024445533752,0.23041866719722748,0.009540244936943054,0.18273180723190308,0.23289477825164795
0.7720274329185486,0.04302273690700531,0.3300939202308655,-0.003941819071769714,0.19065099954605103,0.2605116367340088
0.7053020596504211,-0.20859698951244354,0.47490283846855164,0.03690230846405029,0.16891539096832275,0.3470908999443054
0.845177948474884,0.43775585293769836,0.12623123824596405,-0.17352735996246338,0.16325104236602783,0.0362856388092041
0.8579329252243042,0.6992840766906738,-0.19468583166599274,-0.2581521272659302,0.07856625318527222,0.0427398681640625
0.6752829551696777,0.4379185736179352,-0.04411466047167778,-0.05394977331161499,0.15182852745056152,0.22123032808303833
0.4031546115875244,-0.037645019590854645,0.19046291708946228,0.09863162040710449,0.12912410497665405,0.3080691695213318
0.15897808969020844,-0.34298834204673767,0.3017576038837433,0.11234678328037262,0.10483938455581665,0.2668357491493225
-0.00015334226191043854,-0.3437627851963043,0.1533912569284439,-0.0015683919191360474,0.09140878915786743,0.16623294353485107
-0.10263487696647644,0.10444067418575287,0.06261181086301804,-0.01674598455429077,0.10940968990325928,0.08603012561798096
-0.1835840791463852,0.5194852352142334,0.034710515290498734,0.009171202778816223,0.13702267408370972,0.06545436382293701
-0.10482051968574524,0.4441501796245575,0.016990073025226593,0.018539875745773315,0.12179970741271973,0.08281224966049194
0.14230197668075562,0.009825296700000763,-0.10547766834497452,-0.0036560893058776855,0.08630597591400146,0.11588931083679199
0.3424817621707916,-0.33761194348335266,-0.24158310890197754,-0.029179051518440247,0.059982240200042725,0.1386469602584839
0.2986493408679962,-0.4233473539352417,-0.33495187759399414,-0.030900686979293823,0.06086081266403198,0.19799411296844482
0.06878382712602615,-0.16773256659507751,-0.3468609154224396,-0.014786496758460999,0.04372614622116089,0.2151314616203308
-0.16555805504322052,0.24754323065280914,-0.18924516439437866,0.010231181979179382,0.058978140354156494,0.2209370732307434
-0.3343552052974701,0.6684901118278503,-0.12039217352867126,-0.025379687547683716,0.0665358304977417,0.1974988579750061
-0.32227638363838196,0.5480011105537415,-0.22494259476661682,-0.06578445434570312,0.03434044122695923,0.1729486584663391
-0.13485586643218994,0.1045047864317894,-0.3250889182090759,-0.07033935189247131,0.011517107486724854,0.16586291790008545
-0.08463621139526367,-0.16986629366874695,-0.3465842604637146,-0.07974913716316223,0.035809874534606934,0.15785789489746094
-0.1840263456106186,-0.20123820006847382,-0.2676207721233368,-0.05786612629890442,0.049975037574768066,0.187888503074646
-0.49148815870285034,0.3390517830848694,-0.2306349128484726,-0.0567542165517807,0.04363548755645752,0.16504383087158203
-0.545021116733551,0.6437157988548279,-0.22400136291980743,-0.13475090265274048,0.005523085594177246,0.09665167331695557
-0.43258097767829895,0.5525501370429993,-0.3024527430534363,-0.15269429981708527,0.027962982654571533,0.07053917646408081
-0.22289082407951355,0.31245872378349304,-0.3724392354488373,-0.1646890640258789,0.03563779592514038,0.12298339605331421
-0.031085869297385216,-0.12798818945884705,-0.3589126169681549,-0.1362273395061493,0.09137129783630371,0.20418524742126465
0.16511639952659607,-0.4680497348308563,-0.29024893045425415,-0.10105511546134949,0.13553476333618164,0.2796342968940735
0.25108829140663147,-0.43536892533302307,-0.20834243297576904,-0.10061673820018768,0.16539669036865234,0.2855290174484253
0.1511937379837036,-0.2667262852191925,-0.1836915761232376,-0.10119393467903137,0.18950247764587402,0.3043738007545471
0.0890362411737442,-0.3446420729160309,-0.2434522807598114,-0.09367533028125763,0.15954530239105225,0.366723895072937
0.20915788412094116,-0.5108202695846558,-0.31547895073890686,-0.07425080239772797,0.1774531602859497,0.3276057243347168
0.42049509286880493,-0.8301594257354736,-0.3690836727619171,-0.037480056285858154,0.23372209072113037,0.28085601329803467
0.647597074508667,-0.9244067072868347,-0.34927600622177124,0.01500612497329712,0.3071898818016052,0.21775740385055542
0.9030084609985352,-0.8213059306144714,-0.22743825614452362,0.03173288702964783,0.34091073274612427,0.11345714330673218
1.111168384552002,-0.6790172457695007,-0.1818077564239502,0.045830100774765015,0.35376423597335815,0.08993673324584961
1.1620813608169556,-0.5951629877090454,-0.2210799902677536,0.0244903564453125,0.32847321033477783,0.13155466318130493
1.114940881729126,-0.32909560203552246,-0.1740437150001526,0.044481322169303894,0.30290669202804565,0.12715065479278564
1.010931372642517,0.11760604381561279,-0.1402037888765335,0.048838645219802856,0.29222238063812256,0.10979104042053223
0.8836278915405273,0.4846493601799011,-0.22780799865722656,0.01022481918334961,0.24857622385025024,0.11196863651275635
0.5780941843986511,0.7980371117591858,-0.35597658157348633,-0.011805981397628784,0.19792068004608154,0.1691131591796875
0.07953068614006042,0.9845619201660156,-0.47055181860923767,0.017444685101509094,0.15282589197158813,0.27032071352005005
-0.4786389470100403,0.9957892894744873,-0.46496909856796265,0.05772313475608826,0.1456018090248108,0.3070946931838989
-0.7210120558738708,0.9804545044898987,-0.4232969582080841,0.06649285554885864,0.16314971446990967,0.2063693404197693
-0.654217004776001,1.2139297723770142,-0.28934916853904724,-0.03241461515426636,0.17333579063415527,-0.07253968715667725
-0.537088930606842,0.5932815670967102,-0.4352220892906189,-0.3886047601699829,-0.015449047088623047,-0.23535877466201782
-0.49142637848854065,-0.323733389377594,-0.39839959144592285,-0.11968964338302612,-0.043659329414367676,-0.07139289379119873
-0.7424006462097168,-0.9531098008155823,-0.41212356090545654,-0.06006258726119995,0.01638662815093994,0.09928494691848755
-1.1343389749526978,-1.1038682460784912,-0.3246777355670929,-0.009208053350448608,0.0053525567054748535,0.13629096746444702
-1.3617297410964966,-0.7085535526275635,-0.23216499388217926,-0.040623366832733154,0.02586442232131958,-0.0532035231590271
-1.5410711765289307,-0.24866634607315063,-0.33923718333244324,-0.16153478622436523,-0.11703014373779297,-0.17877137660980225
-1.738308310508728,0.07171481102705002,-0.5067811012268066,-0.18884965777397156,-0.2488453984260559,-0.24964362382888794
-1.9239646196365356,0.28090569376945496,-0.6259756684303284,-0.06576305627822876,-0.2575893998146057,-0.2972410321235657
-2.064629554748535,0.2712286412715912,-0.6517878770828247,0.11943772435188293,-0.21264386177062988,-0.3058197498321533
-2.15474009513855,0.2867790758609772,-0.6222637891769409,0.19575834274291992,-0.18901586532592773,-0.3754410743713379
-2.017927885055542,0.0268904697149992,-0.5805810689926147,0.2448122203350067,-0.1848427951335907,-0.4943574070930481
-1.5948424339294434,-0.26623767614364624,-0.488046258687973,0.29868337512016296,-0.18468061089515686,-0.6599249243736267
-1.1146271228790283,-0.46330496668815613,-0.45181000232696533,0.30214861035346985,-0.22498217225074768,-0.8284918069839478
-0.8864884972572327,-0.32403233647346497,-0.4201143682003021,0.2656373679637909,-0.3117501735687256,-0.8516648411750793
-0.7683019638061523,-0.06049646437168121,-0.42225179076194763,0.2200632095336914,-0.3658902645111084,-0.8456650972366333
-0.6402142643928528,0.12001005560159683,-0.40727469325065613,0.23472672700881958,-0.37720125913619995,-0.8216463327407837
-0.5939428210258484,0.2671011984348297,-0.34725430607795715,0.3025099039077759,-0.3423687219619751,-0.7746684551239014
-0.4615236818790436,0.17535400390625,-0.30410924553871155,0.34676405787467957,-0.33701062202453613,-0.7464118003845215
-0.19959355890750885,-0.05621989071369171,-0.18151962757110596,0.37811627984046936,-0.29325559735298157,-0.7418767809867859
0.0896134078502655,-0.29267337918281555,-0.024406999349594116,0.3844906687736511,-0.24615377187728882,-0.7184081673622131
0.28479668498039246,-0.35306859016418457,0.03568853810429573,0.2961351275444031,-0.22746598720550537,-0.6443491578102112
0.38257163763046265,-0.2798008620738983,0.04180263727903366,0.20267406105995178,-0.22752147912979126,-0.5779981017112732
0.3959077000617981,-0.10896226763725281,0.05617933347821236,0.16353458166122437,-0.20802372694015503,-0.49623262882232666
0.378370076417923,0.027597660198807716,0.07722806930541992,0.1274557113647461,-0.19684094190597534,-0.42029768228530884
0.3616398572921753,0.1306597739458084,0.0986921414732933,0.1118369996547699,-0.1781739890575409,-0.36350327730178833
0.4371974468231201,0.1558428704738617,0.17560024559497833,0.10547545552253723,-0.1444043517112732,-0.35094738006591797
0.510722815990448,0.13846296072006226,0.22298672795295715,0.10768043994903564,-0.10516738891601562,-0.32267671823501587
0.5042588114738464,0.11873042583465576,0.2709214985370636,0.11523982882499695,-0.08039596676826477,-0.2668004631996155
0.4795607924461365,0.08985936641693115,0.3164476752281189,0.11392945051193237,-0.056245237588882446,-0.21367090940475464
0.48568907380104065,0.06445835530757904,0.33497676253318787,0.11293601989746094,-0.02480679750442505,-0.18943065404891968
0.5342541933059692,0.05921020731329918,0.35481828451156616,0.08207982778549194,0.0034399032592773438,-0.16971516609191895
0.6034160256385803,0.050453804433345795,0.38618919253349304,0.07300209999084473,0.04782947897911072,-0.12830084562301636
0.6370633840560913,0.05248064175248146,0.4460420608520508,0.04198068380355835,0.07301723957061768,-0.06874436140060425
0.6309909224510193,0.07836266607046127,0.44928213953971863,0.025998413562774658,0.10814324021339417,0.0005574822425842285
0.6336112022399902,0.054496217519044876,0.45968419313430786,-0.008255749940872192,0.12689939141273499,0.06734192371368408
0.6746740341186523,0.0018121351022273302,0.46909254789352417,-0.015032321214675903,0.17542099952697754,0.11102670431137085
0.739072859287262,-0.02618499845266342,0.48257172107696533,-0.051666826009750366,0.19686132669448853,0.15633928775787354
0.8474900126457214,-0.04218260571360588,0.5549057126045227,-0.059536099433898926,0.2476128339767456,0.17496013641357422
0.9482048153877258,0.0024125082418322563,0.6257942914962769,-0.06538587808609009,0.2915728688240051,0.20918846130371094
0.9808712005615234,0.09965033084154129,0.6432899236679077,-0.09925124049186707,0.3132929801940918,0.24840080738067627
0.9266119599342346,0.16729333996772766,0.608062207698822,-0.13539591431617737,0.32818806171417236,0.30774301290512085
0.7968929409980774,0.22651255130767822,0.5116854310035706,-0.1669662892818451,0.33036673069000244,0.3664158582687378
0.6430084705352783,0.26414021849632263,0.4359268546104431,-0.1813230812549591,0.34348583221435547,0.4007941484451294
0.5892125964164734,0.2644592523574829,0.4272148609161377,-0.1661609411239624,0.3714526891708374,0.41159820556640625
0.597930371761322,0.26118528842926025,0.4669443666934967,-0.13667872548103333,0.4102707505226135,0.3972322940826416
0.55551677942276,0.2533891499042511,0.48964226245880127,-0.13325825333595276,0.43276309967041016,0.40248990058898926
0.35250699520111084,0.3283346891403198,0.5229684114456177,-0.13180163502693176,0.43231266736984253,0.43148428201675415
0.1726800799369812,0.38721513748168945,0.5217306017875671,-0.12671101093292236,0.4429238438606262,0.43419796228408813
0.07042215764522552,0.4401637315750122,0.533760666847229,-0.1261790692806244,0.4293822646141052,0.4035189747810364
-0.06706009060144424,0.421396404504776,0.48405709862709045,-0.09532147645950317,0.39962852001190186,0.3812735080718994
-0.21098515391349792,0.20449554920196533,0.3687818646430969,-0.11113518476486206,0.3030052185058594,0.3872275948524475
-0.36011093854904175,-0.1971255987882614,0.29701316356658936,-0.07042226195335388,0.21907120943069458,0.38281023502349854
-0.4818488359451294,-0.42239466309547424,0.2544110417366028,-0.06412157416343689,0.13243001699447632,0.30074793100357056
-0.6577138304710388,-0.3116208612918854,0.15092934668064117,-0.09886565804481506,0.04574918746948242,0.17547154426574707
-0.8681639432907104,0.028312403708696365,-0.04737084358930588,-0.14484985172748566,-0.03860771656036377,0.09049797058105469
-0.934556245803833,0.32625895738601685,-0.1534174531698227,-0.11267659068107605,-0.06116443872451782,0.02333080768585205
-0.7248510122299194,0.34980344772338867,-0.10097624361515045,0.011437177658081055,-0.033049702644348145,-0.03453660011291504
-0.41362231969833374,0.22705009579658508,0.06027309596538544,0.09792101383209229,-0.02357715368270874,-0.07087630033493042
-0.1599981188774109,-0.03509986028075218,0.1863096058368683,0.11239314079284668,-0.053992390632629395,-0.046148061752319336
-0.06498491764068604,-0.2006848305463791,0.17389123141765594,0.07768142223358154,-0.10905545949935913,0.03680109977722168
-0.2368420958518982,-0.06651949882507324,0.0942477360367775,0.009851157665252686,-0.17330217361450195,0.025287866592407227
-0.3803481459617615,0.09164135158061981,-0.028827477246522903,-0.03384891152381897,-0.20025479793548584,0.04982924461364746
-0.4139135181903839,0.11115426570177078,-0.0440201610326767,-0.020215332508087158,-0.1895819902420044,0.015285670757293701
-0.3629937171936035,0.05010798200964928,-0.0020808596163988113,0.007277011871337891,-0.16932564973831177,-0.03442180156707764
-0.25576919317245483,-0.06486181914806366,0.06488257646560669,0.01567685604095459,-0.152615487575531,-0.06846755743026733
-0.10125218331813812,-0.09548205137252808,0.1327819526195526,0.0032573938369750977,-0.1240236759185791,-0.11549699306488037
0.04489527642726898,-0.04674649238586426,0.13925093412399292,-0.026459425687789917,-0.09123128652572632,-0.12048816680908203
0.14242734014987946,-0.015278119593858719,0.11741228401660919,-0.05042891204357147,-0.058230817317962646,-0.08296960592269897
0.20941726863384247,-0.030901990830898285,0.04605291783809662,-0.07609088718891144,-0.037646353244781494,-0.014974534511566162
0.2202375829219818,-0.042406436055898666,-0.023358255624771118,-0.1009087860584259,-0.03390777111053467,0.04030001163482666
0.2155609130859375,-0.05674770101904869,-0.09155607223510742,-0.11168234050273895,-0.03674525022506714,0.06831145286560059
0.16575385630130768,-0.06897209584712982,-0.1499849408864975,-0.1157023012638092,-0.03416556119918823,0.1078881025314331
0.16550204157829285,-0.06977666169404984,-0.14692889153957367,-0.09884984791278839,-0.013345777988433838,0.12200993299484253
0.23882167041301727,-0.1297110766172409,-0.09246598929166794,-0.05465380847454071,0.041716814041137695,0.10568201541900635
0.30171969532966614,-0.17542997002601624,-0.0445731095969677,-0.04070223867893219,0.10284149646759033,0.14410972595214844
0.32116928696632385,-0.12989148497581482,0.01753462292253971,-0.048865556716918945,0.14680516719818115,0.18096709251403809
0.37840619683265686,-0.09303707629442215,0.03836826607584953,-0.07717466354370117,0.19369745254516602,0.2064540982246399
0.5557987093925476,-0.11737105250358582,0.09504792839288712,-0.10916183888912201,0.22756624221801758,0.21063601970672607
0.7991432547569275,-0.12815412878990173,0.19629405438899994,-0.10304418206214905,0.27430015802383423,0.21823328733444214
0.9479122757911682,-0.07404500991106033,0.3018220067024231,-0.06790117919445038,0.31048744916915894,0.26853179931640625
1.035888910293579,-0.03738785535097122,0.3900931477546692,-0.04489223659038544,0.31509482860565186,0.33692383766174316
1.0410130023956299,-0.05992519482970238,0.41452404856681824,-0.03167654573917389,0.3317035436630249,0.3888115882873535
0.9898663759231567,-0.12092714756727219,0.36444365978240967,-0.028743162751197815,0.33629530668258667,0.41903287172317505
0.9173406958580017,-0.20098097622394562,0.22125181555747986,-0.05939126014709473,0.31424760818481445,0.429085373878479
0.7972581386566162,-0.295955628156662,0.05924949049949646,-0.08301316201686859,0.28818267583847046,0.42050594091415405
0.6638699173927307,-0.37185555696487427,-0.07814084738492966,-0.08298331499099731,0.26726269721984863,0.41111618280410767
0.5399786829948425,-0.47639262676239014,-0.18239420652389526,-0.06918567419052124,0.22003495693206787,0.3739578127861023
0.30828598141670227,-0.6177656054496765,-0.32571423053741455,-0.10649102926254272,0.13852405548095703,0.3725646734237671
-0.10274066776037216,-0.7737912535667419,-0.4403376281261444,-0.13711443543434143,0.06673574447631836,0.40523719787597656
-0.5044082403182983,-0.9075775146484375,-0.47769543528556824,-0.14227905869483948,0.04852116107940674,0.34859132766723633
-0.7172393202781677,-0.8661702275276184,-0.4160251319408417,-0.10543927550315857,0.059651732444763184,0.17739582061767578
-0.6965659856796265,-0.5463114976882935,-0.28453078866004944,-0.030384987592697144,0.09048378467559814,-0.043504178524017334
-0.45158764719963074,-0.3692981004714966,-0.20970205962657928,0.003711402416229248,0.08153223991394043,-0.2071753740310669
-0.3031065762042999,-0.5020545125007629,-0.15487024188041687,0.008682072162628174,0.04973173141479492,-0.2685343027114868
-0.5440998673439026,-0.5431134104728699,-0.08585237711668015,0.06324008107185364,0.032765090465545654,-0.16688841581344604
-0.7275175452232361,-0.22468014061450958,-0.03045615553855896,0.047133058309555054,0.05005812644958496,-0.20607054233551025
-0.5176604390144348,0.1756906509399414,-0.03748316690325737,-0.015153974294662476,0.05085998773574829,-0.35856199264526367
-0.07206256687641144,0.2688022255897522,-0.013064595870673656,-0.014713063836097717,0.029431045055389404,-0.43130749464035034
0.03741692006587982,0.13187459111213684,-0.0019426536746323109,0.025862380862236023,-0.048907577991485596,-0.28277069330215454
-0.39663589000701904,0.1052156314253807,0.013555255718529224,0.09040370583534241,-0.13824450969696045,-0.042542457580566406
-0.8245599865913391,0.16977550089359283,0.05456442013382912,0.11909836530685425,-0.1968778371810913,0.007204413414001465
-0.8214390277862549,0.20980867743492126,0.1086585521697998,0.1384733021259308,-0.17257332801818848,-0.1901543140411377
-0.555060088634491,0.13389606773853302,0.1858915537595749,0.14478155970573425,-0.142581045627594,-0.36057841777801514
-0.37777435779571533,-0.03128723055124283,0.2281540334224701,0.1576070487499237,-0.18072128295898438,-0.38327163457870483
-0.474464476108551,-0.14304350316524506,0.2124769538640976,0.1368042528629303,-0.26940733194351196,-0.3027821183204651
-0.7176570296287537,-0.2389642298221588,0.12307996302843094,0.10060140490531921,-0.3592810034751892,-0.2583904266357422
-0.7980810403823853,-0.18884432315826416,0.029132049530744553,0.05434158444404602,-0.39150184392929077,-0.3489043712615967
-0.6499381065368652,-0.029931703582406044,-0.016173623502254486,0.04089735448360443,-0.363969624042511,-0.5401739478111267
-0.4158135652542114,0.09927067905664444,-0.058171506971120834,0.059979960322380066,-0.34393244981765747,-0.6448659300804138
-0.3772372901439667,0.12914520502090454,-0.12437105923891068,0.08236083388328552,-0.3763396739959717,-0.6204730272293091
-0.49842554330825806,0.11856935173273087,-0.1955411583185196,0.0992085188627243,-0.43572044372558594,-0.5472069382667542
-0.6047068238258362,0.13531240820884705,-0.24804696440696716,0.10941000282764435,-0.448650598526001,-0.549917459487915
-0.5629842877388,0.16421492397785187,-0.26629340648651123,0.10931956768035889,-0.41648221015930176,-0.6222532987594604
-0.3660868704319,0.1488322913646698,-0.21597160398960114,0.11287769675254822,-0.35891562700271606,-0.7102380990982056
-0.11649387329816818,0.08851294219493866,-0.1522446721792221,0.1301986128091812,-0.29365837574005127,-0.7261622548103333
0.11344589293003082,0.07012558728456497,-0.08650732040405273,0.1264013648033142,-0.24824094772338867,-0.6856884956359863
0.2365770787000656,0.043171126395463943,-0.0630197674036026,0.09725804626941681,-0.23427987098693848,-0.5710570216178894
0.2459620237350464,0.00847969762980938,-0.05605042725801468,0.07214149832725525,-0.22074651718139648,-0.4341251850128174
0.1885889768600464,0.005979764740914106,-0.058405883610248566,0.054007142782211304,-0.2028895616531372,-0.3230079412460327
0.13962441682815552,-0.011331145651638508,-0.05708472430706024,0.039040714502334595,-0.17764365673065186,-0.2626481056213379
0.07831599563360214,-0.0287631805986166,-0.0680207759141922,0.037129998207092285,-0.16976547241210938,-0.22402703762054443
0.027711302042007446,0.018085841089487076,-0.07037852704524994,0.03899674117565155,-0.16105198860168457,-0.20797228813171387
0.0010839449241757393,0.05673561990261078,-0.05944190174341202,0.053466737270355225,-0.13869518041610718,-0.21517717838287354
-0.013600429520010948,0.07099009305238724,-0.06476204097270966,0.05350092053413391,-0.12576264142990112,-0.20647895336151123
-0.057690687477588654,0.09039291739463806,-0.08053120970726013,0.05654922127723694,-0.11387014389038086,-0.19353365898132324
-0.08431041240692139,0.07664638012647629,-0.08968687057495117,0.07566773891448975,-0.09665131568908691,-0.16069787740707397
-0.045899685472249985,0.06384865939617157,-0.03949015587568283,0.10027122497558594,-0.07001221179962158,-0.15376079082489014
-0.012148959562182426,0.06334234029054642,0.02763131633400917,0.11168494820594788,-0.05344361066818237,-0.1210165023803711
-0.00876647885888815,0.11014527082443237,0.09555816650390625,0.10228867828845978,-0.04015439748764038,-0.06635969877243042
0.016243504360318184,0.08142796158790588,0.10115500539541245,0.07640434801578522,-0.012448132038116455,-0.03690159320831299
0.09525761008262634,-0.1097506582736969,0.06466332823038101,0.06085537374019623,0.032814979553222656,-0.004358768463134766
0.21881423890590668,-0.34406936168670654,0.058314014226198196,0.058107778429985046,0.10691463947296143,0.027698040008544922
0.3960859775543213,-0.34399116039276123,0.1387542188167572,0.07368412613868713,0.1976497769355774,0.05784338712692261
0.6696292757987976,-0.19166390597820282,0.2621822655200958,0.05167914927005768,0.2733643054962158,0.07608497142791748
1.0600956678390503,-0.16725711524486542,0.4217798113822937,0.023302584886550903,0.3414289355278015,0.11121654510498047
1.3773353099822998,-0.25679630041122437,0.5711749792098999,-0.003616034984588623,0.38918536901474,0.1885433793067932
1.465439796447754,-0.4656026065349579,0.641426682472229,-0.04926082491874695,0.3971710205078125,0.31316906213760376
1.2144314050674438,-0.5057551264762878,0.6037861108779907,-0.1001814752817154,0.3792831301689148,0.39969682693481445
0.9109143018722534,-0.36081939935684204,0.5949089527130127,-0.1322111189365387,0.41083985567092896,0.45213645696640015
0.8440161943435669,-0.22426027059555054,0.6414369940757751,-0.112479567527771,0.47651243209838867,0.36215507984161377
1.0645381212234497,-0.1886640340089798,0.6141058206558228,-0.12343332171440125,0.5153766870498657,0.26513922214508057
1.3800201416015625,-0.23004579544067383,0.5017910003662109,-0.12663990259170532,0.49183833599090576,0.23789095878601074
1.4603724479675293,-0.1607849895954132,0.4095054864883423,-0.10935607552528381,0.4631474018096924,0.297957181930542
1.1837506294250488,-0.1088557168841362,0.28771868348121643,-0.0818009078502655,0.4033646583557129,0.4078887104988098
0.6408606171607971,-0.08919262886047363,0.08536853641271591,-0.09587964415550232,0.29168325662612915,0.4985271096229553
0.11153987050056458,0.004903849214315414,-0.18143020570278168,-0.1317945420742035,0.19641053676605225,0.5076928734779358
-0.1852385699748993,0.12871883809566498,-0.31434011459350586,-0.12234414368867874,0.17294520139694214,0.4036474823951721
-0.25546661019325256,0.14622315764427185,-0.292205810546875,-0.03335121273994446,0.18230855464935303,0.2968780994415283
-0.27569717168807983,0.09313865751028061,-0.17414768040180206,0.047472864389419556,0.15685147047042847,0.2429143786430359
-0.41008469462394714,0.12404373288154602,-0.015122490003705025,0.09830555319786072,0.12205648422241211,0.22476446628570557
-0.5992372035980225,0.16389453411102295,0.034480322152376175,0.07563244551420212,0.07340121269226074,0.1844596266746521
-0.7814890146255493,0.305143266916275,-0.06573150306940079,-0.021920621395111084,0.015900254249572754,0.12076014280319214
-0.760661244392395,0.347602903842926,-0.19863677024841309,-0.05686938762664795,-0.00978386402130127,0.019116222858428955
-0.6069135665893555,0.33086082339286804,-0.17023982107639313,0.01798742264509201,-0.011275708675384521,-0.06014454364776611
-0.3843039572238922,0.35679998993873596,-0.019649483263492584,0.0851362943649292,-0.008827805519104004,-0.11472827196121216
-0.14560334384441376,0.3255568742752075,0.11849012225866318,0.11025014519691467,-0.02428901195526123,-0.14071106910705566
-0.028518084436655045,0.17633825540542603,0.15429508686065674,0.08642306178808212,-0.0681104063987732,-0.0954207181930542
-0.044532839208841324,0.10867495834827423,0.12820330262184143,0.051281750202178955,-0.0956425666809082,-0.011626780033111572
-0.04668650031089783,0.06457717716693878,0.0994989201426506,0.03176555037498474,-0.10039001703262329,0.016580700874328613
0.05894464999437332,0.029560264199972153,0.13616837561130524,0.046492189168930054,-0.09067738056182861,0.0045691728591918945
0.16097499430179596,0.03406991809606552,0.19478443264961243,0.04490172863006592,-0.07939183712005615,-0.0012613534927368164
0.1907963752746582,0.050822626799345016,0.21371452510356903,0.028142154216766357,-0.07908999919891357,0.0267600417137146
0.10392448306083679,0.07576928287744522,0.1786554455757141,-0.0021449029445648193,-0.07937544584274292,0.07584089040756226
0.00737795839086175,0.06322111934423447,0.13485302031040192,-0.004762656986713409,-0.07472509145736694,0.08936786651611328
-0.049678951501846313,0.00971140991896391,0.08313338458538055,-0.00898858904838562,-0.060408711433410645,0.07568448781967163
-0.08450879156589508,-0.00523366779088974,0.06026912480592728,-0.018873371183872223,-0.029925763607025146,0.04971611499786377
-0.08095249533653259,5.846808198839426e-05,0.04282613471150398,-0.0057621002197265625,-0.0011434555053710938,0.01788330078125
-0.0026757523883134127,0.06497999280691147,0.05389018729329109,-0.01893717050552368,0.023389339447021484,-0.029198408126831055
0.058386266231536865,0.06737923622131348,0.07014434784650803,-0.010205455124378204,0.04548448324203491,-0.04107433557510376
0.023900315165519714,0.05696799233555794,0.05922579765319824,-0.011276572942733765,0.04382216930389404,0.002822697162628174
-0.019076397642493248,0.03172659873962402,0.03524088114500046,-0.0073365867137908936,0.04098057746887207,0.026344001293182373
-0.0566876195371151,0.02821502834558487,-0.012803950347006321,-0.02253827452659607,0.03249859809875488,0.04300945997238159
-0.07907275855541229,0.01519156713038683,-0.016007348895072937,-0.015044689178466797,0.03781533241271973,0.05267608165740967
-0.12274865061044693,0.011935536749660969,-0.016455333679914474,-0.015272349119186401,0.045779526233673096,0.07503807544708252
-0.16645750403404236,-0.00857172254472971,-0.016684820875525475,-0.017826586961746216,0.06191051006317139,0.08933311700820923
-0.17113354802131653,-0.05207853019237518,-0.014442101120948792,-0.022283434867858887,0.0740390419960022,0.0912126898765564
-0.17343805730342865,-0.07361824065446854,-0.014477715827524662,-0.04096502065658569,0.07950842380523682,0.1007453203201294
-0.21585991978645325,-0.09928710013628006,-0.022570421919226646,-0.048720329999923706,0.0800902247428894,0.1283550262451172
-0.34933575987815857,-0.0444493442773819,-0.08656727522611618,-0.08100548386573792,0.061963677406311035,0.1685197353363037
-0.5008313059806824,0.007437506690621376,-0.15863671898841858,-0.09542763233184814,0.05355435609817505,0.20253580808639526
-0.6749567985534668,0.027988949790596962,-0.2408902645111084,-0.095680832862854,0.05200159549713135,0.23803728818893433
-0.8069098591804504,0.05309898033738136,-0.3001851737499237,-0.1015111580491066,0.06488978862762451,0.25243377685546875
-0.8330157995223999,0.02226303331553936,-0.29077062010765076,-0.05869564414024353,0.09415364265441895,0.22150766849517822
-0.7799838185310364,-0.04429544135928154,-0.2649046778678894,-0.029510021209716797,0.12886786460876465,0.18893325328826904
-0.6812794804573059,-0.1047784686088562,-0.212325781583786,-0.01694980263710022,0.1502860188484192,0.18457859754562378
-0.5394860506057739,-0.1356971561908722,-0.15541303157806396,-0.01068800687789917,0.1630338430404663,0.19499504566192627
-0.41674232482910156,-0.10000336915254593,-0.14273911714553833,-0.01923641562461853,0.16533732414245605,0.2252969741821289
-0.33405977487564087,-0.04152151197195053,-0.1414257287979126,-0.02676430344581604,0.15979743003845215,0.2790678143501282
-0.329925000667572,-0.024644723162055016,-0.1214638501405716,-0.0017047226428985596,0.15258324146270752,0.336645245552063
-0.37949952483177185,-0.12569747865200043,-0.10094602406024933,0.009588778018951416,0.1457430124282837,0.3846602439880371
-0.45599591732025146,-0.2720519006252289,-0.09568928927183151,0.007776319980621338,0.14339280128479004,0.4000004529953003
-0.4464353322982788,-0.34851592779159546,-0.0861504077911377,0.004329390823841095,0.16621679067611694,0.3471497893333435
-0.33481365442276,-0.3449419140815735,-0.09919115900993347,-0.005757912993431091,0.18697857856750488,0.2682769298553467
-0.23621004819869995,-0.334388792514801,-0.11930475383996964,-0.016485437750816345,0.18947923183441162,0.2311936616897583
-0.2817801237106323,-0.3012396991252899,-0.11703866720199585,-0.017078980803489685,0.17478197813034058,0.25585436820983887
-0.33237794041633606,-0.27737298607826233,-0.08308026939630508,-0.004986986517906189,0.15862691402435303,0.23445594310760498
-0.3001236915588379,-0.3650355637073517,-0.06572267413139343,-0.013800829648971558,0.12780261039733887,0.18095993995666504
-0.2042272686958313,-0.4929773211479187,-0.020059997215867043,-0.024776369333267212,0.11334127187728882,0.09581160545349121
-0.17307817935943604,-0.5000820159912109,-0.04571685940027237,-0.03843188285827637,0.11184513568878174,0.029790818691253662
-0.20834727585315704,-0.256828635931015,-0.1089499294757843,-0.061991021037101746,0.1275424361228943,-0.0026148557662963867
-0.11665599048137665,0.17346173524856567,-0.14765486121177673,-0.05515272915363312,0.14928984642028809,-0.06619185209274292
0.20051419734954834,0.4273535907268524,-0.08906447887420654,-0.0352228581905365,0.16825103759765625,-0.1623890995979309
0.46553412079811096,0.4842104911804199,0.010811256244778633,0.006153091788291931,0.1511150598526001,-0.14836883544921875
0.3767271935939789,0.40523993968963623,0.017296239733695984,0.009634837508201599,0.07084202766418457,-0.03418266773223877
-0.03527280315756798,0.22658731043338776,-0.03543316572904587,0.007831886410713196,-0.019572019577026367,0.09081292152404785
-0.4663936495780945,0.02660221792757511,-0.05598630756139755,0.031444698572158813,-0.05784010887145996,0.08806014060974121
-0.5811891555786133,-0.11167075484991074,-0.053947389125823975,0.0568196177482605,-0.031856417655944824,-0.06692397594451904
-0.3603152632713318,-0.20604629814624786,-0.03488314151763916,0.03568398952484131,0.020789265632629395,-0.2864949703216553
-0.13390113413333893,-0.22776158154010773,-0.04514959827065468,0.018111325800418854,0.015460193157196045,-0.3961854577064514
-0.2653607428073883,-0.21630439162254333,-0.0847758799791336,0.011896401643753052,-0.05751115083694458,-0.3171672821044922
-0.585827112197876,-0.019358081743121147,-0.08445869386196136,0.04187394678592682,-0.11811262369155884,-0.25723326206207275
-0.7443500757217407,0.18203407526016235,-0.07099257409572601,0.05307561159133911,-0.1377689242362976,-0.311931848526001
-0.5801404118537903,0.18296979367733002,-0.01523282378911972,0.06090517342090607,-0.13259011507034302,-0.4663143754005432
-0.38126346468925476,0.012930446304380894,0.08148534595966339,0.11206851154565811,-0.10651355981826782,-0.5216187834739685
-0.38359323143959045,-0.14733994007110596,0.11264391243457794,0.12186150252819061,-0.13859274983406067,-0.4642431139945984
-0.5281456112861633,-0.11313509941101074,0.06990337371826172,0.09000504016876221,-0.1834535002708435,-0.4075201749801636
-0.6288744211196899,-0.027249827980995178,-0.02811259776353836,0.016290992498397827,-0.23566344380378723,-0.4127790927886963
-0.5769809484481812,-0.000536286155693233,-0.045507822185754776,0.004439815878868103,-0.2611177861690521,-0.4817909002304077
-0.5440528988838196,-0.031069500371813774,0.023815128952264786,0.06923185288906097,-0.23760467767715454,-0.5166398286819458
-0.5665426850318909,-0.049914322793483734,0.0644712820649147,0.09006554633378983,-0.24116083979606628,-0.5300031304359436
-0.6068575978279114,-0.006994647905230522,0.052482664585113525,0.0651911199092865,-0.25327375531196594,-0.5369848608970642
-0.5345641374588013,0.07944843918085098,-0.012325605377554893,0.02028263360261917,-0.24108335375785828,-0.5854676961898804
-0.38082247972488403,0.09904278814792633,-0.08535473048686981,0.00014819204807281494,-0.21530449390411377,-0.6427544355392456
-0.28962114453315735,0.10938175767660141,-0.08596064895391464,0.01004491001367569,-0.2089187204837799,-0.626137375831604
-0.21610313653945923,0.08993711322546005,-0.05114253610372543,0.034548304975032806,-0.21257337927818298,-0.5871872305870056
-0.1433224081993103,0.04856634885072708,-0.008745712228119373,0.038511574268341064,-0.20662567019462585,-0.5378865599632263
-0.0697946846485138,-0.01691574603319168,-0.014442900195717812,0.040370360016822815,-0.18851327896118164,-0.4867556095123291
0.005577086471021175,-0.08215222507715225,-0.07566893100738525,0.019111022353172302,-0.1646905243396759,-0.4329860210418701
0.08037250488996506,-0.0752028301358223,-0.15976029634475708,-0.00010189414024353027,-0.1397686004638672,-0.3962783217430115
0.12484117597341537,-0.014448666013777256,-0.22842884063720703,-0.013043999671936035,-0.12218928337097168,-0.36166393756866455
0.10182210803031921,0.008445560932159424,-0.23259958624839783,-0.0011323094367980957,-0.12335097789764404,-0.3144245743751526
0.07863819599151611,0.008677498437464237,-0.1788771152496338,0.029882311820983887,-0.13726544380187988,-0.28727149963378906
0.13933345675468445,-0.04676438495516777,-0.08580321818590164,0.06683778762817383,-0.11099720001220703,-0.30961382389068604
0.25524961948394775,-0.0786573588848114,-0.021052246913313866,0.08230388164520264,-0.07743746042251587,-0.32608723640441895
0.4204460382461548,-0.09563994407653809,-0.011897265911102295,0.06706835329532623,-0.038796305656433105,-0.32179415225982666
0.5693331956863403,-0.12018889933824539,-0.07067974656820297,0.032111912965774536,-0.01038813591003418,-0.2794366478919983
0.6332637071609497,-0.13074353337287903,-0.14047257602214813,0.010760478675365448,0.012939274311065674,-0.19175201654434204
0.6120867729187012,-0.09560765326023102,-0.1789134442806244,-0.0012659132480621338,0.026606738567352295,-0.10491013526916504
0.5677953362464905,-0.0702076330780983,-0.20414471626281738,-0.005919501185417175,0.03274816274642944,-0.03925579786300659
0.5557161569595337,-0.0035597500391304493,-0.16452491283416748,0.002552315592765808,0.058738112449645996,-0.01296621561050415
0.5803849697113037,0.06388498097658157,-0.1239471286535263,0.0017554312944412231,0.081584632396698,-0.0003409385681152344
0.6278333067893982,0.10176005959510803,-0.07341095060110092,-0.0016265660524368286,0.10810133814811707,0.02071666717529297
0.6665459275245667,0.14686566591262817,-0.0393802672624588,-0.008740067481994629,0.13819646835327148,0.05270868539810181
0.7193165421485901,0.19006404280662537,-0.015550083480775356,-0.024360716342926025,0.16186490654945374,0.08719325065612793
0.7539361715316772,0.2336696833372116,0.009386947378516197,-0.03035309910774231,0.18399417400360107,0.11583900451660156
0.7763272523880005,0.28289636969566345,0.04206402599811554,-0.03223879635334015,0.20865267515182495,0.14495360851287842
0.7560479044914246,0.3412477672100067,0.0802956372499466,-0.033608704805374146,0.21822822093963623,0.17659050226211548
0.6971384882926941,0.3954092562198639,0.13923762738704681,-0.016177207231521606,0.2365785837173462,0.20671236515045166
0.615450382232666,0.37999218702316284,0.11296847462654114,-0.03499859571456909,0.23502838611602783,0.23746204376220703
0.49351948499679565,0.3761143088340759,0.07066310197114944,-0.05099873244762421,0.24267375469207764,0.2511427402496338
0.34608006477355957,0.45019105076789856,0.0220638420432806,-0.05519992113113403,0.25074487924575806,0.251056432723999
0.3346547782421112,0.49276599287986755,0.03245830908417702,-0.04022754728794098,0.24634426832199097,0.22272086143493652
0.518371045589447,0.4665832221508026,0.1406307965517044,0.0013138502836227417,0.25793981552124023,0.17276978492736816
0.7515110969543457,0.3764401376247406,0.17832431197166443,0.0044786930084228516,0.22725939750671387,0.14736074209213257
0.8362607359886169,0.19828122854232788,0.08836513012647629,-0.01869697868824005,0.2002239227294922,0.17569005489349365
0.7036114931106567,-0.07978450506925583,-0.031780559569597244,-0.015780970454216003,0.1788938045501709,0.25843799114227295
0.4499433636665344,-0.29322677850723267,-0.06334987282752991,0.02706257998943329,0.17860573530197144,0.30370545387268066
0.34284040331840515,-0.36112868785858154,-0.016176914796233177,0.03224878013134003,0.18110144138336182,0.23621702194213867
0.49058619141578674,-0.3222050964832306,0.12152787297964096,0.01359887421131134,0.18981575965881348,0.09873926639556885
0.7637839913368225,-0.21351060271263123,0.307914137840271,0.0002579689025878906,0.19836771488189697,0.0194779634475708
0.9613711833953857,-0.05182487517595291,0.4558342397212982,-0.016043037176132202,0.19236791133880615,0.03595244884490967
0.9251869320869446,0.13580936193466187,0.5169869661331177,-0.028843507170677185,0.17937403917312622,0.11807113885879517
0.7375895380973816,0.30745530128479004,0.5089390277862549,-0.02995547652244568,0.13975036144256592,0.21188515424728394
0.5307421684265137,0.38925403356552124,0.5120395421981812,-0.00944855809211731,0.13053029775619507,0.23518162965774536
0.3971307575702667,0.2530381977558136,0.5154020190238953,0.015204101800918579,0.11654752492904663,0.24544662237167358
0.3555619716644287,0.03597386181354523,0.5177231431007385,0.0335712730884552,0.11045026779174805,0.2287379503250122
0.3749709129333496,-0.10545190423727036,0.4899313747882843,0.020895838737487793,0.09246307611465454,0.16913342475891113
0.3718351423740387,-0.15198063850402832,0.4337918162345886,-0.005364276468753815,0.057036519050598145,0.1515541672706604
0.295861154794693,-0.12750956416130066,0.33377623558044434,-0.03509420156478882,0.024599969387054443,0.1645529866218567
0.14451512694358826,-0.02647419273853302,0.1946972757577896,-0.05709940195083618,-0.007935523986816406,0.18189358711242676
-0.004091134760528803,0.06572151184082031,0.08242959529161453,-0.06263003498315811,-0.03202509880065918,0.17707091569900513
-0.07891473174095154,0.12736481428146362,-0.03134476765990257,-0.05854121595621109,-0.05161947011947632,0.13577955961227417
-0.09577526152133942,0.20669139921665192,-0.10788919776678085,-0.04890570044517517,-0.06207764148712158,0.0746660828590393
-0.10060912370681763,0.2781267464160919,-0.15519054234027863,-0.018471896648406982,-0.05808001756668091,0.030537426471710205
-0.09034214168787003,0.29587095975875854,-0.17184136807918549,0.006713509559631348,-0.05649524927139282,0.0020664334297180176
-0.041819848120212555,0.27024567127227783,-0.15318676829338074,0.02317449450492859,-0.046416521072387695,-0.024140596389770508
0.021519845351576805,0.25897061824798584,-0.15021181106567383,0.0322604775428772,-0.03713655471801758,-0.05233132839202881
0.08902373909950256,0.22464323043823242,-0.1346042901277542,0.02798628807067871,-0.03904068470001221,-0.07178521156311035
0.1397910714149475,0.17608638107776642,-0.10761655867099762,0.03627219796180725,-0.029540657997131348,-0.06734955310821533
0.19500859081745148,0.10519175976514816,-0.05217067897319794,0.029295697808265686,-0.022672414779663086,-0.06574851274490356
0.251190721988678,0.04814908280968666,0.017253218218684196,0.024207130074501038,-0.007206559181213379,-0.06792467832565308
0.30561399459838867,0.04591984674334526,0.08872956782579422,0.010659053921699524,-0.00039333105087280273,-0.07732117176055908
0.3057335615158081,0.04752987250685692,0.13490192592144012,-0.010599285364151001,0.0024923086166381836,-0.05728805065155029
0.2549073398113251,0.05676233023405075,0.15525217354297638,-0.028751283884048462,-0.00046318769454956055,-0.024103522300720215
0.2137414962053299,0.03841135650873184,0.16101160645484924,-0.027378737926483154,0.019165635108947754,-0.011540353298187256
0.23056381940841675,-0.014699729159474373,0.1764431744813919,-0.02181866765022278,0.04226696491241455,-0.013459861278533936
0.2755975127220154,-0.08005353063344955,0.18711675703525543,-0.020141370594501495,0.05951017141342163,-0.014609992504119873
0.30945906043052673,-0.09724423289299011,0.18588115274906158,-0.03137326240539551,0.0674896240234375,-0.008008718490600586
0.27408361434936523,-0.03634188324213028,0.17982447147369385,-0.04486072063446045,0.06174468994140625,0.007845759391784668
0.19734226167201996,0.009467856027185917,0.15560440719127655,-0.048295147716999054,0.04980593919754028,0.035899341106414795
0.16930906474590302,0.07079967856407166,0.0583287812769413,-0.07108825445175171,0.039965033531188965,0.029453635215759277
0.22891804575920105,0.22111447155475616,-0.10533266514539719,-0.12307573109865189,0.046540915966033936,-0.007956087589263916
0.23734129965305328,0.4541427493095398,-0.13931836187839508,-0.13651138544082642,0.07406342029571533,-0.02588629722595215
0.12291859090328217,0.5636628270149231,-0.064776211977005,-0.10019445419311523,0.08075821399688721,0.0646510124206543
0.06468654423952103,0.5053287744522095,-0.04214600846171379,-0.09660093486309052,0.06962448358535767,0.08623844385147095
0.09033376723527908,0.3886339068412781,-0.0815378949046135,-0.09903934597969055,0.08193916082382202,0.08370029926300049
0.21507591009140015,0.28362634778022766,-0.10259245336055756,-0.11428162455558777,0.10523837804794312,0.05708897113800049
0.29344484210014343,0.25010693073272705,-0.16226188838481903,-0.11790016293525696,0.11607664823532104,0.07576882839202881
0.349557489156723,0.10042983293533325,-0.13294894993305206,-0.1456758975982666,0.12060534954071045,0.10034400224685669
0.1970813274383545,0.0862143412232399,-0.11538027226924896,-0.079363614320755,0.1380833387374878,0.18516004085540771
-0.00786577444523573,0.12886226177215576,-0.07876873761415482,-0.02725273370742798,0.17936354875564575,0.22682589292526245
-0.07418181747198105,0.10258510708808899,-0.0024182626511901617,0.014519989490509033,0.22832262516021729,0.23434829711914062
0.03261585906147957,0.0024003065191209316,0.08766703307628632,0.04648146033287048,0.28378498554229736,0.20259201526641846
0.19822974503040314,-0.09417414665222168,0.1579453945159912,0.046177446842193604,0.3261280059814453,0.19574064016342163
0.3342615067958832,-0.19790105521678925,0.2410084307193756,0.034217387437820435,0.3487527370452881,0.21957820653915405
0.4729498028755188,-0.1599220484495163,0.2838153541088104,0.010978877544403076,0.3505445718765259,0.20485836267471313
0.608147919178009,-0.01901291310787201,0.26267969608306885,-0.01727011799812317,0.3437499403953552,0.172582745552063
0.6724706888198853,0.10446173697710037,0.1903412640094757,-0.049000054597854614,0.3031572699546814,0.1862196922302246
0.6369591951370239,0.11094358563423157,0.134574294090271,-0.03873029351234436,0.2573314309120178,0.21820974349975586
0.467049777507782,-0.09946046769618988,0.05915920063853264,-0.014065220952033997,0.1898481845855713,0.28422480821609497
0.2826131582260132,-0.3176714777946472,-0.00019311066716909409,0.004479885101318359,0.15900468826293945,0.2759705185890198
0.2172420173883438,-0.365955114364624,-0.05067789927124977,0.0005808621644973755,0.18388783931732178,0.18440580368041992
0.28518155217170715,-0.1063980832695961,-0.07887107878923416,-0.011223241686820984,0.22776198387145996,0.05022913217544556
0.39449435472488403,0.19838932156562805,-0.09037409722805023,-0.018780618906021118,0.25092387199401855,-0.03863728046417236
0.3683927059173584,0.1840195655822754,-0.04439372569322586,0.02450604736804962,0.19966751337051392,0.051878511905670166
0.24372275173664093,-0.03676188737154007,0.02477330155670643,0.06686864793300629,0.14554274082183838,0.1495521366596222
0.13732165098190308,-0.19919776916503906,0.03336724266409874,0.0581946074962616,0.09701144695281982,0.158705472946167
0.023324592038989067,-0.07675950974225998,0.08929575979709625,0.038298189640045166,0.07398951053619385,0.09622061252593994
-0.06319775432348251,0.2466999590396881,0.13642071187496185,0.01609380543231964,0.07051956653594971,0.025513052940368652
-0.11614859849214554,0.31361424922943115,0.1382124274969101,-0.005552560091018677,0.03916597366333008,0.0077936649322509766
-0.2084720879793167,0.11762814968824387,0.07160856574773788,-0.015397578477859497,0.012325525283813477,0.03437614440917969
-0.5465649962425232,-0.16905365884304047,-0.004583029076457024,0.002848416566848755,-0.030406951904296875,0.10170209407806396
-0.8753185272216797,-0.44431841373443604,-0.03372177481651306,0.04591420292854309,-0.041535139083862305,0.1025080680847168
-0.9225128889083862,-0.40258604288101196,-0.011974205262959003,0.05947202444076538,-0.008152484893798828,-0.07484292984008789
-0.6912702918052673,-0.14577451348304749,0.023748015984892845,0.049311310052871704,0.0009709596633911133,-0.2880154848098755
-0.5017162561416626,0.09415151178836823,0.05132707208395004,0.024801388382911682,-0.040383219718933105,-0.3487014174461365
-0.585425078868866,-0.006070886738598347,-0.019011301919817924,0.02568509429693222,-0.1635546088218689,-0.20161569118499756
-0.8832042813301086,-0.20172585546970367,-0.07115539908409119,0.06868532299995422,-0.2670894265174866,-0.06497400999069214
-1.0233874320983887,-0.21931754052639008,-0.11517719179391861,0.09828989952802658,-0.30660349130630493,-0.12999171018600464
-0.8456019163131714,-0.04272729530930519,-0.17638365924358368,0.07280191034078598,-0.3080208897590637,-0.360145628452301
-0.5963853001594543,0.2082814872264862,-0.21313364803791046,0.051269471645355225,-0.3355490565299988,-0.4918196201324463
-0.5840722918510437,0.2987942695617676,-0.2724817395210266,0.06023991107940674,-0.4318559169769287,-0.4479835033416748
-0.6603840589523315,0.27369511127471924,-0.3306889533996582,0.102995365858078,-0.5090277194976807,-0.3775334358215332
-0.6032887697219849,0.15374191105365753,-0.3883986473083496,0.12541314959526062,-0.5466127991676331,-0.4407113790512085
-0.45145320892333984,0.045764677226543427,-0.4319080710411072,0.1412201225757599,-0.5470153093338013,-0.49788665771484375
-0.24712035059928894,-0.01236069854348898,-0.40361446142196655,0.1456184983253479,-0.5253819227218628,-0.5791106224060059
-0.1907210350036621,-0.08038507401943207,-0.3998176157474518,0.13875187933444977,-0.5475472807884216,-0.539543628692627
-0.22857728600502014,-0.17271335422992706,-0.3852114975452423,0.13378342986106873,-0.5582802891731262,-0.47244060039520264
-0.22543349862098694,-0.2066669911146164,-0.3586057424545288,0.13012006878852844,-0.5309420824050903,-0.46576571464538574
-0.11488980799913406,-0.18777665495872498,-0.3136817216873169,0.11589595675468445,-0.47148561477661133,-0.497028648853302
0.009462988004088402,-0.14029067754745483,-0.29093170166015625,0.08420991897583008,-0.4218623638153076,-0.5053364634513855
0.026994764804840088,-0.08260294795036316,-0.31050845980644226,0.051447659730911255,-0.3952738046646118,-0.4126943349838257
-0.04494873806834221,0.07664389163255692,-0.33231300115585327,0.03794197738170624,-0.3734596371650696,-0.32462209463119507
-0.09011243283748627,0.1341015100479126,-0.3347078561782837,0.06187848746776581,-0.36143219470977783,-0.2865045666694641
-0.0752759650349617,0.2504863142967224,-0.2982231676578522,0.07610785961151123,-0.34550297260284424,-0.3052660822868347
0.06422848254442215,0.21484065055847168,-0.22741423547267914,0.11836221814155579,-0.2924559712409973,-0.33223652839660645
0.27091386914253235,0.0016973315505310893,-0.13972258567810059,0.14590460062026978,-0.2541234493255615,-0.3316434621810913
0.2965324819087982,-0.18363957107067108,-0.044277261942625046,0.164946049451828,-0.22578394412994385,-0.24870389699935913
0.21021930873394012,-0.24630586802959442,-0.00960430596023798,0.13649186491966248,-0.20886969566345215,-0.1742258071899414
0.09377392381429672,-0.06309464573860168,-0.043314941227436066,0.07815632224082947,-0.1920795440673828,-0.15603041648864746
0.015760404989123344,0.14983540773391724,-0.07665813714265823,0.03244480490684509,-0.14567649364471436,-0.17607033252716064
0.06947765499353409,0.2505325675010681,-0.00944497250020504,0.04225800931453705,-0.08454102277755737,-0.2083534598350525
0.23022134602069855,0.25663313269615173,0.11233562976121902,0.0659971684217453,-0.005715310573577881,-0.21858644485473633
0.3836665749549866,0.20090556144714355,0.19100849330425262,0.06778797507286072,0.04510229825973511,-0.16283100843429565
0.440582275390625,0.21311278641223907,0.2662558853626251,0.07601305842399597,0.10875749588012695,-0.07637906074523926
0.4267425239086151,0.241724893450737,0.3053303360939026,0.10662645101547241,0.16750293970108032,0.014063358306884766
0.3649221360683441,0.30384257435798645,0.30259478092193604,0.08652010560035706,0.19007927179336548,0.05891692638397217
0.3366876542568207,0.2789716422557831,0.32767319679260254,0.03763550519943237,0.2152785062789917,0.06063419580459595
0.4342987537384033,0.055566396564245224,0.44356226921081543,0.02053314447402954,0.2691521644592285,0.0694693922996521
0.5998260974884033,-0.17022091150283813,0.5138775706291199,-0.011807918548583984,0.30581140518188477,0.07278990745544434
0.7682419419288635,-0.3293493688106537,0.5223785638809204,-0.03277692198753357,0.34634125232696533,0.09568488597869873
0.8602963089942932,-0.42262396216392517,0.3464956283569336,-0.06723424792289734,0.3471246361732483,0.14343857765197754
0.7340894341468811,-0.3611399531364441,0.17641380429267883,-0.08378982543945312,0.3597012162208557,0.22273147106170654
0.5210456848144531,-0.17957459390163422,0.14834801852703094,-0.05127936601638794,0.4108535647392273,0.2760435938835144
0.3566663861274719,-0.09501425176858902,0.15278680622577667,-0.0647306889295578,0.40623295307159424,0.2792181372642517
0.2682071030139923,-0.14121580123901367,0.16645458340644836,-0.0900128185749054,0.3823551535606384,0.2548806667327881
0.27496054768562317,-0.28110018372535706,0.14300943911075592,-0.1017160713672638,0.37603330612182617,0.24367326498031616
0.27765947580337524,-0.574815571308136,-0.03732031211256981,-0.11370095610618591,0.3328741788864136,0.2590731382369995
0.07252632081508636,-0.5610889792442322,-0.2670872211456299,-0.15177005529403687,0.2740209698677063,0.31713390350341797
-0.2879677712917328,-0.06947866827249527,-0.28452056646347046,-0.05648320913314819,0.3412201404571533,0.3131057620048523
-0.5166041254997253,0.3124079704284668,-0.20567181706428528,-0.012408316135406494,0.3636428713798523,0.26625025272369385
