rotation_x,rotation_y,rotation_z,acceleration_x,acceleration_y,acceleration_z
0.20080126821994781,0.21643002331256866,-0.44176429510116577,-0.05421489477157593,0.35166895389556885,0.362481951713562
-0.346914142370224,0.3508863151073456,-0.5344809889793396,-0.0342714786529541,0.27700090408325195,0.38421398401260376
-0.4858589172363281,0.37136369943618774,-0.41209033131599426,0.047727346420288086,0.3001589775085449,0.2735791802406311
-0.3001372516155243,0.3076792061328888,-0.1991349160671234,0.08186420798301697,0.3299081325531006,0.16192907094955444
-0.03581414371728897,0.10849250853061676,-9.968969970941544e-05,0.08761397004127502,0.3377225995063782,0.11258310079574585
0.038996487855911255,-0.08475162088871002,0.1000683456659317,0.05761533975601196,0.3133302330970764,0.14061856269836426
-0.09036275744438171,-0.04526977241039276,0.07413240522146225,0.0013872403651475906,0.25395941734313965,0.1789526343345642
-0.2955741882324219,0.14387620985507965,0.013177287764847279,-0.016448229551315308,0.23381328582763672,0.15911716222763062
-0.32835251092910767,0.15740279853343964,-0.03265576809644699,0.009853124618530273,0.20810145139694214,0.05999183654785156
-0.09530635923147202,0.05859585106372833,-0.0069542923010885715,0.04669800400733948,0.20565259456634521,-0.030611693859100342
0.20287925004959106,0.04216234013438225,0.013929784297943115,0.024483948945999146,0.1743379831314087,-0.03455156087875366
0.26146459579467773,0.052013326436281204,-0.0014664290938526392,-0.028120607137680054,0.11396312713623047,0.04868197441101074
0.0033231014385819435,0.015304606407880783,-0.07127602398395538,-0.06961703300476074,0.06727969646453857,0.13576269149780273
-0.2716912031173706,-0.010462651029229164,-0.13172291219234467,-0.07990771532058716,0.012584388256072998,0.12161999940872192
-0.35708630084991455,-0.06484315544366837,-0.10245898365974426,-0.02765214443206787,-0.009137332439422607,0.032588958740234375
-0.236081063747406,-0.06760839372873306,-0.04375646263360977,0.010806858539581299,-0.043503403663635254,-0.06033504009246826
-0.0031257634982466698,-0.02096891775727272,0.02339891716837883,0.0205499529838562,-0.0402144193649292,-0.10183972120285034
0.0526590496301651,0.07090931385755539,0.04343617707490921,0.02316516824066639,-0.01862168312072754,-0.06364017724990845
-0.09645213186740875,0.16558431088924408,0.015026941895484924,-0.010696262121200562,-0.05650889873504639,-0.021807432174682617
-0.21543823182582855,0.1323525607585907,-0.032138846814632416,-0.03480488061904907,-0.10349887609481812,-0.05479621887207031
-0.20413203537464142,-0.05163529887795448,-0.10809305310249329,-0.02978762984275818,-0.09559178352355957,-0.11147737503051758
-0.03411589562892914,-0.16822977364063263,-0.21198728680610657,-0.03962567448616028,-0.0876319408416748,-0.14000558853149414
0.11044368147850037,-0.062481775879859924,-0.2792837619781494,-0.044998377561569214,-0.10129678249359131,-0.10853493213653564
0.07867947965860367,0.12709692120552063,-0.31195446848869324,-0.02273339033126831,-0.1465267539024353,-0.04859280586242676
-0.053349725902080536,0.30384361743927,-0.24245399236679077,0.012869179248809814,-0.2373640537261963,-0.04629552364349365
-0.2584971487522125,0.4312247037887573,-0.07739192992448807,0.04548150300979614,-0.32531195878982544,-0.09474736452102661
-0.39319267868995667,0.34693390130996704,0.0619254931807518,0.06638875603675842,-0.35476839542388916,-0.20069855451583862
-0.24085168540477753,0.09463312476873398,0.1699846386909485,0.07420516014099121,-0.3372984528541565,-0.32617008686065674
-0.010957637801766396,-0.059959474951028824,0.24915626645088196,0.04679343104362488,-0.3172684907913208,-0.3421628475189209
-0.03481507673859596,-0.07331231981515884,0.2139081507921219,-0.0010359585285186768,-0.3271528482437134,-0.24243861436843872
-0.2197912335395813,-0.001342869596555829,0.10867626965045929,-0.0481170117855072,-0.37317270040512085,-0.1677892804145813
-0.3924269378185272,0.13815101981163025,0.06670331209897995,-0.04186961054801941,-0.4229964017868042,-0.18461710214614868
-0.5102349519729614,0.12070707976818085,0.0781502053141594,0.0028000473976135254,-0.3857007622718811,-0.23368006944656372
-0.6362713575363159,0.08757674694061279,0.06814535707235336,-0.009966075420379639,-0.3645021915435791,-0.2589492201805115
-0.7913779616355896,0.08624938875436783,-0.13168610632419586,-0.08082342147827148,-0.3769876956939697,-0.2706260681152344
-0.8479412198066711,0.12078502774238586,-0.43105390667915344,-0.11200371384620667,-0.3778289556503296,-0.3395678997039795
-0.7770901918411255,0.11353567242622375,-0.5862857103347778,-0.053161799907684326,-0.3794707655906677,-0.4400063753128052
-0.5742231011390686,-0.05408429726958275,-0.47964295744895935,0.07749563455581665,-0.37117594480514526,-0.5281249284744263
-0.2320016771554947,-0.2446175515651703,-0.20612631738185883,0.1706792414188385,-0.32988131046295166,-0.5454192161560059
0.005267022643238306,-0.2147623598575592,-0.037105221301317215,0.12622717022895813,-0.29797887802124023,-0.4427762031555176
0.02729496732354164,-0.11014731228351593,-0.14071401953697205,0.03397533297538757,-0.30214810371398926,-0.31473076343536377
-0.06435003876686096,-0.030821803957223892,-0.3147134482860565,0.016658544540405273,-0.2965819835662842,-0.24849241971969604
-0.04214058443903923,-0.030394015833735466,-0.29417893290519714,0.09076574444770813,-0.28388458490371704,-0.2672174572944641
0.11679528653621674,-0.12818558514118195,-0.05875661224126816,0.15079763531684875,-0.25424325466156006,-0.2888943552970886
0.2482018768787384,-0.20649954676628113,0.13646209239959717,0.12898173928260803,-0.20513230562210083,-0.23636096715927124
0.363777756690979,-0.21625997126102448,0.0910189300775528,0.045173048973083496,-0.15781450271606445,-0.15504014492034912
0.46843644976615906,-0.09402922540903091,-0.0911453366279602,-0.0017597079277038574,-0.09059321880340576,-0.07886481285095215
0.45692914724349976,0.16912774741649628,-0.22162196040153503,-0.0064980704337358475,-0.07391583919525146,-0.013276755809783936
0.35448944568634033,0.30720168352127075,-0.13984565436840057,0.02547663450241089,-0.10655921697616577,0.013347029685974121
0.24273818731307983,0.17855346202850342,0.04962371289730072,0.060495104640722275,-0.10305964946746826,-0.00017720460891723633
0.2717914879322052,-0.03817582130432129,0.18317975103855133,0.06389188766479492,-0.047131359577178955,-0.03243738412857056
0.432879775762558,-0.13034021854400635,0.18843863904476166,0.03280198574066162,-0.0010110139846801758,-0.03568828105926514
0.5717493891716003,-0.02854912355542183,0.13969235122203827,0.01839679479598999,0.02734553813934326,0.010815799236297607
0.5290965437889099,0.20072412490844727,0.1615336835384369,0.021913375705480576,0.012461543083190918,0.0735616683959961
0.28868111968040466,0.3161657154560089,0.30695080757141113,0.03803768754005432,-0.028690338134765625,0.08890187740325928
0.03305796906352043,0.2057647407054901,0.43818652629852295,0.03899112343788147,-0.017017245292663574,0.03905594348907471
0.003367881290614605,0.023002903908491135,0.4130125343799591,0.010659754276275635,0.03607475757598877,-0.04763805866241455
0.2452610284090042,-0.053500887006521225,0.21366558969020844,-0.02769327163696289,0.08046144247055054,-0.10631424188613892
0.6230239272117615,-0.06298938393592834,-0.005376219283789396,-0.021631568670272827,0.11715054512023926,-0.11095958948135376
0.8782857060432434,0.04037964344024658,-0.08427976071834564,0.016858816146850586,0.13005369901657104,-0.03592437505722046
0.814582884311676,0.17132988572120667,-0.018024466931819916,0.03345721960067749,0.09134739637374878,0.07371789216995239
0.5605196356773376,0.12866643071174622,0.11469389498233795,0.057158976793289185,0.09716540575027466,0.14102864265441895
0.3489604592323303,0.010628527030348778,0.19534970819950104,0.04785788059234619,0.11905699968338013,0.14996862411499023
0.33208614587783813,-0.08385267108678818,0.14496758580207825,0.014866680838167667,0.15383070707321167,0.12992984056472778
0.42474010586738586,-0.1071922555565834,-0.019694536924362183,-0.03160032629966736,0.17005819082260132,0.1513119637966156
0.5227965712547302,-0.028241563588380814,-0.23310871422290802,-0.07224532961845398,0.19144928455352783,0.21541815996170044
0.5451518893241882,0.1550464928150177,-0.38600102066993713,-0.07970517873764038,0.21278756856918335,0.2800944149494171
0.19991636276245117,0.38989725708961487,-0.30829212069511414,0.005617648363113403,0.19433361291885376,0.3069309592247009
-0.35753583908081055,0.24795763194561005,-0.04071199148893356,0.09381133317947388,0.13259541988372803,0.2694758176803589
-0.6462938189506531,-0.11750335246324539,0.2889353632926941,0.13636678457260132,0.0932912826538086,0.13855278491973877
-0.4106066823005676,-0.30575665831565857,0.485625296831131,0.0883442759513855,0.12910819053649902,-0.015124797821044922
-0.1722232699394226,-0.18983079493045807,0.46895456314086914,0.03260546922683716,0.19809973239898682,-0.03751426935195923
-0.30142882466316223,-0.07604003697633743,0.2878800630569458,0.01599740982055664,0.19734996557235718,0.027500808238983154
-0.4374195635318756,0.06179124489426613,0.17476746439933777,0.01836216449737549,0.1375371813774109,0.02371978759765625
-0.27817294001579285,0.15799303352832794,0.20722201466560364,0.039703428745269775,0.11533588171005249,-0.04303395748138428
0.07437780499458313,0.15527752041816711,0.26591169834136963,0.03844866156578064,0.13623732328414917,-0.07428121566772461
0.3753514885902405,0.10698413848876953,0.2666454017162323,0.0022247740998864174,0.17281252145767212,-0.0162850022315979
0.3623822033405304,0.1803467571735382,0.2096719741821289,-0.03235214948654175,0.1958901286125183,0.10128235816955566
0.09259495884180069,0.2557530403137207,0.13795432448387146,-0.04770100116729736,0.187389075756073,0.18587350845336914
-0.1399679183959961,0.22778932750225067,0.1355661004781723,-0.03766259551048279,0.1746768355369568,0.18407464027404785
-0.14991295337677002,0.13533860445022583,0.231125608086586,-0.013992905616760254,0.17707526683807373,0.11290246248245239
-0.06428731977939606,-0.0009028026834130287,0.37717974185943604,0.009182395413517952,0.18260741233825684,0.05773049592971802
-0.03990849107503891,-0.08878204971551895,0.4431978464126587,0.007363736629486084,0.19664537906646729,0.049538254737854004
-0.06023772805929184,-0.07862209528684616,0.371108740568161,-0.023212045431137085,0.19306373596191406,0.06315308809280396
0.003666453994810581,-0.02466149814426899,0.28061386942863464,-0.04145413264632225,0.1650359034538269,0.047099292278289795
0.1308506280183792,-0.05043015256524086,0.3039444088935852,-0.019782721996307373,0.1311662197113037,0.02426755428314209
0.2014208734035492,-0.17070727050304413,0.4306199550628662,-0.014415618032217026,0.08604246377944946,0.04157751798629761
0.12148352712392807,-0.24345362186431885,0.5016475319862366,-0.03033873438835144,0.06859838962554932,0.08179104328155518
-0.019084718078374863,-0.26784244179725647,0.4592309296131134,-0.054588399827480316,0.07485729455947876,0.11221402883529663
-0.06816656142473221,-0.2044452279806137,0.3722085654735565,-0.07550429552793503,0.0571744441986084,0.09690135717391968
-0.06583455204963684,-0.12931875884532928,0.25851356983184814,-0.08360957354307175,0.059363722801208496,0.08893370628356934
-0.15334388613700867,-0.04916999489068985,0.1021723523736,-0.09542401880025864,0.05801790952682495,0.10371243953704834
-0.26465901732444763,0.004177606664597988,-0.04252368211746216,-0.08934661000967026,0.035167038440704346,0.09373664855957031
-0.3231741786003113,0.06639007478952408,-0.10155152529478073,-0.059893302619457245,0.009820222854614258,0.047788798809051514
-0.2992422878742218,0.05123637989163399,-0.1174711063504219,-0.026765495538711548,0.0038461685180664062,-0.010727107524871826
-0.24307666718959808,-0.04697965458035469,-0.12153115123510361,0.005999244749546051,0.022453784942626953,-0.052211642265319824
-0.1602555513381958,-0.1362937092781067,-0.147644504904747,0.009088374674320221,0.02604013681411743,-0.06805229187011719
-0.05921516567468643,-0.15855148434638977,-0.1758885532617569,0.01303073763847351,0.013838887214660645,-0.0663069486618042
0.004533322062343359,-0.11938735842704773,-0.17566442489624023,0.03254414349794388,0.007867991924285889,-0.044422805309295654
0.026170892640948296,-0.06982307136058807,-0.12479916960000992,0.04842019081115723,-0.012678265571594238,-0.024220705032348633
0.07358590513467789,-0.08378396183252335,-0.01855342462658882,0.0813913345336914,-0.0114210844039917,-0.0354689359664917
0.15131279826164246,-0.18791751563549042,0.07311539351940155,0.09201077371835709,0.030135035514831543,-0.025900304317474365
0.21258312463760376,-0.21648310124874115,0.08730850368738174,0.055840879678726196,0.051701128482818604,0.024599969387054443
0.23021842539310455,-0.14860141277313232,0.04538843408226967,0.02028748393058777,0.07632482051849365,0.09270328283309937
0.18148739635944366,-0.038341935724020004,-0.022333407774567604,-0.0006168410181999207,0.10548043251037598,0.1499277949333191
0.02218305692076683,0.07959776371717453,-0.06818989664316177,-0.013322710990905762,0.1169884204864502,0.19562053680419922
-0.14202457666397095,0.1165764108300209,-0.07848338782787323,-0.012075088918209076,0.11619633436203003,0.19289427995681763
-0.23776237666606903,0.0510115772485733,-0.029666271060705185,0.017172791063785553,0.13909226655960083,0.1536840796470642
-0.291714072227478,-0.041268520057201385,0.022435927763581276,0.03283682465553284,0.17358648777008057,0.12505781650543213
-0.32300877571105957,-0.06638026982545853,0.04485936462879181,0.026782602071762085,0.19607073068618774,0.11813592910766602
-0.3297432065010071,-0.05531751364469528,0.026247387751936913,0.011513620615005493,0.2163327932357788,0.12295138835906982
-0.298035591840744,-0.04183456674218178,-0.06205461546778679,-0.018842510879039764,0.21675270795822144,0.12340891361236572
-0.2114991843700409,-0.06149456650018692,-0.2098275125026703,-0.029869288206100464,0.2167605757713318,0.10592532157897949
-0.08799626678228378,-0.11067155003547668,-0.31821173429489136,-0.00333404541015625,0.22822266817092896,0.09025418758392334
0.05648726969957352,-0.13437747955322266,-0.35558128356933594,0.027389444410800934,0.2125236988067627,0.07849961519241333
0.14713577926158905,-0.13810506463050842,-0.33100005984306335,0.054592132568359375,0.20801383256912231,0.10127729177474976
0.15445512533187866,-0.010366610251367092,-0.29220879077911377,0.055558957159519196,0.19281280040740967,0.13914752006530762
0.09391683340072632,0.17162877321243286,-0.2545854151248932,0.04274902120232582,0.18321430683135986,0.16156691312789917
-0.028175506740808487,0.27979621291160583,-0.26873135566711426,0.014239907264709473,0.1724475622177124,0.17145776748657227
-0.12543457746505737,0.2786619961261749,-0.3072543144226074,-0.0027209818363189697,0.16695237159729004,0.1553136110305786
-0.11890947818756104,0.17925235629081726,-0.2780705988407135,0.01372671127319336,0.1511451005935669,0.10065293312072754
-0.016778793185949326,-0.0364220067858696,-0.1899222433567047,0.04503104090690613,0.15313279628753662,0.06147921085357666
0.04457102715969086,-0.19497759640216827,-0.10139743983745575,0.0459592342376709,0.13870197534561157,0.07671618461608887
-0.004969730041921139,-0.2430344521999359,-0.04924071580171585,0.02891591563820839,0.10761749744415283,0.1305646300315857
-0.14668075740337372,-0.14106547832489014,-0.012160559184849262,0.018203232437372208,0.06282281875610352,0.16495287418365479
-0.329765260219574,0.038715481758117676,-0.00214712624438107,0.005850046873092651,0.015049517154693604,0.15702557563781738
-0.36304113268852234,0.1257402002811432,0.028510278090834618,0.014475226402282715,0.0036156177520751953,0.08699268102645874
-0.20738491415977478,0.07538589090108871,0.042409103363752365,0.016868475824594498,0.03655838966369629,0.01708751916885376
-0.009474808350205421,-0.023335766047239304,0.03489994630217552,0.00598505511879921,0.05472433567047119,0.008890032768249512
0.06956621259450912,-0.02626178041100502,0.07474589347839355,0.006452232599258423,0.034482598304748535,0.03894323110580444
-0.006923215463757515,0.012821520678699017,0.12706337869167328,-0.012723296880722046,-0.006367683410644531,0.07483971118927002
-0.1883634477853775,0.03324219956994057,0.08090989291667938,-0.07686439156532288,-0.036681413650512695,0.07034969329833984
-0.3153928220272064,-0.07314314693212509,-0.07580175250768661,-0.09190526604652405,-0.010608375072479248,0.00014322996139526367
-0.2625862658023834,-0.2114604264497757,-0.2735052704811096,-0.06916332244873047,0.026131153106689453,-0.07885223627090454
-0.07158703356981277,-0.22645685076713562,-0.42063871026039124,-0.0347389280796051,0.027973532676696777,-0.1087646484375
0.05331970751285553,-0.015380889177322388,-0.4622805714607239,-0.0007968209683895111,-0.004995405673980713,-0.07817834615707397
-0.04071538895368576,0.18787206709384918,-0.384104460477829,0.045203596353530884,-0.04879647493362427,-0.021100640296936035
-0.18840749561786652,0.22344382107257843,-0.1469075083732605,0.0894685685634613,-0.10496735572814941,-0.03702497482299805
-0.3545881509780884,0.08097957074642181,0.12037112563848495,0.10631030797958374,-0.12966078519821167,-0.08564919233322144
-0.43957242369651794,-0.16150958836078644,0.24946725368499756,0.0784233808517456,-0.12954801321029663,-0.14072972536087036
-0.3046046495437622,-0.1969550997018814,0.2048671990633011,0.00944945216178894,-0.12402224540710449,-0.19534313678741455
-0.10524637252092361,-0.11520060151815414,0.08107713609933853,-0.034851402044296265,-0.10451054573059082,-0.18534773588180542
0.01927134208381176,0.003076760796830058,-0.013988455757498741,-0.042748063802719116,-0.10883957147598267,-0.13687491416931152
0.02857377380132675,0.07490212470293045,-0.014684650115668774,-0.02191328816115856,-0.14751595258712769,-0.09816771745681763
-0.12005599588155746,0.06419628113508224,0.03385012969374657,-0.009900955483317375,-0.21834254264831543,-0.08761197328567505
-0.271182656288147,0.10689101368188858,0.0646732896566391,-0.015438079833984375,-0.3221736550331116,-0.14904266595840454
-0.24346290528774261,0.2142421454191208,0.0952751412987709,-0.007095903158187866,-0.3687593936920166,-0.2686249017715454
-0.07771273702383041,0.26984304189682007,0.17189300060272217,0.027070432901382446,-0.392534077167511,-0.3981071710586548
0.07112981379032135,0.22290435433387756,0.32672232389450073,0.041308194398880005,-0.4431363344192505,-0.4632779359817505
-0.0831107348203659,0.07132535427808762,0.5171560049057007,0.020185116678476334,-0.4972979426383972,-0.42233067750930786
-0.5681380033493042,-0.20531140267848969,0.61127108335495,-0.008203566074371338,-0.5505227446556091,-0.364749550819397
-0.9394833445549011,-0.6399767994880676,0.6611067056655884,-0.032345276325941086,-0.5739662647247314,-0.4232943654060364
-0.9612999558448792,-1.1123260259628296,0.6608607172966003,-0.04395797848701477,-0.5480185151100159,-0.5132974982261658
-0.6356009840965271,-1.3287805318832397,0.45588579773902893,-0.07068639993667603,-0.430824875831604,-0.5327221155166626
-0.04134853184223175,-1.1636297702789307,0.06818263977766037,-0.0983479917049408,-0.3217393159866333,-0.4837712049484253
0.6583740711212158,-0.5959504246711731,-0.37779051065444946,-0.10354143381118774,-0.2444559931755066,-0.3830918073654175
1.0813870429992676,0.16873475909233093,-0.7005255222320557,-0.06858478486537933,-0.20728319883346558,-0.2020653486251831
1.0773789882659912,0.6555043458938599,-0.7087878584861755,-0.004414469003677368,-0.21676528453826904,-0.04583781957626343
0.7565774321556091,0.7388708591461182,-0.5013089776039124,0.05989652872085571,-0.2359510064125061,0.030210256576538086
0.44839537143707275,0.5342574715614319,-0.15110401809215546,0.11079997569322586,-0.2101873755455017,0.02642643451690674
0.19059409201145172,0.23970574140548706,0.15068040788173676,0.10385740548372269,-0.14852547645568848,0.005455672740936279
-0.04524818807840347,-0.058185577392578125,0.30331817269325256,0.06098661571741104,-0.10508465766906738,0.0070626139640808105
-0.13891011476516724,-0.06874288618564606,0.3572356104850769,0.02654416859149933,-0.09295779466629028,-0.0229874849319458
-0.09115368872880936,0.07680361717939377,0.37388893961906433,-0.001844659447669983,-0.08963704109191895,-0.06421971321105957
-0.0001787785440683365,0.13124635815620422,0.37135013937950134,-0.01949109137058258,-0.06664550304412842,-0.09707039594650269
0.12601833045482635,0.09525381028652191,0.30785900354385376,-0.04487942159175873,-0.02845621109008789,-0.10404056310653687
0.22875283658504486,0.08945412933826447,0.16796797513961792,-0.09246095269918442,0.007966339588165283,-0.06192493438720703
0.19001735746860504,0.16799134016036987,-0.031631674617528915,-0.11988482624292374,0.025952458381652832,0.0005771517753601074
0.0829118862748146,0.2245715707540512,-0.15654203295707703,-0.09562233090400696,0.005563318729400635,0.02126246690750122
0.06464529782533646,0.23701392114162445,-0.10909871757030487,-0.027596011757850647,0.005895495414733887,-0.02125418186187744
0.13588692247867584,0.1519060879945755,0.03323701396584511,0.021917186677455902,0.013783931732177734,-0.061767637729644775
0.23121725022792816,0.023387832567095757,0.1273750215768814,0.01657814532518387,0.04195612668991089,-0.0589749813079834
0.2786273658275604,-0.010362851433455944,0.1051081120967865,-0.018818728625774384,0.07075667381286621,-0.019080519676208496
0.2403591126203537,0.018943365663290024,-0.02252984419465065,-0.05976645648479462,0.09163004159927368,0.044292449951171875
0.1354925036430359,0.10628907382488251,-0.21923166513442993,-0.09563404321670532,0.0927686095237732,0.09726405143737793
0.02645723894238472,0.15115542709827423,-0.35410788655281067,-0.07789812982082367,0.09347736835479736,0.10838794708251953
0.047238074243068695,0.14040252566337585,-0.2707675099372864,-0.004153430461883545,0.0585518479347229,0.048227787017822266
0.10729613900184631,0.11302962899208069,-0.09378516674041748,0.03946942090988159,0.045439839363098145,-0.00031447410583496094
0.0793524906039238,0.03858160600066185,0.022173339501023293,0.03457013517618179,0.06487244367599487,0.0059095025062561035
0.025070389732718468,0.010324363596737385,-0.02428188920021057,-0.013645321130752563,0.09255087375640869,0.02620244026184082
0.032163023948669434,0.015484082512557507,-0.21674112975597382,-0.05705666542053223,0.12951791286468506,0.04554557800292969
0.13104958832263947,0.03142615780234337,-0.4346639811992645,-0.07289641350507736,0.14066648483276367,0.05227464437484741
0.32655948400497437,0.02580002322793007,-0.46253564953804016,0.006512407213449478,0.14313644170761108,0.012724101543426514
0.4052042067050934,-0.058157358318567276,-0.2920059859752655,0.10923323035240173,0.16897034645080566,0.020915627479553223
0.3037494122982025,-0.10390155017375946,-0.11695936322212219,0.12615656852722168,0.15826642513275146,0.07301467657089233
0.18096265196800232,-0.020305544137954712,-0.04306425899267197,0.07076841592788696,0.11798286437988281,0.10120093822479248
0.12846875190734863,0.009478497318923473,-0.0804782584309578,0.03597468510270119,0.12842488288879395,0.106292724609375
0.18003244698047638,-0.03680489957332611,-0.13073588907718658,0.032110363245010376,0.14281636476516724,0.08074718713760376
0.2235054224729538,-0.04563146457076073,-0.12508083879947662,0.04719606041908264,0.15108650922775269,0.0712999701499939
0.19891753792762756,-0.0030471780337393284,-0.09316157549619675,0.07465437054634094,0.17341673374176025,0.0805007815361023
0.17357492446899414,0.06585001945495605,-0.09734629839658737,0.07886973023414612,0.18540143966674805,0.07800692319869995
0.15633156895637512,0.1163327619433403,-0.17531082034111023,0.0672357976436615,0.19637799263000488,0.0814138650894165
0.14662086963653564,0.11173359304666519,-0.2601793110370636,0.05978876352310181,0.2020193338394165,0.09079986810684204
0.21084828674793243,0.10656657814979553,-0.24281619489192963,0.06955692172050476,0.1781461238861084,0.07187414169311523
0.25476309657096863,0.09298473596572876,-0.09329509735107422,0.10116276144981384,0.18048906326293945,0.06226569414138794
0.23412412405014038,0.09252578020095825,0.08148602396249771,0.12297877669334412,0.1825641393661499,0.05717664957046509
0.21260565519332886,0.1020895317196846,0.23169556260108948,0.1276654303073883,0.20323359966278076,0.05138683319091797
0.24483531713485718,0.09247537702322006,0.29626792669296265,0.09202775359153748,0.21109193563461304,0.04875296354293823
0.2974030375480652,0.07942092418670654,0.32536715269088745,0.048795849084854126,0.19243425130844116,0.06695926189422607
0.29273638129234314,0.03806692361831665,0.39461973309516907,0.023368924856185913,0.16489124298095703,0.10995739698410034
0.2088318169116974,-0.026181526482105255,0.4809875786304474,0.0055819787085056305,0.13693958520889282,0.1440797746181488
0.13086777925491333,-0.051630694419145584,0.5243505239486694,-0.012661870568990707,0.11217129230499268,0.1439160406589508
0.11204766482114792,-0.06210546940565109,0.4797228276729584,-0.029226958751678467,0.11464488506317139,0.12068688869476318
0.1706225723028183,-0.040562812238931656,0.3796592950820923,-0.04320722818374634,0.11180347204208374,0.09836983680725098
0.20299206674098969,-0.0077526564709842205,0.3009338080883026,-0.05915378779172897,0.08783656358718872,0.12038519978523254
0.1258237659931183,0.04111139848828316,0.27154141664505005,-0.07892385125160217,0.057673871517181396,0.16446322202682495
-0.1082921251654625,0.10169124603271484,0.2451499104499817,-0.09536805748939514,0.023780763149261475,0.21026408672332764
-0.38328322768211365,0.17383788526058197,0.17647770047187805,-0.11218038201332092,-0.010529756546020508,0.20613926649093628
-0.505595862865448,0.21734477579593658,0.06825955212116241,-0.08984196186065674,-0.014625787734985352,0.12437880039215088
-0.39237168431282043,0.21105514466762543,0.0017848694697022438,-0.044440269470214844,0.0024437904357910156,0.022283852100372314
-0.17651385068893433,0.19602082669734955,-0.03972715139389038,-0.024111509323120117,-0.0009558200836181641,-0.030866026878356934
-0.07376637309789658,0.19731417298316956,-0.04431812837719917,-0.008916489779949188,0.014877855777740479,-0.015342682600021362
-0.21099567413330078,0.22057384252548218,-0.07779358327388763,-0.020263485610485077,0.007469892501831055,0.036062657833099365
-0.43391114473342896,0.2406209260225296,-0.12836961448192596,-0.02818884700536728,-0.020599961280822754,0.036302387714385986
-0.45225265622138977,0.2154320776462555,-0.13185453414916992,-0.01356159895658493,-0.030775845050811768,-0.051628828048706055
-0.2959841787815094,0.1345645636320114,-0.0831885039806366,0.006043910980224609,-0.031008124351501465,-0.11561930179595947
-0.06852708756923676,0.0006658007623627782,-0.008128587156534195,0.014224350452423096,-0.03349041938781738,-0.13258975744247437
0.06263435631990433,-0.06729226559400558,0.04962030053138733,-0.00016949325799942017,-0.02763509750366211,-0.08814400434494019
0.05214608460664749,-0.08702535182237625,0.03920372202992439,-0.022303424775600433,-0.015386700630187988,-0.024594426155090332
-0.002239000052213669,-0.0558585561811924,0.011230038478970528,-0.027855724096298218,0.0029543638229370117,0.009112060070037842
-0.015160886570811272,-7.725384784862399e-05,0.009400870651006699,-0.02389857918024063,0.007623136043548584,0.006032288074493408
0.0001048143021762371,-0.023779872804880142,0.026986468583345413,-0.012951970100402832,0.0108870267868042,-0.0031502246856689453
0.053616225719451904,-0.06720466166734695,0.05190305411815643,-0.007324777543544769,0.024220824241638184,-0.014381110668182373
0.05747418478131294,-0.15235726535320282,0.03834431990981102,0.0012192130088806152,0.05021083354949951,0.0009364485740661621
0.055743973702192307,-0.20675072073936462,0.009976217523217201,0.006451308727264404,0.05759453773498535,0.021684885025024414
0.05712275579571724,-0.18689222633838654,-0.010694116353988647,0.008634060621261597,0.05950897932052612,0.04290056228637695
0.03291989490389824,-0.15776225924491882,-0.049813661724328995,0.0064574554562568665,0.06866240501403809,0.07608455419540405
0.009638077579438686,-0.11926419287919998,-0.06369107216596603,0.0032765567302703857,0.06845241785049438,0.09963178634643555
0.007886093109846115,-0.09543900936841965,-0.023843582719564438,0.0064758360385894775,0.058377087116241455,0.10695868730545044
0.08245350420475006,-0.09312274307012558,0.02645537443459034,0.013915367424488068,0.06753891706466675,0.07966381311416626
0.13525867462158203,-0.10921205580234528,0.01912737637758255,0.019163131713867188,0.12853384017944336,0.08735597133636475
0.09745986014604568,-0.07724390178918839,-0.04356066882610321,0.006562411785125732,0.16172713041305542,0.13256579637527466
0.030625369399785995,-0.0038763252086937428,-0.10719189792871475,-0.0023493394255638123,0.17251640558242798,0.16767317056655884
-0.026003781706094742,0.0911036804318428,-0.1567869782447815,-0.007279485464096069,0.1792469620704651,0.1794559359550476
-0.030050478875637054,0.10874340683221817,-0.21059636771678925,-0.005558311939239502,0.19575929641723633,0.16857677698135376
-0.0037056365981698036,0.07102173566818237,-0.2492874562740326,-0.0035896524786949158,0.20998471975326538,0.15550309419631958
-0.046793289482593536,-0.006411976180970669,-0.30265796184539795,-0.002091318368911743,0.22207391262054443,0.17150509357452393
-0.1580277979373932,-0.09726502001285553,-0.36336883902549744,-0.005960401147603989,0.2236384153366089,0.1938346028327942
-0.2822348177433014,-0.15597088634967804,-0.37760263681411743,0.006348341703414917,0.209669828414917,0.19286763668060303
-0.3141001760959625,-0.1312887966632843,-0.3245406150817871,0.03684470057487488,0.18131142854690552,0.14230138063430786
-0.1919596791267395,-0.024982931092381477,-0.23688043653964996,0.058100584894418716,0.17085200548171997,0.07876580953598022
-0.059570107609033585,0.061355989426374435,-0.15787190198898315,0.0636453926563263,0.1729639768600464,0.056555211544036865
-0.025486847385764122,0.06747059524059296,-0.13610519468784332,0.05493101850152016,0.16926813125610352,0.07332414388656616
-0.07031255215406418,-0.01368201244622469,-0.1213611364364624,0.03984755650162697,0.15036118030548096,0.09235548973083496
-0.15676571428775787,-0.16687403619289398,-0.09430470317602158,0.028875622898340225,0.12406343221664429,0.09917384386062622
-0.24125972390174866,-0.2683131694793701,-0.04221566393971443,0.03586864471435547,0.11212021112442017,0.09980559349060059
-0.26651808619499207,-0.23139865696430206,0.022600293159484863,0.042854730039834976,0.10505014657974243,0.09065359830856323
-0.21007724106311798,-0.14494095742702484,0.0652240663766861,0.03655943274497986,0.10273230075836182,0.07312613725662231
-0.10523684322834015,-0.07558488845825195,0.044493451714515686,0.016704708337783813,0.10836225748062134,0.057239413261413574
-0.01519190426915884,-0.1012473776936531,0.019754014909267426,0.011099159717559814,0.10257762670516968,0.05168497562408447
0.011948376893997192,-0.1037825345993042,-0.009969000704586506,0.007264111191034317,0.09349292516708374,0.06663268804550171
-0.0670236349105835,-0.042944855988025665,-0.02911536395549774,0.008775323629379272,0.06104534864425659,0.08791995048522949
-0.1223791092634201,0.09827116876840591,-0.009609095752239227,0.028697222471237183,0.017189860343933105,0.06903362274169922
0.011184178292751312,0.30361807346343994,0.08201301842927933,0.0802348256111145,-0.011455893516540527,-0.021175861358642578
0.32799002528190613,0.47286370396614075,0.1719929277896881,0.1020006537437439,-0.018612384796142578,-0.10020953416824341
0.538432776927948,0.5729358792304993,0.1632547229528427,0.054148998111486435,-0.016854584217071533,-0.08392411470413208
0.4688587188720703,0.5260241627693176,0.06002825126051903,-0.012604773044586182,-0.03644680976867676,-0.012143611907958984
0.1751267910003662,0.415791392326355,-0.021328123286366463,-0.043904125690460205,-0.06013435125350952,0.05227506160736084
-0.17489229142665863,0.2422899752855301,0.0018914495594799519,-0.039696723222732544,-0.09791040420532227,0.061064839363098145
-0.31950128078460693,0.04463701695203781,0.1307857781648636,-0.012642472982406616,-0.10886168479919434,-0.014733195304870605
-0.1215725839138031,-0.10722320526838303,0.24587370455265045,0.0015437901020050049,-0.08004438877105713,-0.12534397840499878
0.21560831367969513,-0.13408391177654266,0.2709435820579529,0.0030292868614196777,-0.025514066219329834,-0.16162776947021484
0.38747304677963257,-0.05793951824307442,0.1399463564157486,-0.04052489995956421,0.0032772421836853027,-0.10111254453659058
0.35972198843955994,0.018850568681955338,0.0028039487078785896,-0.05149975046515465,-0.00048065185546875,-0.026728391647338867
0.27498072385787964,0.021080635488033295,-0.024418771266937256,-0.03258529305458069,-0.045062124729156494,-0.0009331703186035156
0.2543013393878937,0.006556852720677853,0.0868355855345726,-0.010459750890731812,-0.08942723274230957,-0.0094376802444458
0.25333553552627563,0.0749935507774353,0.20231765508651733,-0.007944643497467041,-0.09822118282318115,-0.012442350387573242
0.20061737298965454,0.21357013285160065,0.17054031789302826,-0.04227566719055176,-0.07799923419952393,-0.005156397819519043
0.1395873874425888,0.2755071222782135,-0.00757965911179781,-0.08381059765815735,-0.05368638038635254,-0.024883389472961426
0.14288251101970673,0.14220649003982544,-0.12065663188695908,-0.06792953610420227,-0.047522544860839844,-0.06065267324447632
0.11548514664173126,-0.04858922213315964,-0.060688894242048264,-0.038010869175195694,-0.1059722900390625,-0.0673443078994751
-0.08899084478616714,-0.18315187096595764,0.13520629703998566,-0.00040059909224510193,-0.18486320972442627,-0.03803187608718872
-0.426016241312027,-0.03900793567299843,0.3356114625930786,-0.008688926696777344,-0.2571897506713867,-0.03519719839096069
-0.719488263130188,0.1253933310508728,0.3778506815433502,-0.05693754553794861,-0.29899561405181885,-0.12663328647613525
-0.6863187551498413,0.029923176392912865,0.3121698498725891,-0.07695150375366211,-0.2659880518913269,-0.28931158781051636
-0.3345060646533966,-0.2356831431388855,0.17106473445892334,-0.10869726538658142,-0.26508355140686035,-0.4133449196815491
-0.15014374256134033,-0.41779807209968567,0.04195188730955124,-0.116935133934021,-0.31216078996658325,-0.3748706579208374
-0.20002250373363495,-0.5412937998771667,0.008020980283617973,-0.08591911196708679,-0.36612480878829956,-0.28265631198883057
-0.3418551981449127,-0.5210571885108948,-0.08557725697755814,-0.08962607383728027,-0.3868182897567749,-0.2467978596687317
-0.3349257707595825,-0.48648127913475037,-0.2724301517009735,-0.11622795462608337,-0.391266405582428,-0.2820010185241699
-0.12681837379932404,-0.3913387954235077,-0.41685372591018677,-0.09614938497543335,-0.3753076195716858,-0.3329288959503174
-0.022255118936300278,-0.42899009585380554,-0.3190547227859497,0.003713846206665039,-0.3923705816268921,-0.2837030291557312
-0.21138735115528107,-0.506551206111908,0.048657357692718506,0.1021089255809784,-0.4083738327026367,-0.1459246277809143
-0.5595563054084778,-0.5775219798088074,0.28307121992111206,0.095229871571064,-0.39876729249954224,-0.03199738264083862
-0.8448125123977661,-0.545156717300415,0.2983933985233307,0.05400626361370087,-0.34472548961639404,0.00033909082412719727
-1.0082372426986694,-0.4244331121444702,0.25932374596595764,0.04297027736902237,-0.3056199550628662,-0.015806496143341064
-1.003528356552124,-0.17740465700626373,0.23592709004878998,0.035717666149139404,-0.252394437789917,-0.09524333477020264
-0.8185147643089294,-0.05323720723390579,0.15839220583438873,0.02264813333749771,-0.20555859804153442,-0.21805042028427124
-0.36330974102020264,0.03822633624076843,0.024728000164031982,0.003056168556213379,-0.18725484609603882,-0.36354494094848633
0.15756534039974213,0.14791390299797058,-0.1477426439523697,-0.017610102891921997,-0.18695539236068726,-0.41443103551864624
0.46146658062934875,0.16379766166210175,-0.2865094244480133,-0.01111389696598053,-0.1695358157157898,-0.3303714990615845
0.500110924243927,0.0736238956451416,-0.3159097135066986,0.01268737018108368,-0.1333916187286377,-0.16942822933197021
0.3271644711494446,-0.0023034503683447838,-0.32779648900032043,0.00886431336402893,-0.09268510341644287,-0.009439289569854736
0.0658150464296341,-0.022414689883589745,-0.3500969707965851,0.004996851086616516,-0.05393499135971069,0.08529764413833618
-0.06162751466035843,0.08757132291793823,-0.29675087332725525,0.038457393646240234,-0.03046441078186035,0.08479928970336914
-0.1473318338394165,0.22159123420715332,-0.19747492671012878,0.08056511729955673,-0.016542255878448486,0.06057614088058472
-0.2118610292673111,0.42122700810432434,-0.1744210571050644,0.07166881114244461,-0.02365010976791382,0.03026336431503296
-0.16207659244537354,0.6259666085243225,-0.13530667126178741,0.07430556416511536,-0.007361888885498047,-0.02732980251312256
-0.1328270137310028,0.7296817898750305,-0.02884627878665924,0.08477051556110382,0.006385505199432373,-0.07305002212524414
-0.11512801796197891,0.5321401953697205,0.10923867672681808,0.07753391563892365,-0.012058138847351074,-0.11440122127532959
0.023624539375305176,0.2650546729564667,0.21676461398601532,0.03434358537197113,-0.015393853187561035,-0.15368038415908813
0.17699018120765686,0.04653482139110565,0.16653938591480255,-0.02195984125137329,-0.001226961612701416,-0.14536863565444946
0.3097990155220032,-0.02122173085808754,0.03764576092362404,-0.04829610884189606,0.011530816555023193,-0.10021781921386719
0.4149005115032196,0.0436180904507637,-0.01926550455391407,-0.02997630462050438,0.017235994338989258,-0.043803274631500244
0.45512571930885315,0.12932373583316803,-0.013834366574883461,-0.003991659730672836,0.018461883068084717,0.01428920030593872
0.4262130856513977,0.18346893787384033,-0.014789797365665436,0.005818873643875122,0.029036879539489746,0.060305118560791016
0.34221187233924866,0.20927996933460236,-0.011148612946271896,0.008561402559280396,0.03534555435180664,0.08983385562896729
0.25244417786598206,0.18225263059139252,-0.02512163296341896,0.02224677801132202,0.057215750217437744,0.0994722843170166
0.25196635723114014,0.15479305386543274,-0.0251028910279274,0.03227093815803528,0.0738978385925293,0.08751583099365234
0.2907172739505768,0.15261968970298767,0.027666110545396805,0.03814995661377907,0.08630526065826416,0.08531224727630615
0.2640194296836853,0.14193248748779297,0.11885316669940948,0.046270642429590225,0.10026711225509644,0.10373908281326294
0.17805203795433044,0.11888240277767181,0.18152670562267303,0.03997638821601868,0.1055338978767395,0.10340237617492676
0.15048427879810333,0.06976769119501114,0.1749708652496338,0.026439040899276733,0.10275393724441528,0.07068943977355957
0.2314721941947937,0.02330786921083927,0.17034831643104553,0.022687166929244995,0.10335075855255127,0.03440821170806885
0.303093284368515,0.02157990075647831,0.1861126869916916,0.01908344030380249,0.10449397563934326,0.03598910570144653
0.275322824716568,0.041559889912605286,0.21744129061698914,0.01484006643295288,0.11301279067993164,0.0614093542098999
0.18647252023220062,0.04057837650179863,0.20967067778110504,0.009248018264770508,0.12753170728683472,0.07639658451080322
0.09990214556455612,0.018061207607388496,0.11417467892169952,0.004948318004608154,0.1554422378540039,0.07172989845275879
0.09637998789548874,-0.011339652352035046,0.0139392651617527,0.018653184175491333,0.17533648014068604,0.060482144355773926
0.17807579040527344,-0.06392847001552582,-0.018152199685573578,0.04169932007789612,0.191084623336792,0.05259549617767334
0.3544871509075165,-0.05091605708003044,0.007403417490422726,0.05080428719520569,0.19785070419311523,0.04399681091308594
0.4201025366783142,0.02756432071328163,0.02501860447227955,0.05370667949318886,0.23209017515182495,0.08757776021957397
0.27063682675361633,0.13874147832393646,-0.017384298145771027,0.04503735899925232,0.24089199304580688,0.14543700218200684
0.10974009335041046,0.15799933671951294,-0.06810606271028519,0.04344362020492554,0.23617655038833618,0.14877986907958984
0.16824942827224731,0.11170777678489685,-0.00043099699541926384,0.04979145526885986,0.20634740591049194,0.08299142122268677
0.40516921877861023,0.038515713065862656,0.1752704232931137,0.06425133347511292,0.18545937538146973,0.008260488510131836
0.5758073329925537,-0.07082056254148483,0.3560222089290619,0.08252811431884766,0.22569715976715088,0.01023489236831665
0.5479472279548645,-0.13693711161613464,0.41618987917900085,0.0497184693813324,0.2416406273841858,0.0722164511680603
0.39754754304885864,-0.10417921841144562,0.3657790720462799,-0.009361259639263153,0.21730798482894897,0.12308397889137268
0.28392380475997925,-0.09579043835401535,0.2829430103302002,-0.048781149089336395,0.18276554346084595,0.13008788228034973
0.2579852044582367,-0.09695608168840408,0.2326100766658783,-0.06797876209020615,0.1381371021270752,0.10885867476463318
0.20287981629371643,-0.09789273887872696,0.17829331755638123,-0.0595909059047699,0.12325096130371094,0.1044391393661499
0.11729224026203156,-0.05859764665365219,0.09175699204206467,-0.05401533097028732,0.11221826076507568,0.11613503098487854
0.049896035343408585,0.02229568175971508,0.016071343794465065,-0.050792545080184937,0.08349090814590454,0.12228560447692871
-0.015400910750031471,0.10102341324090958,-0.022265726700425148,-0.039274662733078,0.06590491533279419,0.12918221950531006
-0.08402969688177109,0.11701421439647675,-0.00180677673779428,-0.026929013431072235,0.044188618659973145,0.1292206346988678
-0.1333916187286377,0.09397127479314804,0.0503694973886013,-0.02152496576309204,0.023270010948181152,0.11938691139221191
-0.17583125829696655,0.03456994146108627,0.05779450386762619,-0.030601918697357178,0.02110123634338379,0.1098625659942627
-0.20101746916770935,0.027305305004119873,0.010623255744576454,-0.04070110619068146,0.02268308401107788,0.10068735480308533
-0.20527662336826324,0.09964481741189957,-0.05173797160387039,-0.04757305979728699,0.005031108856201172,0.09058129787445068
-0.19165419042110443,0.2121071070432663,-0.11615008115768433,-0.04331353306770325,-0.007194399833679199,0.07052648067474365
-0.18183699250221252,0.2519150674343109,-0.15877759456634521,-0.023066215217113495,-0.012843191623687744,0.04738292098045349
-0.1883024275302887,0.20415425300598145,-0.11114755272865295,0.012562960386276245,-0.021365761756896973,0.024769186973571777
-0.21737106144428253,0.13081955909729004,0.003173014149069786,0.035644590854644775,-0.03359556198120117,0.005773067474365234
-0.2528846859931946,0.06779708713293076,0.10735118389129639,0.042018987238407135,-0.028077125549316406,-0.015035092830657959
-0.23830419778823853,0.04577837139368057,0.16460557281970978,0.028086282312870026,-0.02225935459136963,-0.0402335524559021
-0.17049965262413025,0.04580718278884888,0.2070629745721817,0.009802259504795074,-0.01753479242324829,-0.05198472738265991
-0.0981064885854721,0.02619730867445469,0.22316332161426544,-0.00812908262014389,-0.0062732696533203125,-0.04668647050857544
-0.03170764073729515,0.007650323212146759,0.18096821010112762,-0.028623640537261963,0.011941671371459961,-0.027455270290374756
-0.009751520119607449,0.022020623087882996,0.07610814273357391,-0.05025389790534973,0.03365921974182129,0.004876852035522461
-0.018171552568674088,0.03096754476428032,-0.052928660064935684,-0.05442354083061218,0.03538459539413452,0.02324533462524414
0.00323123624548316,0.029064172878861427,-0.11338061094284058,-0.025519952178001404,0.030678391456604004,0.020700395107269287
0.05392809584736824,0.03112448751926422,-0.06929315626621246,0.009598582983016968,0.018826603889465332,0.016108155250549316
0.08204767107963562,0.011099155992269516,-0.02169094979763031,0.02018788456916809,0.026747465133666992,0.030400633811950684
0.055472057312726974,-0.007437987253069878,-0.03345537558197975,0.01628202199935913,0.05815035104751587,0.061089515686035156
0.011707212775945663,0.018230797722935677,-0.09779577702283859,0.010708063840866089,0.0866776704788208,0.08349686861038208
0.002181488089263439,0.08322456479072571,-0.15874457359313965,0.014093220233917236,0.10078799724578857,0.09388595819473267
0.0020160633139312267,0.18813440203666687,-0.1952982097864151,0.020263858139514923,0.10691940784454346,0.09896546602249146
0.017734965309500694,0.3106590807437897,-0.18899701535701752,0.036607325077056885,0.1181100606918335,0.09037172794342041
0.0739903375506401,0.3721103370189667,-0.13660381734371185,0.06128990650177002,0.14854049682617188,0.06666111946105957
0.17815575003623962,0.32714179158210754,-0.038099490106105804,0.08128053694963455,0.18327194452285767,0.04687952995300293
0.29115915298461914,0.2306886464357376,0.11256523430347443,0.0765727162361145,0.20721036195755005,0.04347562789916992
0.30507907271385193,0.11114640533924103,0.17986062169075012,0.03142109513282776,0.23247933387756348,0.08747309446334839
0.20856796205043793,0.000889287912286818,0.13251064717769623,-0.021690666675567627,0.2506227493286133,0.14029282331466675
0.08456865698099136,-0.10567666590213776,-0.01732480898499489,-0.06254279613494873,0.252673864364624,0.16342675685882568
0.038568682968616486,-0.20807242393493652,-0.18067163228988647,-0.06742185354232788,0.2477380633354187,0.14901167154312134
0.07199640572071075,-0.29019883275032043,-0.3038519322872162,-0.04501992464065552,0.24025768041610718,0.13283967971801758
0.15579289197921753,-0.28415292501449585,-0.3535947799682617,-0.0031860768795013428,0.22361648082733154,0.12521690130233765
0.1957646906375885,-0.15684637427330017,-0.3167780935764313,0.024129189550876617,0.20390629768371582,0.14587923884391785
0.08428170531988144,-0.0025735071394592524,-0.2589170038700104,0.021345138549804688,0.17978382110595703,0.1910097599029541
-0.1569848507642746,0.13729755580425262,-0.22548355162143707,0.012205898761749268,0.16388630867004395,0.22253543138504028
-0.35461878776550293,0.17641787230968475,-0.2188718467950821,0.0020234286785125732,0.15205645561218262,0.19321894645690918
-0.3879510462284088,0.14429925382137299,-0.22456982731819153,0.004234939813613892,0.147161066532135,0.1172066330909729
-0.28361889719963074,0.08196166902780533,-0.1945854127407074,0.03342989459633827,0.1493855118751526,0.04373624920845032
-0.08168844878673553,-0.03219865262508392,-0.10735547542572021,0.0631648600101471,0.14053714275360107,-0.004326581954956055
0.0502580963075161,-0.15025414526462555,-0.011153966188430786,0.06402534246444702,0.1255784034729004,0.014057576656341553
0.05473870784044266,-0.23957160115242004,0.02892119064927101,0.034503281116485596,0.10848140716552734,0.06337642669677734
-0.003396685468032956,-0.26019003987312317,-0.016174910590052605,-0.002752002328634262,0.09801936149597168,0.10119229555130005
-0.09176234155893326,-0.2005031704902649,-0.09346480667591095,-0.013247072696685791,0.07545042037963867,0.11856973171234131
-0.14216317236423492,-0.1015254557132721,-0.1101895347237587,0.016728077083826065,0.05947834253311157,0.09982645511627197
-0.16102570295333862,-0.015928011387586594,-0.03420882299542427,0.04873239994049072,0.04737454652786255,0.07880991697311401
-0.14048728346824646,0.0768623873591423,0.011923663318157196,0.03565528988838196,0.035926103591918945,0.06452429294586182
-0.168241947889328,0.16630253195762634,0.0031291055493056774,0.002404306083917618,0.04228562116622925,0.07120722532272339
-0.2055022418498993,0.1853271722793579,-0.07928825914859772,-0.04104536771774292,0.03062725067138672,0.06267517805099487
-0.1719081699848175,0.13918985426425934,-0.13677649199962616,-0.03661203384399414,0.053984761238098145,0.02579784393310547
-0.18915162980556488,0.02961500734090805,-0.12329200655221939,0.009369969367980957,0.08739513158798218,0.009744346141815186
-0.2116813212633133,-0.12402505427598953,-0.07616642117500305,0.03192901611328125,0.06450200080871582,0.01461857557296753
-0.21777957677841187,-0.060130324214696884,-0.13694782555103302,-0.018079549074172974,0.0003173351287841797,0.024380087852478027
-0.22755533456802368,0.06121214106678963,-0.32742562890052795,-0.04703771695494652,-0.050974130630493164,0.016699492931365967
-0.14844472706317902,0.062094852328300476,-0.4340178370475769,0.006714941933751106,-0.08947205543518066,-0.03936988115310669
0.014255935326218605,0.12110420316457748,-0.3937933146953583,0.060079753398895264,-0.1313725709915161,-0.07904541492462158
0.11226468533277512,0.33163753151893616,-0.28698965907096863,0.06527915596961975,-0.19057196378707886,-0.06442230939865112
0.04379129409790039,0.7742552757263184,-0.24872544407844543,0.03027936816215515,-0.23850184679031372,-0.0324629545211792
-0.11463877558708191,1.0840986967086792,-0.28398215770721436,0.008289605379104614,-0.23931634426116943,-0.06093478202819824
-0.3533567190170288,0.9809154272079468,-0.28769057989120483,0.022140443325042725,-0.24950838088989258,-0.11019158363342285
-0.5532713532447815,0.8003388047218323,-0.16849452257156372,0.059583839029073715,-0.28397369384765625,-0.17968648672103882
-0.8129500150680542,0.9205730557441711,-0.06249500438570976,0.07806149125099182,-0.3260677456855774,-0.2127699851989746
-1.0281121730804443,1.0359978675842285,0.01688229665160179,0.05889420956373215,-0.39391326904296875,-0.2567674517631531
-0.9001030921936035,0.923680305480957,0.14921510219573975,0.0267537459731102,-0.45578157901763916,-0.4249045252799988
-0.35912585258483887,0.23321744799613953,0.4200272262096405,0.06195690482854843,-0.42798858880996704,-0.6167197227478027
0.23767615854740143,-0.5853813886642456,0.45386412739753723,0.03609906882047653,-0.3424869179725647,-0.6453123688697815
0.6590655446052551,-0.9276604056358337,0.23562131822109222,-0.053733713924884796,-0.33342474699020386,-0.48906248807907104
0.8408837914466858,-0.7591127157211304,0.03964636102318764,-0.05289763584733009,-0.35811007022857666,-0.2917656898498535
0.7549688220024109,-0.33884868025779724,-0.04247390851378441,-0.026487290859222412,-0.3877146244049072,-0.127707839012146
0.4591280221939087,0.21875590085983276,-0.05091195926070213,-0.0015417300164699554,-0.4155309200286865,-0.04568207263946533
0.05615952983498573,0.5776740908622742,-0.09338831156492233,0.027006059885025024,-0.4217861294746399,-0.05754566192626953
-0.17892158031463623,0.5584109425544739,-0.15239310264587402,0.0466536246240139,-0.415729820728302,-0.16998571157455444
-0.2318744659423828,0.23666949570178986,-0.14510394632816315,0.09060019254684448,-0.3834723234176636,-0.27142977714538574
-0.17413385212421417,-0.21486859023571014,-0.06452620029449463,0.12944859266281128,-0.34263306856155396,-0.321571946144104
-0.09738536179065704,-0.5067362189292908,0.06788076460361481,0.16110047698020935,-0.3127245306968689,-0.3140375018119812
-0.008089525625109673,-0.49306032061576843,0.13781999051570892,0.14810416102409363,-0.29410070180892944,-0.27425849437713623
0.12174196541309357,-0.28411704301834106,0.036889683455228806,0.11205935478210449,-0.2651837468147278,-0.22706300020217896
0.29103028774261475,0.020299706608057022,-0.08908919245004654,0.09667643904685974,-0.22306549549102783,-0.1726057529449463
0.3989826440811157,0.23107972741127014,-0.09374962002038956,0.10505980253219604,-0.18718194961547852,-0.09967207908630371
0.3835691213607788,0.2558390200138092,0.11366099864244461,0.12592482566833496,-0.17424964904785156,-0.03548431396484375
0.16922345757484436,0.13118483126163483,0.4087284803390503,0.11564368009567261,-0.14656823873519897,0.02109968662261963
-0.21960626542568207,-0.14818869531154633,0.5785224437713623,0.07274162769317627,-0.10879099369049072,0.04878109693527222
-0.5099850296974182,-0.4252639412879944,0.45664510130882263,-0.002081397920846939,-0.08281278610229492,0.012727200984954834
-0.5686105489730835,-0.5950325131416321,0.22587105631828308,-0.026479661464691162,-0.049039602279663086,-0.037440478801727295
-0.48344576358795166,-0.5973840951919556,0.02594117261469364,-0.007968306541442871,-0.013276338577270508,-0.04951035976409912
-0.26641979813575745,-0.45889294147491455,-0.0026220050640404224,0.037344276905059814,-0.01101452112197876,-0.04550296068191528
-0.06726355105638504,-0.07338069379329681,0.17723298072814941,0.08725008368492126,-0.031066179275512695,-0.026917994022369385
-0.08977619558572769,0.3354542851448059,0.3781219720840454,0.10256314277648926,-0.04706871509552002,0.004112064838409424
-0.13115987181663513,0.6298937797546387,0.40585967898368835,0.047026216983795166,-0.03978264331817627,-0.021962463855743408
0.006273920182138681,0.6300442218780518,0.30583155155181885,-0.011205852031707764,0.00812995433807373,-0.07721579074859619
0.2888377606868744,0.30436384677886963,0.17435190081596375,-0.024956226348876953,0.07918238639831543,-0.08778256177902222
0.5479516983032227,-0.080149807035923,0.09121423959732056,-0.029507547616958618,0.13485121726989746,-0.012527942657470703
0.4826938807964325,-0.17252907156944275,0.11265572160482407,-0.021643787622451782,0.1379132866859436,0.11719375848770142
0.07014431804418564,-0.14495542645454407,0.16409391164779663,0.014894574880599976,0.11283600330352783,0.2005857229232788
-0.29013100266456604,-0.0827404111623764,0.20785552263259888,0.020640581846237183,0.07656210660934448,0.19197559356689453
-0.21917594969272614,0.08293206989765167,0.22699864208698273,0.0017768442630767822,0.085202157497406,0.09676730632781982
-0.08819394558668137,0.2595958411693573,0.20152997970581055,-0.00704154372215271,0.13887345790863037,0.05263543128967285
-0.29016074538230896,0.2566037178039551,0.05365433916449547,-0.021576493978500366,0.1418226957321167,0.08115500211715698
-0.5087325572967529,0.27423033118247986,-0.09115085005760193,-0.018276840448379517,0.12134933471679688,0.04824423789978027
-0.41096070408821106,0.2770997881889343,-0.1056758314371109,0.019604802131652832,0.11198413372039795,-0.051970481872558594
-0.0826444923877716,0.19415432214736938,0.010220618918538094,0.05987393856048584,0.12777495384216309,-0.11302101612091064
0.1641520857810974,0.06776870787143707,0.14304758608341217,0.062008172273635864,0.1604582667350769,-0.07209700345993042
0.13587363064289093,-0.0013725149910897017,0.18019501864910126,0.02229839563369751,0.18730980157852173,0.0250435471534729
-0.0697207823395729,0.0372653491795063,0.09713394194841385,-0.020717084407806396,0.2061011791229248,0.0896451473236084
-0.11978523433208466,0.048728153109550476,-0.045472402125597,-0.03111475706100464,0.20599865913391113,0.06812208890914917
0.09751617163419724,0.01583956554532051,-0.07818258553743362,0.005837797187268734,0.20925545692443848,0.008125126361846924
0.43328508734703064,-0.08782990276813507,0.011444352567195892,0.040037959814071655,0.19869863986968994,-0.02288198471069336
0.6707530617713928,-0.18949851393699646,0.1598387360572815,0.05910229682922363,0.19079989194869995,-0.00011104345321655273
0.6634405255317688,-0.24951456487178802,0.26208779215812683,0.06414416432380676,0.21292954683303833,0.07020652294158936
0.48402535915374756,-0.2598918080329895,0.2916119396686554,0.060189276933670044,0.2326478362083435,0.12517982721328735
0.3503822088241577,-0.21637749671936035,0.296376496553421,0.04859164357185364,0.2276545763015747,0.12699079513549805
0.36855635046958923,-0.17712576687335968,0.31559476256370544,0.044129401445388794,0.22019660472869873,0.09746962785720825
0.46326687932014465,-0.17139685153961182,0.3472326397895813,0.041757017374038696,0.21917688846588135,0.08156335353851318
0.4937138557434082,-0.16631099581718445,0.3712471127510071,0.03365892916917801,0.2155975103378296,0.10274267196655273
0.4212329089641571,-0.1667601764202118,0.33774036169052124,0.007707357406616211,0.20746243000030518,0.1412808895111084
0.2813357412815094,-0.14437289535999298,0.24680472910404205,-0.019300423562526703,0.19803571701049805,0.1752522587776184
0.12059763818979263,-0.06353779137134552,0.14497028291225433,-0.042690567672252655,0.16636765003204346,0.1904911994934082
-0.020344017073512077,0.011477743275463581,0.046825505793094635,-0.05575200915336609,0.13278746604919434,0.1918250322341919
-0.0910949781537056,0.051902566105127335,-0.023937836289405823,-0.052803151309490204,0.10941183567047119,0.17049729824066162
-0.09963585436344147,0.015278751030564308,-0.07872192561626434,-0.045929670333862305,0.08583897352218628,0.1455756425857544
-0.07450761646032333,-0.0374152697622776,-0.10865610837936401,-0.04236727952957153,0.05852806568145752,0.13010144233703613
-0.08959120512008667,-0.02509450353682041,-0.13761933147907257,-0.05133301019668579,0.02568185329437256,0.13578027486801147
-0.19054538011550903,0.06361202150583267,-0.1786837875843048,-0.0603310689330101,0.007822513580322266,0.14895153045654297
-0.29576054215431213,0.18434974551200867,-0.22599174082279205,-0.060326606035232544,-0.0037820935249328613,0.13083481788635254
-0.3089986741542816,0.25581127405166626,-0.2544548511505127,-0.048256099224090576,-0.014766454696655273,0.08021748065948486
-0.27405744791030884,0.2515707314014435,-0.2774862051010132,-0.029750406742095947,-0.0036028623580932617,0.033036112785339355
-0.21262091398239136,0.17995481193065643,-0.28918594121932983,-0.013340894132852554,0.002496004104614258,-0.0007874369621276855
-0.11540023982524872,0.11510100215673447,-0.2559329867362976,7.373467087745667e-05,-0.0015239119529724121,-0.026247859001159668
-0.07266081869602203,0.08106794953346252,-0.1983579844236374,0.006372272968292236,-0.009081125259399414,-0.02573263645172119
-0.10934771597385406,0.0664348378777504,-0.140064999461174,0.001660497859120369,-0.012550115585327148,-0.012485086917877197
-0.15431995689868927,0.04541532322764397,-0.09406281262636185,0.001519354060292244,-0.009344696998596191,-0.01822817325592041
-0.142966628074646,0.04562171921133995,-0.0638822689652443,0.006116392090916634,-0.0011936426162719727,-0.050695061683654785
0.030565351247787476,0.0065961917862296104,-0.05312618613243103,0.011390388011932373,0.01629793643951416,-0.10726988315582275
0.34471485018730164,-0.10994857549667358,-0.05411556363105774,0.007741570472717285,0.02453392744064331,-0.1455293893814087
0.4678601622581482,-0.21380946040153503,-0.07659703493118286,-0.00600019097328186,0.020729541778564453,-0.07681304216384888
0.39341962337493896,-0.2291886955499649,-0.08231239020824432,-0.012205421924591064,0.017950773239135742,0.018854856491088867
0.23467299342155457,-0.1847372055053711,-0.07347977161407471,-0.012227684259414673,0.02532029151916504,0.08327913284301758
0.09000392258167267,-0.13218718767166138,-0.059523411095142365,-0.009929656982421875,0.041110873222351074,0.10618162155151367
-0.0047222827561199665,-0.0704745501279831,-0.041162051260471344,-0.006065813824534416,0.062042415142059326,0.10864931344985962
-0.12704364955425262,0.008915684185922146,-0.032865818589925766,-0.008191941305994987,0.08205574750900269,0.11072486639022827
-0.2654989957809448,0.058582503348588943,-0.045025233179330826,-0.01320609450340271,0.10066688060760498,0.10098278522491455
-0.3192515969276428,0.06333968043327332,-0.0844031348824501,-0.021680833771824837,0.11530756950378418,0.0657452940940857
-0.25343796610832214,-0.01073454413563013,-0.13905252516269684,-0.021611690521240234,0.1348310112953186,0.02873361110687256
-0.08085359632968903,-0.14539606869220734,-0.1972859799861908,-0.008178502321243286,0.1702093482017517,0.010418117046356201
0.0789237692952156,-0.26001325249671936,-0.2307167798280716,-0.003668844699859619,0.19329583644866943,0.031901001930236816
0.144154354929924,-0.3349084258079529,-0.2440456748008728,-0.008247165940701962,0.1912938356399536,0.08993929624557495
0.1427643895149231,-0.3381647765636444,-0.23429188132286072,-0.023485541343688965,0.17698097229003906,0.14431357383728027
0.07350624352693558,-0.2792552411556244,-0.23947395384311676,-0.03590035438537598,0.1744370460510254,0.18604552745819092
-0.006433689035475254,-0.25396594405174255,-0.2821454703807831,-0.033649832010269165,0.17910009622573853,0.1973819136619568
0.03394316881895065,-0.29638803005218506,-0.30564436316490173,-0.021047085523605347,0.1764623522758484,0.16708093881607056
0.12085284292697906,-0.3057115077972412,-0.2803376019001007,-0.01163935661315918,0.16461002826690674,0.15790128707885742
0.12271130830049515,-0.2727685272693634,-0.25215017795562744,-0.008374005556106567,0.15655303001403809,0.18952345848083496
0.003575652837753296,-0.16444222629070282,-0.2347107082605362,-9.5367431640625e-07,0.17881160974502563,0.22086000442504883
-0.12616412341594696,-0.12925367057323456,-0.2376740276813507,0.015608459711074829,0.21129852533340454,0.2062177062034607
-0.12750117480754852,-0.18833598494529724,-0.22746416926383972,0.039141446352005005,0.23116087913513184,0.1518869400024414
0.02666938491165638,-0.2890215516090393,-0.16152095794677734,0.05105644464492798,0.22952312231063843,0.1098562479019165
0.18124014139175415,-0.34095507860183716,-0.11296787112951279,0.023725956678390503,0.2095503807067871,0.1352747678756714
0.22075864672660828,-0.28332841396331787,-0.09728588163852692,-0.005187630653381348,0.1983811855316162,0.1934489607810974
0.08793603628873825,-0.16172096133232117,-0.1088344007730484,-0.022837579250335693,0.19128423929214478,0.24910062551498413
-0.14734061062335968,-0.06947184354066849,-0.10277906805276871,-0.022090405225753784,0.15563654899597168,0.2650143504142761
-0.2721935510635376,-0.018747873604297638,0.0060551525093615055,0.021605253219604492,0.09725123643875122,0.19756841659545898
-0.19981470704078674,-0.02905477024614811,0.14267747104167938,0.05551046133041382,0.056083619594573975,0.08398246765136719
-0.036510445177555084,-0.08611711114645004,0.2030818611383438,0.07223498821258545,0.04980736970901489,0.0038579702377319336
-0.02266404777765274,-0.16896657645702362,0.17172662913799286,0.061423927545547485,0.06999582052230835,0.020181655883789062
-0.22585250437259674,-0.2161628156900406,0.062465932220220566,0.012430399656295776,0.04493683576583862,0.0847012996673584
-0.4058251976966858,-0.23409323394298553,-0.014528356492519379,-0.021919161081314087,-0.012266457080841064,0.08925819396972656
-0.3693539798259735,-0.11812927573919296,-0.010237589478492737,-0.010146645829081535,-0.052417755126953125,0.0070795416831970215
-0.18289805948734283,-0.03735758736729622,-0.006286350078880787,0.03874513506889343,-0.06885451078414917,-0.08515119552612305
0.14091932773590088,-0.03935231640934944,0.00765129504725337,0.07467067241668701,-0.07253766059875488,-0.14214098453521729
0.48142433166503906,-0.10843488574028015,-0.005481927189975977,0.058307915925979614,-0.06336557865142822,-0.13974088430404663
0.707110583782196,-0.19477012753486633,-0.08110413700342178,0.014053195714950562,-0.01888406276702881,-0.07135283946990967
0.7186217904090881,-0.2417907863855362,-0.1405169665813446,-0.011607438325881958,0.010812759399414062,0.03244054317474365
0.4904882311820984,-0.16766893863677979,-0.16913890838623047,-0.02675914578139782,-0.04090070724487305,0.12255656719207764
0.07258767634630203,0.025304054841399193,-0.17272436618804932,-0.04859247803688049,-0.11013329029083252,0.16321659088134766
-0.336208313703537,0.2488289475440979,0.011778082698583603,-0.0038081705570220947,-0.16867578029632568,0.12813222408294678
-0.4818689227104187,0.20354951918125153,0.27271568775177,0.048720329999923706,-0.15308541059494019,0.012453854084014893
-0.38241997361183167,-0.04717125743627548,0.3760932683944702,0.01718861050903797,-0.11244219541549683,-0.0917019248008728
-0.24011169373989105,-0.46996012330055237,0.2333775758743286,-0.05042573809623718,-0.09217202663421631,-0.15057015419006348
-0.22259286046028137,-0.7422427535057068,0.001095146406441927,-0.05140453577041626,-0.10978823900222778,-0.18788880109786987
-0.11408422887325287,-0.45385122299194336,0.03346085920929909,0.026773601770401,-0.1942378282546997,-0.25853097438812256
0.016270015388727188,0.1246744841337204,0.21137987077236176,0.07219210267066956,-0.2924622893333435,-0.31672364473342896
0.1351466029882431,0.36250177025794983,0.26632723212242126,0.05803019553422928,-0.2917601466178894,-0.3192737102508545
0.22547060251235962,0.2959762513637543,0.14787815511226654,0.005295220762491226,-0.22890311479568481,-0.26988309621810913
0.22361937165260315,0.2849390208721161,-0.07422656565904617,-0.05487686023116112,-0.20683515071868896,-0.18146753311157227
0.1304534673690796,0.16210545599460602,-0.24868033826351166,-0.014016568660736084,-0.1962275505065918,-0.12240123748779297
0.15429861843585968,0.08073317259550095,-0.18163850903511047,0.08590799570083618,-0.20807260274887085,-0.18331986665725708
0.3722372055053711,0.14582519233226776,0.1377319097518921,0.143975168466568,-0.2652462124824524,-0.2762541174888611
0.4554004967212677,0.12060345709323883,0.28880593180656433,0.06520414352416992,-0.29154694080352783,-0.26059597730636597
0.382405161857605,0.011892376467585564,0.10524386912584305,-0.06934541463851929,-0.26344728469848633,-0.1891760230064392
0.15519799292087555,0.029122108593583107,-0.24197325110435486,-0.16215232014656067,-0.24628275632858276,-0.10844779014587402
-0.20268160104751587,0.08826646208763123,-0.4659264385700226,-0.13004544377326965,-0.3002462387084961,-0.0460471510887146
-0.4328523576259613,0.3848564028739929,-0.29913806915283203,0.030170084908604622,-0.3547026515007019,-0.09398913383483887
-0.4699319005012512,0.5687692761421204,0.15585599839687347,0.1794000267982483,-0.4028240442276001,-0.21116727590560913
-0.533096432685852,0.40016478300094604,0.5731014013290405,0.19826164841651917,-0.38354676961898804,-0.26964688301086426
-0.6838153004646301,0.013421088457107544,0.6516920328140259,0.09175276756286621,-0.3455911874771118,-0.27432429790496826
-0.7831172347068787,-0.21061185002326965,0.4191545844078064,0.005513783544301987,-0.31117749214172363,-0.2690069079399109
-0.696782112121582,-0.2896398901939392,0.21799255907535553,0.021131813526153564,-0.2943692207336426,-0.30054211616516113
-0.41059422492980957,-0.2685146927833557,0.2172601819038391,0.09653431177139282,-0.2736663222312927,-0.34468334913253784
-0.16969722509384155,-0.16143210232257843,0.24829426407814026,0.11828720569610596,-0.23658454418182373,-0.2970951199531555
-0.02365679293870926,0.09380435198545456,0.09692244231700897,0.03767630457878113,-0.2082078456878662,-0.2057199478149414
-0.004155786242336035,0.3185022473335266,-0.2568829655647278,-0.05045565590262413,-0.19233638048171997,-0.11426419019699097
-0.09266466647386551,0.38340359926223755,-0.6323273777961731,-0.07021185755729675,-0.1708146333694458,-0.042627573013305664
-0.1738412231206894,0.4007299542427063,-0.7779913544654846,0.00017586536705493927,-0.16070324182510376,-0.030249834060668945
-0.23251889646053314,0.42851361632347107,-0.5699992179870605,0.11639085412025452,-0.17551857233047485,-0.05516242980957031
-0.33284837007522583,0.4365948736667633,-0.205543652176857,0.16436347365379333,-0.18608802556991577,-0.08150315284729004
-0.3485383987426758,0.3427170515060425,0.08274917304515839,0.13608050346374512,-0.1504327654838562,-0.11900842189788818
-0.1784513145685196,0.21724216639995575,0.12339659780263901,0.03865468502044678,-0.0882139801979065,-0.1407114863395691
0.023892130702733994,0.07869365811347961,-0.008325533010065556,-0.04155084490776062,-0.026663541793823242,-0.09532201290130615
0.03641032055020332,0.05904005467891693,-0.15696106851100922,-0.07904988527297974,-0.003226339817047119,0.0053601861000061035
-0.20502662658691406,0.10512176901102066,-0.17736996710300446,-0.0616532564163208,-0.013905107975006104,0.09224021434783936
-0.5309768319129944,0.1124342605471611,-0.08171986788511276,-0.02059701271355152,-0.04019874334335327,0.09028595685958862
-0.6159965395927429,0.06824631989002228,0.04486570134758949,0.018927721306681633,-0.05248618125915527,-0.0025194287300109863
-0.3590754270553589,-0.01937463879585266,0.16786445677280426,0.050254374742507935,-0.019156813621520996,-0.09736716747283936
0.047605693340301514,-0.07651179283857346,0.1784532219171524,0.016867488622665405,0.02174198627471924,-0.11150574684143066
