rotation_x,rotation_y,rotation_z,acceleration_x,acceleration_y,acceleration_z
0.11530634015798569,-0.06064402312040329,-0.19030267000198364,-0.05031047761440277,0.03855752944946289,-0.02897542715072632
-0.10579854995012283,0.11392369866371155,-0.3572288453578949,-0.08792710304260254,0.014461755752563477,0.06374382972717285
-0.2963786721229553,0.08274988830089569,-0.37739503383636475,-0.035712867975234985,-0.010015904903411865,0.058147579431533813
-0.3108014166355133,-0.08555001020431519,-0.24680569767951965,0.03545747697353363,-0.020192384719848633,-0.003535538911819458
-0.1899379938840866,-0.21794521808624268,-0.09597216546535492,0.06990329921245575,-0.012297630310058594,-0.04563671350479126
-0.035228632390499115,-0.1707821786403656,-0.0031470239628106356,0.07064205408096313,0.001201033592224121,-0.0409429669380188
0.04783042520284653,0.019421692937612534,0.026096440851688385,0.05030961334705353,0.0073539018630981445,-5.125999450683594e-06
0.006066623609513044,0.143907368183136,0.023984037339687347,0.03215910494327545,0.002321004867553711,0.04663616418838501
-0.11344010382890701,0.15921056270599365,0.03358887881040573,0.029527440667152405,0.010883450508117676,0.06833988428115845
-0.18821267783641815,0.07107464969158173,0.08423248678445816,0.03361289203166962,0.003621518611907959,0.05266851186752319
-0.17810781300067902,0.003518341574817896,0.13001109659671783,0.03889551758766174,0.025639891624450684,0.02115154266357422
-0.14130069315433502,-0.017051877453923225,0.14652489125728607,0.04448390007019043,0.050179481506347656,0.022086799144744873
-0.0897325649857521,0.047579891979694366,0.11127671599388123,0.027460306882858276,0.0500677227973938,0.026830345392227173
-0.02648491971194744,0.15868660807609558,0.03250926360487938,0.015059635043144226,0.06229674816131592,0.03740760684013367
-0.045847922563552856,0.21342454850673676,-0.018786564469337463,0.018236085772514343,0.06635117530822754,0.07287558913230896
-0.11304767429828644,0.27018892765045166,-0.029191315174102783,0.021897107362747192,0.05953294038772583,0.0950593650341034
-0.08960875123739243,0.2980636954307556,0.041843023151159286,0.0392112135887146,0.06047403812408447,0.0675976574420929
-0.011119970120489597,0.23458249866962433,0.09140718728303909,0.051396191120147705,0.08966726064682007,0.03265184164047241
0.049891453236341476,0.14051325619220734,0.08268693089485168,0.05371864140033722,0.1416640281677246,0.04448807239532471
0.06591169536113739,0.12587492167949677,0.011303829029202461,0.034096211194992065,0.16481304168701172,0.07968655228614807
0.02304476872086525,0.19234775006771088,-0.05474045127630234,0.027409270405769348,0.16819912195205688,0.12869364023208618
-0.08120027184486389,0.29379090666770935,-0.09637560695409775,0.023429840803146362,0.15684163570404053,0.16251352429389954
-0.18115559220314026,0.38889676332473755,-0.08316479623317719,0.03679056465625763,0.15384900569915771,0.15347561240196228
-0.2104933261871338,0.36566200852394104,-0.01900840550661087,0.06854383647441864,0.1708890199661255,0.10563921928405762
-0.18822094798088074,0.26151034235954285,0.03243255615234375,0.08063557744026184,0.19838905334472656,0.06932508945465088
-0.15556898713111877,0.2175476998090744,0.034169044345617294,0.05989551544189453,0.22387641668319702,0.07841217517852783
-0.15995916724205017,0.2493123859167099,-0.03100629337131977,0.020679332315921783,0.21427875757217407,0.11331817507743835
-0.1959909200668335,0.34418728947639465,-0.11889823526144028,0.000856347382068634,0.19965630769729614,0.1348572075366974
-0.2380814105272293,0.4819389283657074,-0.17711353302001953,0.007934629917144775,0.18638652563095093,0.12301081418991089
-0.2475001960992813,0.5658301115036011,-0.14814355969429016,0.04384373128414154,0.18134480714797974,0.0723186731338501
-0.19118237495422363,0.5402488112449646,-0.07891516387462616,0.06927291303873062,0.19371896982192993,0.020013898611068726
-0.0758068636059761,0.45248350501060486,-0.019041061401367188,0.07218313217163086,0.1981562376022339,-0.012320637702941895
0.03429535776376724,0.34838470816612244,0.03369366377592087,0.049105674028396606,0.1879984736442566,-0.0024938583374023438
0.013296111486852169,0.2819530665874481,0.0655079036951065,0.017053820192813873,0.17056673765182495,0.04833659529685974
-0.15914523601531982,0.16425098478794098,0.08005262911319733,-0.002369999885559082,0.1614851951599121,0.10386288166046143
-0.37029629945755005,0.0769713968038559,0.06243177130818367,-0.020550228655338287,0.14561998844146729,0.12047415971755981
-0.440790057182312,0.05051645264029503,0.03652862459421158,-0.008921675384044647,0.1385568380355835,0.0734284520149231
-0.30932480096817017,0.086461640894413,-0.009640535339713097,0.006195135414600372,0.15109163522720337,0.006344735622406006
-0.1015114113688469,0.17698250710964203,-0.06933644413948059,0.0049934983253479,0.15918844938278198,-0.01031196117401123
0.027553077787160873,0.2498859465122223,-0.0924612283706665,0.004809290170669556,0.14728158712387085,0.027408838272094727
0.016522297635674477,0.284146249294281,-0.08964379131793976,0.0024733543395996094,0.1300024390220642,0.07990801334381104
-0.07577923685312271,0.29493576288223267,-0.08191835880279541,-0.008059859275817871,0.11435765027999878,0.10746890306472778
-0.13568852841854095,0.3311507999897003,-0.1276734173297882,-0.02043912559747696,0.10538822412490845,0.09137088060379028
-0.007760342676192522,0.38924333453178406,-0.17862080037593842,0.002126336097717285,0.09319567680358887,0.018732309341430664
0.2827168107032776,0.5611035823822021,-0.10761791467666626,0.06668597459793091,0.09639066457748413,-0.04582613706588745
0.5744063854217529,0.7234742641448975,0.08410864323377609,0.11939513683319092,0.08836108446121216,-0.07121121883392334
0.5666327476501465,0.8200722932815552,0.163481205701828,0.07957136631011963,0.08520019054412842,-0.014045238494873047
0.25910305976867676,0.6744980216026306,-0.023916874080896378,-0.03869554400444031,0.04234647750854492,0.04166322946548462
-0.12226186692714691,0.34369587898254395,-0.16655631363391876,-0.06971648335456848,-0.003234684467315674,0.037377893924713135
-0.3669937551021576,0.05849931389093399,-0.18264973163604736,-0.040516167879104614,-0.03001314401626587,-0.002391636371612549
-0.3856804072856903,0.06123366951942444,-0.0322686992585659,0.03030681610107422,-0.06724339723587036,-0.06309813261032104
-0.23815999925136566,0.2139793336391449,0.21414919197559357,0.0639895498752594,-0.11080348491668701,-0.11258429288864136
-0.15769852697849274,0.3300151824951172,0.3023724853992462,0.009557605721056461,-0.12169837951660156,-0.09923750162124634
-0.1981535404920578,0.20920196175575256,0.20352810621261597,-0.05289655923843384,-0.11801093816757202,-0.0747075080871582
-0.2053244709968567,0.04177000746130943,0.09711655229330063,-0.05328023433685303,-0.14006131887435913,-0.09414142370223999
-0.2174801081418991,0.03544479236006737,0.10959398001432419,-0.011880097910761833,-0.15027081966400146,-0.09858477115631104
-0.2236635386943817,0.23067361116409302,0.2056342363357544,0.03309661149978638,-0.145652174949646,-0.10284006595611572
-0.10443229973316193,0.45582446455955505,0.33635661005973816,0.05894523859024048,-0.1216699481010437,-0.13840138912200928
0.08365817368030548,0.6270231604576111,0.39164623618125916,0.025353075936436653,-0.09134441614151001,-0.1494782567024231
0.12564057111740112,0.7011547684669495,0.3738407790660858,-0.0004593748599290848,-0.07050937414169312,-0.11006230115890503
-0.006714849732816219,0.5516110062599182,0.4305984675884247,0.044871985912323,-0.09867900609970093,-0.08854275941848755
-0.2216070294380188,0.32751262187957764,0.5616976022720337,0.10280671715736389,-0.13785141706466675,-0.09518587589263916
-0.3284085988998413,0.34834665060043335,0.6050639152526855,0.06811308860778809,-0.16398394107818604,-0.14304465055465698
-0.18206080794334412,0.5539118051528931,0.479493111371994,-0.025077994912862778,-0.1670634150505066,-0.23613899946212769
0.06311109662055969,0.5891064405441284,0.20903818309307098,-0.11483320593833923,-0.16481095552444458,-0.28022050857543945
0.1997911036014557,0.46673715114593506,-0.026301942765712738,-0.1389392912387848,-0.21569758653640747,-0.26846742630004883
0.09586931020021439,0.28680410981178284,-0.01378822885453701,-0.0805436372756958,-0.29751038551330566,-0.22493475675582886
-0.30075037479400635,0.30706602334976196,0.16817161440849304,-0.027659863233566284,-0.4108523726463318,-0.1879977583885193
-0.5842588543891907,0.469596266746521,0.44231268763542175,-0.005955696105957031,-0.5022166967391968,-0.283933162689209
-0.5053866505622864,0.32330214977264404,0.5853566527366638,-0.020117131993174553,-0.4620204567909241,-0.4501100182533264
-0.2100551724433899,-0.09043232351541519,0.4924256205558777,-0.10330614447593689,-0.4048619270324707,-0.5132864713668823
0.0372823067009449,-0.4354119896888733,0.22320950031280518,-0.20311489701271057,-0.4012461304664612,-0.4511403441429138
0.0868052989244461,-0.423371821641922,-0.03670612722635269,-0.24270161986351013,-0.43205153942108154,-0.3150196075439453
0.013838259503245354,-0.12173496186733246,-0.18199469149112701,-0.23926499485969543,-0.4877188205718994,-0.24388593435287476
-0.08914072811603546,0.05366120487451553,-0.22346429526805878,-0.1500668227672577,-0.507062554359436,-0.27556097507476807
-0.09729918092489243,0.01100870594382286,-0.3530186116695404,-0.09884962439537048,-0.47223299741744995,-0.3477957248687744
0.02703586220741272,-0.2355804443359375,-0.5164068341255188,-0.05604785680770874,-0.4303123950958252,-0.4008330702781677
0.24673333764076233,-0.6539978384971619,-0.5327101349830627,0.041910529136657715,-0.3626466989517212,-0.4047108292579651
0.3484363853931427,-1.0127301216125488,-0.33452147245407104,0.1290276050567627,-0.29111015796661377,-0.32257312536239624
0.107713982462883,-1.1039268970489502,-0.12365667521953583,0.12799686193466187,-0.22809714078903198,-0.16096413135528564
-0.2705443799495697,-0.8644228577613831,0.015637483447790146,0.10140949487686157,-0.1662294864654541,-0.05767160654067993
-0.3469071388244629,-0.5316394567489624,0.036030739545822144,0.05430073291063309,-0.1175946593284607,-0.09613484144210815
-0.05525244027376175,-0.30018848180770874,-0.08467777073383331,0.03139147907495499,-0.017624199390411377,-0.15875905752182007
0.3238450288772583,-0.27839893102645874,-0.2577158212661743,0.028064221143722534,0.06864690780639648,-0.14426064491271973
0.5346582531929016,-0.393843412399292,-0.35721105337142944,0.042795248329639435,0.08990728855133057,-0.07291907072067261
0.5248146057128906,-0.4063572585582733,-0.33320996165275574,0.05473479628562927,0.05052691698074341,0.009499192237854004
0.31146925687789917,-0.3097624182701111,-0.22873446345329285,0.06356380134820938,0.021072983741760254,0.0769696831703186
-0.0589558482170105,-0.11237227916717529,-0.14032135903835297,0.049016594886779785,0.01219332218170166,0.12985557317733765
-0.37575244903564453,0.08921758830547333,-0.07804001867771149,0.020066767930984497,0.017120778560638428,0.11901485919952393
-0.5297186970710754,0.16211073100566864,-0.0021792070474475622,0.013332098722457886,0.01795351505279541,0.042581140995025635
-0.5207728147506714,-0.029658276587724686,0.10860777646303177,0.0391196608543396,0.020988821983337402,-0.04259598255157471
-0.43272918462753296,-0.20944669842720032,0.15806791186332703,0.032913267612457275,0.04658639430999756,-0.0689956545829773
-0.421919584274292,-0.19289828836917877,0.07856722176074982,-0.009981125593185425,0.0624849796295166,-0.029757559299468994
-0.49906471371650696,-0.051421139389276505,-0.08707954734563828,-0.03136959671974182,0.05905759334564209,0.01083385944366455
-0.5359014272689819,0.1781306117773056,-0.2658987045288086,-0.03977477550506592,0.04594290256500244,0.025710105895996094
-0.48378995060920715,0.3660944700241089,-0.4132235646247864,-0.07179051637649536,0.013994693756103516,0.016858935356140137
-0.38444510102272034,0.30008047819137573,-0.4366018772125244,-0.03746825084090233,0.0019725561141967773,-0.024847567081451416
-0.23067735135555267,0.06945188343524933,-0.3407784104347229,0.025988876819610596,0.032134294509887695,-0.051804304122924805
-0.055289044976234436,-0.03979666531085968,-0.24663126468658447,0.038193974643945694,0.07851952314376831,-0.03293812274932861
-0.04349622502923012,-0.014713700860738754,-0.2752680778503418,-0.008058223873376846,0.11176145076751709,0.06807464361190796
-0.2560196816921234,0.16408000886440277,-0.46025577187538147,-0.10106486082077026,0.1073346734046936,0.1916356086730957
-0.44198042154312134,0.36350977420806885,-0.6090913414955139,-0.17213505506515503,0.0689772367477417,0.21376138925552368
-0.3300982713699341,0.41050592064857483,-0.5781904458999634,-0.1327126920223236,0.06204426288604736,0.08535385131835938
-0.11850875616073608,-0.035068996250629425,-0.39115050435066223,0.040125906467437744,0.14876830577850342,0.014626145362854004
0.14600136876106262,-0.4706263244152069,-0.227431058883667,0.06480050086975098,0.1929476261138916,0.014123320579528809
0.3654567301273346,-0.6360465884208679,-0.10786121338605881,0.031085163354873657,0.20769929885864258,0.08419257402420044
0.4204813241958618,-0.5187554359436035,-0.0464630089700222,0.005001097917556763,0.22033309936523438,0.18719840049743652
0.3207660913467407,-0.2924562990665436,0.03975784033536911,0.00929000973701477,0.24887073040008545,0.25434935092926025
0.05889996141195297,-0.10100825130939484,0.18660646677017212,0.05008363723754883,0.2672548294067383,0.2645992636680603
-0.2947538495063782,-0.05942653492093086,0.32563555240631104,0.09293997287750244,0.2772361636161804,0.22903060913085938
-0.4850422739982605,-0.08743929117918015,0.3506166338920593,0.07180476188659668,0.2599099278450012,0.13494277000427246
-0.38096940517425537,-0.05764440819621086,0.33622080087661743,0.051654964685440063,0.2468014359474182,0.022568583488464355
-0.09371136873960495,-0.014667638577520847,0.28040948510169983,0.027528347447514534,0.23846584558486938,-0.046689510345458984
0.17809180915355682,0.05391190946102142,0.2183990627527237,0.005321592092514038,0.23420500755310059,-0.05696916580200195
0.29188475012779236,0.017207074910402298,0.15490207076072693,0.009494274854660034,0.2417970895767212,-0.016715288162231445
0.2886744439601898,-0.08684270828962326,0.10104159265756607,0.010100305080413818,0.234025239944458,0.037905216217041016
0.3025042712688446,-0.14063262939453125,0.061130691319704056,-0.016311943531036377,0.19204604625701904,0.07435059547424316
0.31899258494377136,-0.08814610540866852,0.037516094744205475,-0.03233480453491211,0.16848838329315186,0.10799425840377808
0.2712863087654114,-0.012099020183086395,0.05836604908108711,-0.031158536672592163,0.151699960231781,0.14163827896118164
0.17804573476314545,0.06291232258081436,0.0976913571357727,-0.029574066400527954,0.12319159507751465,0.1427309513092041
0.12834279239177704,-0.04035685583949089,0.1919371783733368,0.002237856388092041,0.09418129920959473,0.092254638671875
0.14054334163665771,-0.2570742666721344,0.25602900981903076,0.021044403314590454,0.07262486219406128,0.04631549119949341
0.221708744764328,-0.3776838779449463,0.22799500823020935,-0.003967702388763428,0.04890924692153931,0.0339389443397522
0.3234175145626068,-0.37828975915908813,0.17779850959777832,-0.013853192329406738,0.04091602563858032,0.05704754590988159
0.3348247706890106,-0.24435150623321533,0.14630673825740814,-0.01963779330253601,0.024330079555511475,0.11632120609283447
0.16342923045158386,-0.0025415527634322643,0.1342286914587021,-0.04421892762184143,-0.00583648681640625,0.17377758026123047
-0.09141341596841812,0.14122849702835083,0.0768715962767601,-0.05376303195953369,-0.02333688735961914,0.17258644104003906
-0.20100432634353638,0.16293469071388245,0.08316777646541595,-0.019245021045207977,-0.028088390827178955,0.08030438423156738
-0.21220268309116364,0.08038511872291565,0.07005336880683899,0.005769021809101105,0.0030348896980285645,0.0018594861030578613
-0.22668887674808502,0.045448631048202515,-0.016228117048740387,-0.005665302276611328,0.009809494018554688,-0.036911964416503906
-0.2559913992881775,0.011073283851146698,-0.09706413745880127,0.009951382875442505,0.02240610122680664,-0.06405574083328247
-0.19949546456336975,0.046095430850982666,-0.15009792149066925,0.014429807662963867,0.014756739139556885,-0.09937763214111328
-0.04524862766265869,0.055432770401239395,-0.12121337652206421,0.03468707948923111,0.008994519710540771,-0.14258188009262085
0.16752752661705017,-0.06200207769870758,-0.053156230598688126,0.048776209354400635,0.02485954761505127,-0.15845799446105957
0.28091755509376526,-0.15158046782016754,-0.026592746376991272,0.013944782316684723,0.026580333709716797,-0.11258208751678467
0.2588476240634918,-0.19860219955444336,-0.07168056070804596,-0.018724650144577026,0.03196859359741211,-0.03340303897857666
0.2056831419467926,-0.16586466133594513,-0.14429938793182373,-0.04171960800886154,0.035130858421325684,0.02044510841369629
0.16120460629463196,-0.08089467138051987,-0.2174597978591919,-0.05224057286977768,0.030226409435272217,0.04048961400985718
0.10806478559970856,-0.07242525368928909,-0.22239084541797638,-0.01721605658531189,0.03195929527282715,0.03387033939361572
0.09049048274755478,-0.17774587869644165,-0.15810339152812958,0.02484879270195961,0.024648427963256836,0.008007228374481201
0.09078621864318848,-0.2448691427707672,-0.09529989957809448,0.029852066189050674,0.0329318642616272,0.0005884170532226562
0.10290814936161041,-0.2609495222568512,-0.08604506403207779,0.012380361557006836,0.04817080497741699,0.014694452285766602
0.12169462442398071,-0.22718670964241028,-0.12151452898979187,-0.0007096156477928162,0.06959766149520874,0.0373377799987793
0.12126430869102478,-0.18807221949100494,-0.2013820856809616,-0.012802720069885254,0.09448301792144775,0.06979143619537354
0.03231562674045563,-0.14989547431468964,-0.30719879269599915,-0.012347705662250519,0.10600769519805908,0.11182934045791626
-0.119191013276577,-0.12790825963020325,-0.33243781328201294,0.017707258462905884,0.09948921203613281,0.13666099309921265
-0.2336590588092804,-0.10639943182468414,-0.2361135631799698,0.05115482583642006,0.08231461048126221,0.1311476230621338
-0.29447516798973083,-0.09852328896522522,-0.08809851109981537,0.07231271266937256,0.08752721548080444,0.11060893535614014
-0.30521711707115173,-0.1292755901813507,-0.005390015430748463,0.05635702610015869,0.10936391353607178,0.09768569469451904
-0.2732376754283905,-0.17014740407466888,-0.029793167486786842,0.02278706431388855,0.12908846139907837,0.09515547752380371
-0.208476722240448,-0.17806129157543182,-0.10938376188278198,0.005652517080307007,0.14119398593902588,0.10467034578323364
-0.19335509836673737,-0.13320188224315643,-0.16088443994522095,0.009000781923532486,0.13639801740646362,0.138868510723114
-0.23040981590747833,-0.0533209890127182,-0.19414566457271576,0.018994033336639404,0.13319462537765503,0.1637800931930542
-0.260990709066391,0.013369695283472538,-0.21026889979839325,0.031018614768981934,0.15315991640090942,0.17083191871643066
-0.26199871301651,0.044233839958906174,-0.20575635135173798,0.04478386044502258,0.1786777377128601,0.17483890056610107
-0.27385812997817993,0.11989788711071014,-0.1910933554172516,0.0459517277777195,0.18534374237060547,0.1929216980934143
-0.3082892596721649,0.2066788673400879,-0.1596575826406479,0.04591616988182068,0.18002307415008545,0.20158463716506958
-0.33154961466789246,0.20489679276943207,-0.14630526304244995,0.042909592390060425,0.16412818431854248,0.17656731605529785
-0.27522730827331543,0.16107995808124542,-0.15816202759742737,0.05012953281402588,0.15119802951812744,0.1185804009437561
-0.08002782613039017,0.05054745823144913,-0.12517087161540985,0.09004989266395569,0.1494370698928833,0.053364098072052
0.14122502505779266,0.013305035419762135,-0.027225056663155556,0.1185656487941742,0.1295926570892334,0.03256601095199585
0.16444726288318634,0.07118141651153564,0.0679655522108078,0.0981193482875824,0.0970834493637085,0.09162718057632446
-0.05705897882580757,0.24711662530899048,0.12205367535352707,0.0540962815284729,0.07480531930923462,0.15458565950393677
-0.3358733057975769,0.4087739586830139,0.11019008606672287,0.0055353641510009766,0.040610432624816895,0.14713889360427856
-0.45507678389549255,0.37868034839630127,0.11124476790428162,0.025676339864730835,0.04322463274002075,0.04575216770172119
-0.3127378821372986,0.2678293287754059,0.1737438440322876,0.06636658310890198,0.07685154676437378,-0.06991052627563477
-0.07479534298181534,0.1480315923690796,0.2440347671508789,0.07550445199012756,0.10383349657058716,-0.10903865098953247
0.05770110711455345,0.06725024431943893,0.2326805740594864,0.03779730200767517,0.1073305606842041,-0.06135737895965576
0.08686377853155136,0.07063490152359009,0.14186276495456696,-0.01932927966117859,0.0881035327911377,0.003553152084350586
0.07976685464382172,0.11305464804172516,0.06521201133728027,-0.04343074560165405,0.07897675037384033,0.0366133451461792
0.04513803496956825,0.15444709360599518,0.007755639962852001,-0.05369681119918823,0.06680357456207275,0.04682302474975586
0.05021141469478607,0.1793648600578308,-0.08772824704647064,-0.05695241689682007,0.08499032258987427,0.03638654947280884
0.14728230237960815,0.13469725847244263,-0.18915313482284546,-0.042283475399017334,0.10674959421157837,0.017818152904510498
0.24488042294979095,0.11940249055624008,-0.24117670953273773,-0.02812245488166809,0.0917966365814209,0.031384289264678955
0.29304811358451843,0.18065933883190155,-0.23899751901626587,-0.026632457971572876,0.06921929121017456,0.06212848424911499
0.33585405349731445,0.2821574807167053,-0.20658622682094574,-0.03371536731719971,0.04874175786972046,0.07107102870941162
0.32647618651390076,0.3521187901496887,-0.16165250539779663,-0.042681217193603516,0.04365187883377075,0.07347142696380615
0.22305181622505188,0.3454614579677582,-0.1570328027009964,-0.05765891075134277,0.04543179273605347,0.07384049892425537
0.1481781303882599,0.2386474311351776,-0.16296829283237457,-0.05013206601142883,0.043984293937683105,0.04051285982131958
0.1627431958913803,0.09539749473333359,-0.1594744771718979,-0.04305696487426758,0.029086530208587646,-0.0032550692558288574
0.18615099787712097,-0.00998314656317234,-0.09484085440635681,-0.01034468412399292,0.011216402053833008,-0.014359712600708008
0.14580950140953064,-0.0063056303188204765,-0.010622329078614712,0.010977629572153091,-0.007773876190185547,-0.006418287754058838
0.04073762148618698,0.07845543324947357,0.03640667721629143,-0.010696768760681152,-0.04261207580566406,0.0013135671615600586
-0.0377814956009388,0.14373329281806946,0.09185070544481277,-0.02474150061607361,-0.07229214906692505,-0.03531205654144287
-0.04434866085648537,0.04414255544543266,0.10546234250068665,-0.03964751958847046,-0.0842851996421814,-0.10363268852233887
0.08351035416126251,-0.13569530844688416,0.08874024450778961,-0.04076915979385376,-0.07169711589813232,-0.1669062376022339
0.20441754162311554,-0.23625433444976807,0.008023157715797424,-0.05671319365501404,-0.05381882190704346,-0.15335392951965332
0.17783233523368835,-0.1439497321844101,-0.1251058131456375,-0.08797454833984375,-0.06024450063705444,-0.07741886377334595
0.07218249142169952,0.06668970733880997,-0.18247951567173004,-0.06903082132339478,-0.10472357273101807,-0.04666256904602051
-0.028111234307289124,0.1804105043411255,-0.19713179767131805,-0.047930508852005005,-0.16209185123443604,-0.07027828693389893
-0.028407378122210503,0.06671136617660522,-0.1538407951593399,-0.025031179189682007,-0.20655125379562378,-0.14786231517791748
0.12566420435905457,-0.19248776137828827,-0.1354042887687683,-0.002150360494852066,-0.18952113389968872,-0.2082241177558899
0.29410603642463684,-0.3393724858760834,-0.1842460185289383,0.0029439330101013184,-0.14362263679504395,-0.1812625527381897
0.3400973677635193,-0.21118615567684174,-0.26405155658721924,-0.008836895227432251,-0.15273284912109375,-0.09596705436706543
0.18920113146305084,-0.01705539971590042,-0.28048962354660034,-0.0034166015684604645,-0.19024336338043213,-0.0197373628616333
-0.07483533024787903,0.01565990038216114,-0.1997787207365036,0.01585814356803894,-0.2465764880180359,-0.009203553199768066
-0.36288946866989136,0.025382909923791885,-0.05075720325112343,0.023633863776922226,-0.2811512351036072,-0.05136972665786743
-0.635533332824707,-0.034908123314380646,0.06381416320800781,0.04776206240057945,-0.25548774003982544,-0.14759784936904907
-0.7314178943634033,-0.20164956152439117,0.0627104714512825,0.04958805814385414,-0.2607131004333496,-0.26687508821487427
-0.5158208608627319,-0.20641937851905823,-0.003287164494395256,0.02477020025253296,-0.2947080135345459,-0.3827360272407532
-0.2400808185338974,-0.15775424242019653,-0.02848109044134617,0.04244700074195862,-0.31543081998825073,-0.41895759105682373
-0.13678304851055145,-0.162267804145813,0.009383805096149445,0.06795227527618408,-0.33311372995376587,-0.3669835329055786
-0.16585315763950348,-0.15525095164775848,0.028222281485795975,0.05151259899139404,-0.3560936450958252,-0.30727529525756836
-0.20886896550655365,-0.1201012060046196,-0.005008028354495764,0.03822356462478638,-0.36791616678237915,-0.291745126247406
-0.2132919281721115,-0.0633510872721672,-0.0728946179151535,0.044342041015625,-0.3537709712982178,-0.29626715183258057
-0.08847701549530029,0.022041091695427895,-0.06910517811775208,0.05859148129820824,-0.3282718062400818,-0.30607372522354126
0.13298992812633514,0.09689393639564514,0.026397932320833206,0.06906825304031372,-0.2878338098526001,-0.30189013481140137
0.35179075598716736,0.036940984427928925,0.02904495783150196,0.02357921004295349,-0.25255119800567627,-0.26071763038635254
0.4461823105812073,-0.017829351127147675,-0.08612565696239471,-0.00940394401550293,-0.18830585479736328,-0.18262696266174316
0.2759634852409363,-0.026048535481095314,-0.21561402082443237,-0.012088149785995483,-0.15109074115753174,-0.07833611965179443
-0.013149535283446312,-0.02371874265372753,-0.23296768963336945,0.008833497762680054,-0.1693827509880066,-0.024521470069885254
-0.08841827511787415,0.008270625956356525,-0.05230359733104706,0.06591856479644775,-0.17859530448913574,-0.0745742917060852
0.08646945655345917,-0.01019660197198391,0.16436445713043213,0.08348706364631653,-0.13882321119308472,-0.13697242736816406
0.23443500697612762,-0.05203413963317871,0.24455690383911133,0.03728833422064781,-0.07746654748916626,-0.11171722412109375
0.16597624123096466,-0.03456910699605942,0.15967300534248352,-0.027541041374206543,-0.024658024311065674,-0.01907193660736084
-0.04784059897065163,0.006183719262480736,-0.014494689181447029,-0.05728408694267273,-0.024102330207824707,0.0343703031539917
-0.1235581487417221,0.04222193360328674,-0.13968589901924133,-0.046839985996484756,-0.05101168155670166,0.0019608736038208008
0.012766130268573761,0.06768868118524551,-0.10363603383302689,0.0035105645656585693,-0.05746513605117798,-0.06783109903335571
0.14606265723705292,0.01476367935538292,0.052114155143499374,0.059335798025131226,-0.04267299175262451,-0.0857466459274292
0.15580905973911285,-0.03171563893556595,0.16808301210403442,0.05829182267189026,-0.032140135765075684,-0.05221724510192871
0.1253444105386734,-0.030193479731678963,0.17104259133338928,0.01642155647277832,-0.012981653213500977,-0.017487168312072754
0.11429199576377869,-0.0077244583517313,0.11353261768817902,-0.014928312972187996,-0.00029098987579345703,0.0002040863037109375
0.1425597071647644,0.014915726147592068,0.03703445941209793,-0.030760858207941055,0.019069015979766846,0.013938486576080322
0.15409696102142334,0.021310189738869667,-0.056796152144670486,-0.03465753793716431,0.028598546981811523,0.03192859888076782
0.12913022935390472,0.030633531510829926,-0.07664849609136581,-0.012244168668985367,0.025707781314849854,0.050395667552948
0.11312766373157501,0.05244564637541771,-0.050919562578201294,0.01888006553053856,0.034062981605529785,0.0554165244102478
0.10735943913459778,0.0647750273346901,-0.01258464902639389,0.02927285060286522,0.05671006441116333,0.058709144592285156
0.13098594546318054,0.06422396004199982,-0.018703162670135498,0.011948194354772568,0.07526940107345581,0.07305163145065308
0.1458350121974945,0.08297266811132431,-0.046468619257211685,0.019321944564580917,0.10080742835998535,0.077511727809906
0.11024335771799088,0.09422574937343597,-0.08029266446828842,0.03153425082564354,0.09334707260131836,0.08242076635360718
0.13282616436481476,0.1353876292705536,-0.029905756935477257,0.05026531219482422,0.07340353727340698,0.06529742479324341
0.20709867775440216,0.16738994419574738,0.11313042044639587,0.07207256555557251,0.07117164134979248,0.05037510395050049
0.2177785336971283,0.08819033950567245,0.24412786960601807,0.059974104166030884,0.08028316497802734,0.07516485452651978
0.1909574270248413,-0.0036058202385902405,0.2760584056377411,0.02078506350517273,0.10667335987091064,0.11024487018585205
0.14261366426944733,-0.023076273500919342,0.20530050992965698,-0.018083840608596802,0.13599491119384766,0.1515330672264099
0.055321790277957916,0.06931406259536743,0.0857943519949913,-0.048574984073638916,0.13478028774261475,0.17855608463287354
-0.12221994251012802,0.17748166620731354,0.012659218162298203,-0.04296359419822693,0.11050426959991455,0.189142107963562
-0.22753030061721802,0.2032940536737442,0.03180877864360809,-0.014569342136383057,0.0708271861076355,0.14099740982055664
-0.14757183194160461,0.12069263309240341,0.11871113628149033,0.011416703462600708,0.06151175498962402,0.057883262634277344
0.000878975261002779,0.013422894291579723,0.13145431876182556,0.012381818145513535,0.07791298627853394,0.020780324935913086
0.049164023250341415,0.04580502584576607,0.06167848780751228,-0.0033392608165740967,0.09128010272979736,0.0491945743560791
-0.07087790220975876,0.19664929807186127,0.02349410578608513,0.004050731658935547,0.07293456792831421,0.08515101671218872
-0.14242325723171234,0.30854105949401855,0.09164278209209442,0.01842084527015686,0.05072909593582153,0.057187557220458984
-0.016569552943110466,0.22214911878108978,0.2671927809715271,0.05015772208571434,0.0649915337562561,-0.02505803108215332
0.1689489632844925,-0.001839125296100974,0.365093469619751,0.030172377824783325,0.11569678783416748,-0.04143446683883667
0.22447283565998077,-0.14332997798919678,0.22945857048034668,-0.04654702544212341,0.14057934284210205,0.020142674446105957
0.10729417204856873,-0.11560758948326111,0.0360635481774807,-0.07072758674621582,0.14751780033111572,0.09748494625091553
-0.04076255112886429,0.04664720222353935,-0.07046979665756226,-0.06715622544288635,0.11900705099105835,0.1229979395866394
-0.106770820915699,0.20865514874458313,-0.029336627572774887,-0.04036688804626465,0.10026293992996216,0.08223265409469604
-0.12340306490659714,0.22683574259281158,0.10554789006710052,-0.002102971076965332,0.1075180172920227,0.022440195083618164
-0.16812096536159515,0.13401003181934357,0.2076718658208847,0.004101783037185669,0.12721776962280273,-0.01169508695602417
-0.17352686822414398,0.052246566861867905,0.21984702348709106,-0.012347249314188957,0.14960038661956787,-0.038770973682403564
-0.05807512253522873,0.03471973538398743,0.1561187356710434,-0.03027329035103321,0.16189557313919067,-0.05968219041824341
0.12890638411045074,0.028587011620402336,0.09571162611246109,-0.048409223556518555,0.1517149806022644,-0.06589221954345703
0.3473106920719147,-0.008947860449552536,0.11529135704040527,-0.039067983627319336,0.1279882788658142,-0.06614816188812256
0.4276200532913208,-0.08703244477510452,0.19766075909137726,-0.012526572681963444,0.11606913805007935,-0.029461801052093506
0.3623378574848175,-0.231503427028656,0.2894466519355774,0.00928381085395813,0.11500281095504761,0.01593327522277832
0.300799697637558,-0.2969265282154083,0.3526594340801239,0.02216857671737671,0.13735604286193848,0.04311448335647583
0.2842884361743927,-0.24563677608966827,0.36427220702171326,0.001966029405593872,0.1188662052154541,0.06170004606246948
0.30554091930389404,-0.15200696885585785,0.353561669588089,-0.017742929980158806,0.0956314206123352,0.07604169845581055
0.30587905645370483,-0.09657303243875504,0.35467103123664856,-0.026710331439971924,0.08411139249801636,0.09083175659179688
0.22896775603294373,-0.1291695535182953,0.37284034490585327,-0.028454001992940903,0.07362693548202515,0.1102709174156189
0.12356530874967575,-0.1558377891778946,0.3813510835170746,-0.03509014472365379,0.05006897449493408,0.1179845929145813
0.02842322364449501,-0.12084126472473145,0.3626612424850464,-0.04115086793899536,0.043765485286712646,0.112640380859375
-0.08282548189163208,-0.026356136426329613,0.29468485713005066,-0.05557867884635925,0.030499815940856934,0.09933662414550781
-0.12966854870319366,0.04215230420231819,0.18757525086402893,-0.07212692499160767,0.022774040699005127,0.06631088256835938
-0.15535427629947662,0.06123655289411545,0.04517991468310356,-0.08142653852701187,0.0220334529876709,0.028798222541809082
-0.21736927330493927,0.08565109968185425,-0.12564551830291748,-0.06637975573539734,0.02599167823791504,-0.0036415457725524902
-0.19662101566791534,0.06854753196239471,-0.24176867306232452,-0.015767425298690796,0.019725322723388672,-0.05889672040939331
-0.025120681151747704,0.05691838264465332,-0.23515114188194275,0.03287851810455322,0.006893336772918701,-0.10719841718673706
0.19910740852355957,0.0020787008106708527,-0.13060836493968964,0.056955188512802124,-0.006943821907043457,-0.10334402322769165
0.2686704993247986,-0.06370411813259125,-0.009265244007110596,0.05221399664878845,-0.015869081020355225,-0.03263300657272339
0.1918833702802658,-0.08271701633930206,0.03873549774289131,0.02392798662185669,-0.02238672971725464,0.043746232986450195
0.08456931263208389,-0.038406841456890106,0.047392506152391434,2.2023916244506836e-05,-0.021880149841308594,0.07658421993255615
0.0045851487666368484,0.046710897237062454,0.07362420856952667,-0.011329412460327148,-0.02578592300415039,0.07126450538635254
-0.024074211716651917,0.06452653557062149,0.11623818427324295,-0.010378062725067139,-0.010589838027954102,0.035970866680145264
-0.0031175119802355766,-0.005545916501432657,0.15662722289562225,-0.014561887830495834,0.0005403757095336914,0.001878201961517334
0.021909503266215324,-0.05881115049123764,0.12618198990821838,-0.03491675481200218,0.019767582416534424,-0.013124525547027588
0.0468587689101696,-0.08886954188346863,-0.002943711820989847,-0.04460743069648743,0.04691958427429199,-0.007324278354644775
0.06083167716860771,-0.03467336669564247,-0.10132168978452682,-0.038618799299001694,0.05012029409408569,0.004847705364227295
0.08024699240922928,-0.020489415153861046,-0.10869086533784866,-0.010554887354373932,0.037457168102264404,0.0027317404747009277
0.0897383987903595,-0.07425308972597122,-0.05651075020432472,0.014213114976882935,0.040921688079833984,0.007951498031616211
0.07005806267261505,-0.13393031060695648,-0.02853117696940899,0.007267653942108154,0.0507848858833313,0.02995854616165161
0.030098186805844307,-0.1408199816942215,-0.05699010565876961,-0.002971407026052475,0.07110792398452759,0.062075138092041016
-0.010554639622569084,-0.07786881923675537,-0.10261163115501404,-0.010258045047521591,0.07940143346786499,0.09040218591690063
-0.07187847793102264,-0.010751121677458286,-0.11538834869861603,-0.0036709867417812347,0.08799219131469727,0.11104446649551392
-0.14783285558223724,-0.015129759907722473,-0.13196028769016266,-0.0007493495941162109,0.09295755624771118,0.12452197074890137
-0.18353424966335297,-0.039251428097486496,-0.13900184631347656,-0.006222330033779144,0.10232234001159668,0.12442880868911743
-0.22139905393123627,-0.06202305853366852,-0.17391124367713928,-0.01351425051689148,0.113125741481781,0.13244879245758057
-0.26074865460395813,-0.061764150857925415,-0.25721055269241333,-0.017026931047439575,0.12409281730651855,0.14285892248153687
-0.25877392292022705,-0.02768598310649395,-0.3217288851737976,0.006463591009378433,0.1386120319366455,0.13544684648513794
-0.24038730561733246,0.019405009225010872,-0.31526103615760803,0.035681307315826416,0.13420867919921875,0.12411648035049438
-0.24040831625461578,0.05196671932935715,-0.23768272995948792,0.049782007932662964,0.13154131174087524,0.11646467447280884
-0.24012355506420135,0.004435430746525526,-0.15395739674568176,0.055814653635025024,0.15174323320388794,0.09802287817001343
-0.17648449540138245,-0.10880249738693237,-0.1255507618188858,0.038525402545928955,0.17330831289291382,0.07351475954055786
-0.05890468508005142,-0.2508102357387543,-0.1989988386631012,0.01488053984940052,0.1891617774963379,0.06671392917633057
0.05603097006678581,-0.3153846263885498,-0.3109518587589264,0.005246521905064583,0.20143240690231323,0.08921855688095093
0.09277983009815216,-0.24664637446403503,-0.367368221282959,0.007260560989379883,0.18672049045562744,0.1410154104232788
0.03224123269319534,-0.082707479596138,-0.3654991090297699,0.006016703322529793,0.1622721552848816,0.19089561700820923
-0.12794987857341766,0.05555986985564232,-0.31336674094200134,0.011639089323580265,0.14596295356750488,0.214557945728302
-0.27514663338661194,0.08628647774457932,-0.2519230246543884,0.014694452285766602,0.12927192449569702,0.18607664108276367
-0.25932979583740234,-0.02829323709011078,-0.1475154161453247,0.025299072265625,0.12878477573394775,0.11371380090713501
-0.11449328064918518,-0.12652690708637238,-0.06619623303413391,0.0029411613941192627,0.1065332293510437,0.058025240898132324
0.014373641461133957,-0.14531220495700836,-0.002740488387644291,-0.011940717697143555,0.09613913297653198,0.04692775011062622
0.08708523958921432,-0.13328532874584198,0.010098742321133614,-0.01972252130508423,0.10403424501419067,0.05515456199645996
0.10180465877056122,-0.13347908854484558,-0.030583776533603668,-0.019618332386016846,0.1104276180267334,0.06633418798446655
0.06682440638542175,-0.09007563441991806,-0.11218065023422241,-0.03217610716819763,0.097964346408844,0.07685130834579468
0.02714666724205017,0.010017898865044117,-0.16202914714813232,-0.032757729291915894,0.08186715841293335,0.0698627233505249
-0.01095491275191307,0.045191600918769836,-0.13178417086601257,-0.008655548095703125,0.07675039768218994,0.046428024768829346
0.005808427929878235,0.012502052821218967,-0.08386452496051788,0.005365878343582153,0.07507705688476562,0.018384039402008057
0.07329817861318588,-0.016909854486584663,-0.08383208513259888,-0.005759507417678833,0.0791894793510437,0.002646028995513916
0.10585794597864151,-0.01089843176305294,-0.10030011832714081,-0.010218501091003418,0.08804386854171753,0.016230106353759766
0.09554106742143631,-0.03875581547617912,-0.1004941388964653,-0.01282450556755066,0.07405132055282593,0.024939775466918945
0.087879478931427,-0.08870294690132141,-0.08347240090370178,-0.02017393708229065,0.059567928314208984,0.01026296615600586
0.08809668570756912,-0.21464288234710693,-0.0538567453622818,-0.015969038009643555,0.043510258197784424,-0.0107802152633667
0.057535551488399506,-0.2852438986301422,-0.15123623609542847,-0.03748089075088501,0.01568704843521118,-0.009437501430511475
0.0356566496193409,-0.19745664298534393,-0.25669556856155396,-0.020769864320755005,-0.016763925552368164,-0.013861536979675293
0.04467108100652695,-0.013290847651660442,-0.3015133738517761,0.003646165132522583,-0.02913987636566162,-0.012590765953063965
0.033939655870199203,0.08160064369440079,-0.262704074382782,0.007191837765276432,-0.016471922397613525,-0.0012916922569274902
-0.006597284227609634,0.0046925931237638,-0.24013619124889374,-0.026585547253489494,-0.0026589035987854004,0.010911226272583008
-0.051439885050058365,-0.06961634755134583,-0.34456348419189453,-0.07884114980697632,-0.01681220531463623,0.012740910053253174
-0.04737384244799614,-0.07027383893728256,-0.5233979821205139,-0.08280780911445618,-0.02656608819961548,-0.023342907428741455
-0.06613653898239136,-0.17529377341270447,-0.7271760702133179,-0.04305073618888855,-0.01833343505859375,-0.041992902755737305
-0.036406733095645905,-0.2705399990081787,-0.8248271942138672,0.01595371589064598,-0.05076402425765991,-0.05997437238693237
0.07742394506931305,-0.3053467273712158,-0.6769095063209534,0.10085716843605042,-0.1012910008430481,-0.07609766721725464
0.09303013980388641,-0.167005717754364,-0.4056348502635956,0.12672823667526245,-0.13264769315719604,-0.03760373592376709
-0.04813772812485695,0.07390517741441727,-0.31479308009147644,0.05197030305862427,-0.1700780987739563,0.020001888275146484
-0.2556047737598419,0.16034434735774994,-0.43767431378364563,-0.011989444494247437,-0.15294718742370605,0.028754711151123047
-0.3981265127658844,0.010981199331581593,-0.5449926853179932,0.009552180767059326,-0.13694196939468384,-0.018904447555541992
-0.4315544068813324,-0.13946178555488586,-0.45565906167030334,0.06558305025100708,-0.16949987411499023,-0.06876122951507568
-0.37536996603012085,-0.16632801294326782,-0.15348374843597412,0.13245889544487,-0.22907692193984985,-0.11141747236251831
-0.2857910096645355,-0.08809056133031845,0.21317295730113983,0.16958296298980713,-0.23794341087341309,-0.13901537656784058
-0.2303999662399292,0.03064633533358574,0.3623230457305908,0.10571068525314331,-0.21027666330337524,-0.14444363117218018
-0.2527346611022949,0.08685416728258133,0.28800326585769653,0.001694798469543457,-0.1889258623123169,-0.1283208727836609
-0.3826868236064911,-0.015972161665558815,0.11520161479711533,-0.05733528733253479,-0.195570707321167,-0.11659502983093262
-0.40944764018058777,-0.1221998855471611,0.07955712825059891,-0.01726880669593811,-0.235667884349823,-0.18038612604141235
-0.26835235953330994,-0.1572081744670868,0.17999367415905,0.039269864559173584,-0.26090478897094727,-0.25738275051116943
-0.19153830409049988,-0.1127270758152008,0.24164670705795288,0.04269224405288696,-0.27815377712249756,-0.26169633865356445
-0.26116707921028137,0.012745099142193794,0.2084793746471405,0.008346498012542725,-0.3017091155052185,-0.23450690507888794
-0.39773818850517273,0.12153838574886322,0.13872258365154266,-0.01326725259423256,-0.3161610960960388,-0.24584734439849854
-0.5135458707809448,0.037742018699645996,0.13353413343429565,0.003428161144256592,-0.33146989345550537,-0.302199125289917
-0.479299932718277,-0.14890815317630768,0.18768349289894104,0.032679200172424316,-0.3477638363838196,-0.3709069490432739
-0.26372411847114563,-0.22622063755989075,0.24354936182498932,0.04647385701537132,-0.32303541898727417,-0.4140177369117737
-0.052655622363090515,-0.2118569016456604,0.21065737307071686,0.02899130806326866,-0.2754388451576233,-0.36108607053756714
0.03732503950595856,-0.06668904423713684,0.12587915360927582,-0.017454415559768677,-0.25203269720077515,-0.2552896738052368
0.010108707472682,0.13602393865585327,0.016445087268948555,-0.049187541007995605,-0.22337836027145386,-0.1681298017501831
-0.06725311279296875,0.1592559814453125,-0.11395254731178284,-0.07090115547180176,-0.19576376676559448,-0.12861639261245728
-0.09438710659742355,-0.009631400927901268,-0.19487592577934265,-0.04560139775276184,-0.17621952295303345,-0.1463940143585205
0.0321304053068161,-0.28749987483024597,-0.173131063580513,-0.00028070807456970215,-0.16411733627319336,-0.1823948621749878
0.3644062876701355,-0.3780931830406189,-0.05987973138689995,0.022971123456954956,-0.15178555250167847,-0.20612990856170654
0.47651439905166626,-0.2192583978176117,0.0779547169804573,0.007611751556396484,-0.11833024024963379,-0.1092689037322998
-0.006816995330154896,-0.10865899920463562,0.20076796412467957,-0.014974121004343033,-0.11694258451461792,0.03378725051879883
-0.6754577159881592,-0.15731607377529144,0.21071407198905945,-0.06881815195083618,-0.1376582384109497,0.05886185169219971
-0.9125726819038391,-0.3340815305709839,0.13235388696193695,-0.0955735445022583,-0.08893018960952759,-0.06287795305252075
-0.6744173169136047,-0.5722403526306152,-0.030899815261363983,-0.07510632276535034,-0.043862879276275635,-0.20716744661331177
-0.18465621769428253,-0.6727297902107239,-0.11925384402275085,0.014077632687985897,0.012219250202178955,-0.2731937766075134
0.21463753283023834,-0.4731515049934387,-0.14592286944389343,0.05084463953971863,0.014467895030975342,-0.2069299817085266
0.2896093726158142,-0.04725860431790352,-0.19637224078178406,0.005577027797698975,-0.03284519910812378,-0.06979590654373169
0.15080760419368744,0.1052977591753006,-0.31027084589004517,-0.03505343198776245,-0.0330236554145813,0.01929938793182373
0.06690982729196548,-0.03437505289912224,-0.4314453601837158,-0.025168687105178833,-0.00292128324508667,0.014926552772521973
0.18023577332496643,-0.21664099395275116,-0.436779648065567,0.05520172417163849,0.040283024311065674,-0.042238473892211914
0.2896883487701416,-0.264603853225708,-0.27409037947654724,0.1371971070766449,0.0539819598197937,-0.033696889877319336
0.24360860884189606,-0.09982521086931229,-0.04056921228766441,0.14030466973781586,0.018463611602783203,0.03327584266662598
0.11941874772310257,0.12684394419193268,0.17951098084449768,0.08800694346427917,0.004357457160949707,0.08017081022262573
-0.0030433235224336386,0.1389957219362259,0.27832484245300293,0.029409632086753845,0.03869915008544922,0.0792076587677002
-0.0012148963287472725,0.02668297477066517,0.18285854160785675,-0.04274025559425354,0.07184481620788574,0.035133183002471924
0.04572576284408569,-0.04434339702129364,0.016836656257510185,-0.05127707123756409,0.11144018173217773,-0.0017658472061157227
0.13097618520259857,-0.12334797531366348,-0.12739577889442444,-0.007394612766802311,0.14004749059677124,-0.018748939037322998
0.25179871916770935,-0.02476205676794052,-0.0933714210987091,0.017720341682434082,0.11157649755477905,-0.019495368003845215
0.24912476539611816,0.07403624802827835,0.03608660399913788,0.022062987089157104,0.07549560070037842,0.031378865242004395
0.23558491468429565,0.028154993429780006,0.08211442083120346,0.003119438886642456,0.06321686506271362,0.05160367488861084
0.3070443868637085,-0.09090659767389297,-0.0028236480429768562,-0.013116925954818726,0.09042620658874512,0.03831076622009277
0.3673515319824219,-0.2176768183708191,-0.1105281338095665,0.0017870068550109863,0.10143554210662842,0.05516707897186279
0.3369150161743164,-0.2235918492078781,-0.10605400055646896,0.043161362409591675,0.0815591812133789,0.09030956029891968
0.2636611759662628,-0.17659175395965576,0.0010419883765280247,0.08328744769096375,0.06473171710968018,0.11786794662475586
0.22898821532726288,-0.0883951410651207,0.1841360628604889,0.0983235239982605,0.05653780698776245,0.12775248289108276
0.21969029307365417,-0.04892771691083908,0.3166685998439789,0.07472726702690125,0.06431937217712402,0.13927197456359863
0.21480847895145416,-0.07198851555585861,0.3316863477230072,0.033908456563949585,0.09511953592300415,0.14920061826705933
0.19924156367778778,-0.12140283733606339,0.2389490008354187,0.011483758687973022,0.13640332221984863,0.16361165046691895
0.1484178900718689,-0.05096503719687462,0.14976833760738373,0.002147376537322998,0.1449800729751587,0.17683863639831543
0.13999201357364655,0.06872279196977615,0.11974918097257614,0.00844082422554493,0.12526530027389526,0.1647595763206482
0.22116060554981232,0.056314773857593536,0.1289677619934082,0.021793842315673828,0.10958361625671387,0.12339091300964355
0.3624320328235626,-0.007972382940351963,0.11946059763431549,0.020603328943252563,0.11080831289291382,0.08850347995758057
0.41793960332870483,-0.02296149730682373,0.04991220310330391,0.005506634712219238,0.1330881118774414,0.10657036304473877
0.2788190543651581,0.008212801069021225,-0.06285618990659714,0.005977243185043335,0.12814873456954956,0.14187204837799072
0.1824457198381424,0.0855640396475792,-0.09191544353961945,0.032431602478027344,0.09037095308303833,0.10909473896026611
0.20462366938591003,0.15394189953804016,-0.021371077746152878,0.06029185652732849,0.07278352975845337,0.05022096633911133
0.3002244830131531,0.1551845371723175,0.09278398752212524,0.06892269849777222,0.051079630851745605,-0.0035821199417114258
0.3570782244205475,0.10366199910640717,0.20616558194160461,0.07628306746482849,0.0773962140083313,-0.03188347816467285
0.3310721516609192,0.006444060243666172,0.23763971030712128,0.05546283721923828,0.0947985053062439,-0.02112555503845215
0.34584853053092957,-0.038140006363391876,0.22517666220664978,0.016813695430755615,0.09243506193161011,-0.01716923713684082
0.41536763310432434,-0.04987562820315361,0.1879088133573532,0.0008708257228136063,0.10737937688827515,-0.0055220723152160645
0.4537643492221832,-0.0719008520245552,0.13178764283657074,-0.005380362272262573,0.12405723333358765,0.027953803539276123
0.49272793531417847,-0.10589996725320816,0.08888905495405197,-0.009385436773300171,0.1172378659248352,0.05917191505432129
0.5084039568901062,-0.10770723223686218,0.08069483190774918,-0.002562791109085083,0.11555343866348267,0.08733797073364258
0.4386250376701355,-0.06660573929548264,0.07590235769748688,-0.0073382556438446045,0.10587018728256226,0.1306666135787964
0.3043102025985718,0.04737946391105652,0.0452343225479126,-0.02297225594520569,0.09760361909866333,0.16719967126846313
0.12939193844795227,0.1640470176935196,-0.012707503512501717,-0.0371268056333065,0.08813601732254028,0.18535113334655762
-0.015413880348205566,0.17920008301734924,-0.01210012100636959,-0.018689393997192383,0.07545095682144165,0.16490978002548218
-0.024082275107502937,0.11666697263717651,0.08152139186859131,0.007502764463424683,0.05879408121109009,0.10434329509735107
0.024736370891332626,0.0068978178314864635,0.19029538333415985,0.012456178665161133,0.052755534648895264,0.06423497200012207
0.002011111006140709,-0.05707894265651703,0.19015070796012878,-0.02094578742980957,0.05695134401321411,0.07260775566101074
-0.09963080286979675,-0.007525417022407055,0.1107194721698761,-0.04841035231947899,0.05100351572036743,0.08746695518493652
-0.20516805350780487,0.10950395464897156,0.008376767858862877,-0.05864402651786804,0.039021968841552734,0.07712167501449585
-0.2571793496608734,0.19412797689437866,-0.07007746398448944,-0.04946872591972351,0.030692100524902344,0.036666274070739746
-0.2540809214115143,0.1776219755411148,-0.09592269361019135,-0.025023698806762695,0.030591726303100586,-0.011552810668945312
-0.2354600727558136,0.09164648503065109,-0.1006932258605957,-0.007365074008703232,0.03405243158340454,-0.044422030448913574
-0.13251443207263947,-0.029814166948199272,-0.0887407436966896,0.0033106841146945953,0.020853817462921143,-0.0773271918296814
-0.015146039426326752,-0.09654490649700165,-0.05789748951792717,0.010304480791091919,0.015917479991912842,-0.0736125111579895
0.0403360091149807,-0.11610506474971771,-0.042949024587869644,-0.001261383295059204,0.012872517108917236,-0.029265522956848145
0.009747520089149475,-0.10786169767379761,-0.03270856663584709,-0.017922013998031616,0.014731764793395996,0.028052449226379395
-0.07178390026092529,-0.07805715501308441,-0.02891041524708271,-0.035358935594558716,0.008637011051177979,0.06371283531188965
-0.15215925872325897,-0.060920048505067825,-0.0246195737272501,-0.033663928508758545,0.013577580451965332,0.06530624628067017
-0.17414195835590363,-0.0608973391354084,-0.02156861312687397,-0.02899724245071411,0.019303321838378906,0.038528382778167725
-0.15668264031410217,-0.09164056181907654,-0.048339422792196274,-0.020579572767019272,0.0385090708732605,0.013702809810638428
-0.11534042656421661,-0.15031324326992035,-0.08524506539106369,-0.007321655750274658,0.06216168403625488,0.0033642053604125977
-0.08835103362798691,-0.16846978664398193,-0.11616047471761703,-0.0018007755279541016,0.07157862186431885,0.018995702266693115
-0.08380230516195297,-0.16334325075149536,-0.14030130207538605,-0.00023716315627098083,0.07717406749725342,0.05078411102294922
-0.07900214940309525,-0.1645372360944748,-0.1471583992242813,0.004613429307937622,0.09197002649307251,0.07478821277618408
-0.10004374384880066,-0.21352115273475647,-0.15416958928108215,0.009569738060235977,0.10416138172149658,0.10065388679504395
-0.11093352735042572,-0.26835012435913086,-0.17645561695098877,0.010442230850458145,0.11133676767349243,0.12059444189071655
-0.10587959736585617,-0.28112247586250305,-0.21031703054904938,0.014432728290557861,0.11740738153457642,0.13917630910873413
-0.10551250725984573,-0.2104606181383133,-0.23130632936954498,0.017225146293640137,0.11825293302536011,0.1688910722732544
-0.15177111327648163,-0.09637322276830673,-0.22349274158477783,0.028084520250558853,0.11526399850845337,0.20054060220718384
-0.2562483549118042,0.03906041383743286,-0.21505014598369598,0.03786596655845642,0.10656774044036865,0.21952557563781738
-0.36826226115226746,0.15878495573997498,-0.22268809378147125,0.0494772344827652,0.09077709913253784,0.20995104312896729
-0.4335569143295288,0.23060734570026398,-0.19614873826503754,0.08225703239440918,0.08238804340362549,0.17112982273101807
-0.4286964535713196,0.2226809710264206,-0.028030792251229286,0.13669690489768982,0.07708185911178589,0.11712270975112915
-0.4416152536869049,0.16446161270141602,0.23712807893753052,0.16344666481018066,0.07676452398300171,0.09364205598831177
-0.46421441435813904,0.09613245725631714,0.4405100643634796,0.11896339058876038,0.08078503608703613,0.08882451057434082
-0.4409593343734741,0.03411053121089935,0.48288193345069885,0.043428629636764526,0.09643608331680298,0.07501792907714844
-0.31391042470932007,-0.03249343857169151,0.3852098286151886,-0.012756168842315674,0.1255887746810913,0.05396413803100586
-0.12168028205633163,-0.03877663612365723,0.21753883361816406,-0.04677671194076538,0.1394881010055542,0.04358452558517456
0.023344801738858223,0.03154706209897995,0.04383907839655876,-0.0552155040204525,0.154421865940094,0.06440865993499756
0.07313864678144455,0.10039612650871277,-0.05796065181493759,-0.037953972816467285,0.15595519542694092,0.09689700603485107
0.04491829127073288,0.1491788923740387,-0.08407855033874512,-0.01895095407962799,0.1459241509437561,0.12019073963165283
0.02096807211637497,0.12638284265995026,-0.1034049466252327,-0.018504571169614792,0.14490288496017456,0.12569385766983032
0.041342392563819885,0.02754468470811844,-0.1375684142112732,-0.009402643889188766,0.16186070442199707,0.12994414567947388
0.09982187300920486,-0.043192293494939804,-0.142815962433815,-0.00876230001449585,0.15709012746810913,0.14410972595214844
0.14264069497585297,-0.05892534181475639,-0.09294217824935913,0.013707324862480164,0.16005438566207886,0.17656725645065308
0.02109013870358467,0.016306456178426743,-0.05535166710615158,0.023436829447746277,0.1581363081932068,0.22085344791412354
-0.21294042468070984,0.18478618562221527,-0.08767563849687576,0.01151338405907154,0.11833077669143677,0.22434604167938232
-0.33465349674224854,0.35545289516448975,-0.09379254281520844,0.030966492369771004,0.06636977195739746,0.1363411545753479
-0.3613005578517914,0.45557960867881775,0.047289762645959854,0.07897821068763733,0.04035460948944092,0.03352963924407959
-0.35069406032562256,0.45527663826942444,0.24514690041542053,0.07388672232627869,0.004496514797210693,-0.04275315999984741
-0.3000101149082184,0.33722275495529175,0.35858216881752014,0.028355687856674194,0.0199049711227417,-0.08789306879043579
-0.24655446410179138,0.1393662840127945,0.24236059188842773,-0.048759788274765015,0.024429023265838623,-0.10231614112854004
-0.2357569932937622,0.006087418179959059,-0.02275644615292549,-0.0931096076965332,0.0027359724044799805,-0.09741789102554321
-0.22163446247577667,0.008498824201524258,-0.22862863540649414,-0.06491875648498535,-0.03159666061401367,-0.10467720031738281
-0.08633428812026978,0.0564829483628273,-0.2746484577655792,-0.00752666499465704,-0.053715527057647705,-0.15527695417404175
0.19125477969646454,-0.02072661928832531,-0.21088746190071106,0.04084402322769165,-0.04404956102371216,-0.20835095643997192
0.4017177224159241,-0.14876434206962585,-0.13990436494350433,0.04033741354942322,-0.04421186447143555,-0.178167462348938
0.4203977882862091,-0.18654611706733704,-0.1950628012418747,-0.020561516284942627,-0.07391560077667236,-0.07906949520111084
0.2741943895816803,-0.03657029941678047,-0.2601897716522217,-0.041835516691207886,-0.08047956228256226,0.01037973165512085
0.017320582643151283,0.20075343549251556,-0.20895710587501526,0.005818694364279509,-0.0858343243598938,0.0418972373008728
-0.18623162806034088,0.297248899936676,0.04958406835794449,0.0823216438293457,-0.10517066717147827,-0.00022971630096435547
-0.23806829750537872,0.27314600348472595,0.30716651678085327,0.07571768760681152,-0.12350571155548096,-0.07123070955276489
-0.22784656286239624,0.15161621570587158,0.3301825225353241,0.002811998128890991,-0.08960968255996704,-0.09877437353134155
-0.20140290260314941,0.02648652158677578,0.18790242075920105,-0.0561881959438324,-0.05557626485824585,-0.08666884899139404
-0.311077356338501,0.019310684874653816,0.02615198865532875,-0.09318733215332031,-0.0682295560836792,-0.03334766626358032
-0.5106523036956787,0.10921882092952728,-0.0925632193684578,-0.10173684358596802,-0.09972488880157471,-0.004447340965270996
-0.5955849885940552,0.06505469232797623,-0.0996890589594841,-0.0418606698513031,-0.14311450719833374,-0.08227354288101196
-0.4971761405467987,0.007440880872309208,0.040866151452064514,0.04714471101760864,-0.17433702945709229,-0.20244097709655762
-0.21457281708717346,0.06001904606819153,0.08538419008255005,0.04553869366645813,-0.1836097240447998,-0.29445701837539673
0.04471023008227348,0.057109687477350235,-0.002723332727327943,0.006438732147216797,-0.15229666233062744,-0.3028686046600342
0.09770981967449188,-0.08606892079114914,-0.1670246720314026,-0.03075304627418518,-0.15491509437561035,-0.24141401052474976
0.0053170653991401196,-0.15280947089195251,-0.23295655846595764,-0.017521291971206665,-0.18930184841156006,-0.1720292568206787
-0.06732571125030518,-0.1044778823852539,-0.14190790057182312,0.03693631291389465,-0.2340846061706543,-0.173345685005188
-0.06728528439998627,-0.03648090362548828,0.019776735454797745,0.08240607380867004,-0.24187028408050537,-0.2224719524383545
0.017252430319786072,-0.08576935529708862,0.0782676488161087,0.07716277241706848,-0.2281309962272644,-0.2745249271392822
0.12031685560941696,-0.18701204657554626,0.005771872121840715,0.03674793243408203,-0.22378969192504883,-0.28119826316833496
0.15693308413028717,-0.1857457458972931,-0.08760414272546768,0.007225632667541504,-0.23724299669265747,-0.23556464910507202
0.0354003980755806,-0.08261892199516296,-0.15007153153419495,0.004490494728088379,-0.2599654197692871,-0.16254514455795288
-0.1298695206642151,0.05665072798728943,-0.10803256183862686,0.01881462335586548,-0.28052425384521484,-0.14349043369293213
-0.22218966484069824,0.049069907516241074,0.006674612406641245,0.03268751502037048,-0.30433982610702515,-0.2041308879852295
-0.20577900111675262,-0.10391759872436523,0.10270891338586807,0.04825213551521301,-0.2890692949295044,-0.27365535497665405
-0.12096045166254044,-0.2859092354774475,0.12004832178354263,0.026615113019943237,-0.2724921703338623,-0.30479657649993896
-0.11617382615804672,-0.38083773851394653,0.06924553215503693,-0.01024174690246582,-0.25862395763397217,-0.2656130790710449
-0.2452845722436905,-0.29296547174453735,-0.05395957827568054,-0.04658876359462738,-0.24064207077026367,-0.2012331485748291
-0.4769747853279114,-0.12040030211210251,-0.2691340446472168,-0.07509972155094147,-0.20027613639831543,-0.15112566947937012
-0.700032114982605,0.034229669719934464,-0.5427559018135071,-0.08871084451675415,-0.18921178579330444,-0.14012104272842407
-0.627794086933136,0.0436628982424736,-0.6183423399925232,-0.006922140717506409,-0.18939423561096191,-0.21473050117492676
-0.2511417269706726,0.015644971281290054,-0.42226848006248474,0.11713013052940369,-0.1685953140258789,-0.31167536973953247
0.16853581368923187,0.0817616730928421,-0.22005043923854828,0.11932885646820068,-0.13451313972473145,-0.2937712073326111
0.3335447907447815,0.1757829785346985,-0.19347944855690002,0.0238238126039505,-0.10414963960647583,-0.1703709363937378
0.2217267006635666,0.16510027647018433,-0.30861547589302063,-0.036044418811798096,-0.0563623309135437,-0.04903334379196167
-0.002264950890094042,0.09399540722370148,-0.44633713364601135,-0.032752007246017456,-0.033410608768463135,0.0077547430992126465
-0.07498499751091003,0.057782527059316635,-0.3573456108570099,0.057630255818367004,-0.03951823711395264,-0.020992398262023926
-0.0026143973227590322,0.07600878179073334,-0.006419583223760128,0.15920238196849823,-0.06276631355285645,-0.07139551639556885
0.12473925948143005,0.06630100309848785,0.41787993907928467,0.18138563632965088,-0.06759405136108398,-0.09556776285171509
0.2112574726343155,0.05874938890337944,0.6045269966125488,0.09781622886657715,-0.0007091164588928223,-0.06818497180938721
0.23394381999969482,0.005880978889763355,0.448412150144577,-0.015408515930175781,0.05598175525665283,-0.021735310554504395
0.2269090861082077,-0.0576561838388443,0.13434076309204102,-0.060867249965667725,0.10312420129776001,0.010487079620361328
0.21411795914173126,-0.06745058298110962,-0.05166863277554512,-0.03299601376056671,0.11308962106704712,0.0297468900680542
0.2747054398059845,-0.03216848522424698,0.058373309671878815,0.03522405028343201,0.06234538555145264,0.020896315574645996
0.38575416803359985,-0.0027113959658890963,0.3597317039966583,0.08830037713050842,0.04319888353347778,0.0069370269775390625
0.49495628476142883,-0.08506312966346741,0.5244445204734802,0.07071679830551147,0.07823538780212402,0.01853543519973755
0.4832281768321991,-0.16954338550567627,0.4271165132522583,0.0067778825759887695,0.13046878576278687,0.07552391290664673
0.3552319407463074,-0.1782163679599762,0.2180912345647812,-0.04322203993797302,0.1312844157218933,0.13404029607772827
0.23332133889198303,-0.07545067369937897,0.11096221208572388,-0.03958508372306824,0.10214501619338989,0.1404096484184265
0.2083723396062851,-0.016585135832428932,0.16827179491519928,0.007376731373369694,0.07771420478820801,0.09630841016769409
0.3235678970813751,-0.044680509716272354,0.2824053466320038,0.061933666467666626,0.09609931707382202,0.04709160327911377
0.4349256455898285,-0.05043564364314079,0.2726297378540039,0.03269645571708679,0.11966097354888916,0.05929833650588989
0.41406890749931335,-0.023020843043923378,0.08491553366184235,-0.025085031986236572,0.11397647857666016,0.12494397163391113
0.332867830991745,0.005585637409240007,-0.08128904551267624,-0.03042122721672058,0.10372090339660645,0.16433751583099365
0.26540789008140564,0.016535624861717224,-0.07171140611171722,0.004559190943837166,0.07410579919815063,0.1658431887626648
0.22663623094558716,0.01717553474009037,0.08830712735652924,0.04565998911857605,0.04347372055053711,0.14111703634262085
0.2251359522342682,-0.023104902356863022,0.25840672850608826,0.0625358521938324,0.03921496868133545,0.1085239052772522
0.25740787386894226,-0.032717056572437286,0.30421778559684753,0.03444194421172142,0.05861091613769531,0.08779346942901611
0.23503494262695312,0.012565560638904572,0.2543986141681671,0.005607485771179199,0.07276880741119385,0.09013551473617554
0.1583692580461502,0.0824604406952858,0.20441673696041107,0.0037612318992614746,0.08638489246368408,0.08753526210784912
0.121592678129673,0.10381655395030975,0.17616678774356842,-0.0025013089179992676,0.08054053783416748,0.05824387073516846
0.24884898960590363,0.027554582804441452,0.2288733869791031,0.011619064956903458,0.06228691339492798,-0.008680343627929688
0.4369848966598511,-0.10804452002048492,0.2865027189254761,0.03404560685157776,0.09422928094863892,-0.03567516803741455
0.5463849902153015,-0.1542184054851532,0.2780124843120575,0.01963713765144348,0.11555266380310059,0.002573728561401367
0.4694569706916809,-0.07363399863243103,0.20185548067092896,0.012371182441711426,0.14916080236434937,0.0769343376159668
0.33659419417381287,0.007838540710508823,0.144596129655838,0.01727036014199257,0.15575844049453735,0.10194629430770874
0.36484068632125854,-0.025003381073474884,0.1448819488286972,0.03867050260305405,0.18467354774475098,0.07234376668930054
