rotation_x,rotation_y,rotation_z,acceleration_x,acceleration_y,acceleration_z
0.23328231275081635,-0.10878724604845047,-0.1277719885110855,-0.034878335893154144,0.0755719542503357,-0.013621479272842407
-0.020722022280097008,0.23631522059440613,-0.3503265380859375,-0.0811665877699852,0.018396973609924316,0.08111569285392761
-0.26740318536758423,0.3545580804347992,-0.3677789568901062,-0.031052909791469574,-0.02817898988723755,0.08581069111824036
-0.4031662344932556,0.1778746247291565,-0.1913307011127472,0.05725444108247757,-0.027388274669647217,0.03646349906921387
-0.4062846899032593,-0.09789314866065979,0.028862033039331436,0.0936402678489685,-0.029184341430664062,-0.021412312984466553
-0.23696544766426086,-0.2672049403190613,0.2002263367176056,0.09161508828401566,-0.020773231983184814,-0.07534536719322205
-0.004150657448917627,-0.255784809589386,0.2725852131843567,0.06184566766023636,0.006570219993591309,-0.0859835147857666
0.11554273217916489,-0.16249199211597443,0.22277894616127014,0.021028250455856323,0.027802884578704834,-0.04370921850204468
0.10634005814790726,-0.04452231153845787,0.10242894291877747,-0.023759067058563232,0.030017733573913574,0.004950106143951416
0.03498543053865433,0.034114036709070206,-0.013705833815038204,-0.04491405934095383,0.022030949592590332,0.03787654638290405
-0.06286761164665222,0.05302475392818451,-0.07273781299591064,-0.03333139419555664,0.013663768768310547,0.045738816261291504
-0.05499915033578873,-0.016309944912791252,-0.019440829753875732,0.0035105571150779724,-0.005509555339813232,0.014798879623413086
-0.0059101213701069355,-0.04475368931889534,0.048593878746032715,0.019026964902877808,0.011992275714874268,-0.010045051574707031
-0.024148600175976753,-0.15149860084056854,0.04999207332730293,0.02215820550918579,0.033242881298065186,0.0059506893157958984
-0.03147256746888161,-0.15414132177829742,0.015482612885534763,0.005670487880706787,0.033649742603302,0.018567383289337158
-0.009271495044231415,-0.05993162840604782,-0.033220238983631134,-0.0035719797015190125,0.0350877046585083,0.025474965572357178
-0.03160172328352928,0.02492329850792885,-0.05189460888504982,0.015060871839523315,0.0423588752746582,0.041555166244506836
-0.05583414435386658,0.04347586631774902,-0.030558306723833084,0.026750586926937103,0.03245401382446289,0.04559570550918579
-0.016086699441075325,0.04944635555148125,-0.009055286645889282,0.02489817887544632,0.032626211643218994,0.022495418787002563
0.04311204329133034,0.029016008600592613,-0.010564501397311687,0.029908321797847748,0.06441724300384521,0.023603081703186035
0.054467398673295975,0.06918783485889435,-0.04713562875986099,0.019874215126037598,0.0785825252532959,0.045359253883361816
0.06097907945513725,0.11881756782531738,-0.09964001923799515,0.01915755867958069,0.09637254476547241,0.06444156169891357
0.05284172669053078,0.19143597781658173,-0.14547553658485413,0.018594682216644287,0.11494135856628418,0.08241909742355347
-0.01320601999759674,0.25460752844810486,-0.19392281770706177,0.013604283332824707,0.12072610855102539,0.10654091835021973
-0.09730657935142517,0.24960669875144958,-0.1938621550798416,0.024823971092700958,0.13206571340560913,0.11157652735710144
-0.10722970217466354,0.17685562372207642,-0.14309300482273102,0.038740016520023346,0.13616585731506348,0.07782575488090515
-0.0841488316655159,0.07361426949501038,-0.0920557901263237,0.05459878221154213,0.17462241649627686,0.05608794093132019
-0.12833271920681,-0.014041172340512276,-0.08713015168905258,0.057212330400943756,0.1971660852432251,0.07408589124679565
-0.17571735382080078,0.01688321679830551,-0.08226289600133896,0.05170578509569168,0.19475382566452026,0.09112578630447388
-0.18828634917736053,0.12408006191253662,-0.07630686461925507,0.04492507129907608,0.1925520896911621,0.08474022150039673
-0.2070951759815216,0.16314750909805298,-0.08511140197515488,0.04707539454102516,0.22756463289260864,0.0897318422794342
-0.25140997767448425,0.15373560786247253,-0.10042618960142136,0.038027018308639526,0.24594277143478394,0.096343994140625
-0.23878715932369232,0.08968931436538696,-0.10049274563789368,0.02745905891060829,0.25125235319137573,0.08670505881309509
-0.1509171426296234,0.012397999875247478,-0.1141786128282547,0.012172792106866837,0.25183534622192383,0.0747043788433075
-0.1123298928141594,-0.01175928208976984,-0.13632690906524658,0.004171732813119888,0.2484050989151001,0.09988132119178772
-0.17615172266960144,0.05863325670361519,-0.16982945799827576,-0.0028751790523529053,0.23593944311141968,0.13721251487731934
-0.2529102563858032,0.15424390137195587,-0.1621275246143341,0.005683690309524536,0.22587668895721436,0.14595067501068115
-0.26301848888397217,0.2071002870798111,-0.10602940618991852,0.011171996593475342,0.21966177225112915,0.11777842044830322
-0.22413237392902374,0.13827626407146454,-0.04541182145476341,0.024984654039144516,0.2333155870437622,0.10203802585601807
-0.1673591434955597,0.06684282422065735,0.03168712183833122,0.024905920028686523,0.224331796169281,0.1062743067741394
-0.13331374526023865,0.09107141941785812,0.11094710975885391,0.014107469469308853,0.19739395380020142,0.1261269450187683
-0.11991646885871887,0.15802547335624695,0.18081049621105194,0.025658581405878067,0.16483676433563232,0.1255640983581543
-0.12252336740493774,0.3585481345653534,0.2593221366405487,0.03475546836853027,0.13640093803405762,0.1210474967956543
-0.15284357964992523,0.5894764065742493,0.30064326524734497,0.021613121032714844,0.10629135370254517,0.10761183500289917
-0.2721070945262909,0.6728322505950928,0.2312537431716919,0.0007654689252376556,0.09712189435958862,0.10093802213668823
-0.40724700689315796,0.5656185746192932,0.08335389196872711,-0.01690584234893322,0.07348126173019409,0.08018413186073303
-0.4614560604095459,0.41301295161247253,-0.07532671838998795,-0.029685884714126587,0.052180349826812744,0.05041080713272095
-0.5048447251319885,0.24603988230228424,-0.17717047035694122,-0.019958527758717537,0.01208484172821045,0.0411686897277832
-0.6097646355628967,0.19966310262680054,-0.20659181475639343,0.0014791488647460938,-0.05160868167877197,0.04493182897567749
-0.6752215623855591,0.2855713665485382,-0.19085270166397095,0.02409970760345459,-0.11607331037521362,0.02000337839126587
-0.6417280435562134,0.47465136647224426,-0.10786996781826019,0.05072474479675293,-0.12473464012145996,-0.032981157302856445
-0.5291253924369812,0.4893565773963928,0.0011817235499620438,0.05860760807991028,-0.1166069507598877,-0.08507096767425537
-0.4648062288761139,0.3313532769680023,0.07457037270069122,0.03435230255126953,-0.08597177267074585,-0.09353870153427124
-0.46833592653274536,0.15642473101615906,0.0939878523349762,-0.0032886574044823647,-0.0965644121170044,-0.0837908387184143
-0.4943273663520813,0.11568726599216461,0.05326242744922638,-0.03785070776939392,-0.11802583932876587,-0.08203518390655518
-0.4515474736690521,0.12034506350755692,0.04278380796313286,-0.026136040687561035,-0.13512450456619263,-0.118682861328125
-0.2566039562225342,0.10119516402482986,0.07064303010702133,0.009918391704559326,-0.12163031101226807,-0.18063819408416748
0.009018957614898682,0.12556855380535126,0.10721027106046677,0.027325153350830078,-0.08479851484298706,-0.19278138875961304
0.16475573182106018,0.13103087246418,0.07084936648607254,-0.0038950443267822266,-0.07673609256744385,-0.14907491207122803
0.16893398761749268,0.13818193972110748,0.02494698390364647,-0.03372809290885925,-0.0924118161201477,-0.09830206632614136
0.10197743028402328,0.14378824830055237,0.02451615408062935,-0.03317341208457947,-0.12821048498153687,-0.09124386310577393
0.07650572806596756,0.13046148419380188,0.11814931035041809,0.007362872362136841,-0.14471560716629028,-0.12962114810943604
0.14090093970298767,0.04180498048663139,0.22083556652069092,0.031276196241378784,-0.12605947256088257,-0.17007994651794434
0.24408017098903656,-0.07079031318426132,0.2890883684158325,0.031384021043777466,-0.10109233856201172,-0.17496860027313232
0.2978050112724304,-0.1439129114151001,0.2548730969429016,0.004076540470123291,-0.08285915851593018,-0.14252066612243652
0.2573971450328827,-0.09743668138980865,0.13424251973628998,-0.032000452280044556,-0.09482622146606445,-0.08994942903518677
0.14889980852603912,0.09167567640542984,0.03429406136274338,-0.033241480588912964,-0.11918187141418457,-0.05546689033508301
0.03293558582663536,0.274150013923645,-0.004813227336853743,-0.014602452516555786,-0.15241557359695435,-0.0647808313369751
0.0004451521672308445,0.3447995185852051,0.011357643641531467,0.00557863712310791,-0.16917330026626587,-0.11717855930328369
0.010728063061833382,0.2857794463634491,0.02506554126739502,0.01747789978981018,-0.16630446910858154,-0.16365063190460205
-0.10340134054422379,0.21341738104820251,-0.017454389482736588,-0.0109405517578125,-0.19033241271972656,-0.15107476711273193
-0.3541053831577301,0.3014802932739258,-0.10865503549575806,-0.0456770658493042,-0.266055703163147,-0.12464630603790283
-0.591957151889801,0.45833247900009155,-0.214329794049263,-0.06130996346473694,-0.3544490337371826,-0.1620934009552002
-0.6016761064529419,0.546314537525177,-0.26223063468933105,-0.04805117845535278,-0.449673593044281,-0.3031730651855469
-0.3327922821044922,0.4292818009853363,-0.21490715444087982,0.013032525777816772,-0.467143177986145,-0.46585512161254883
-0.009585985913872719,0.1488693803548813,-0.17770469188690186,0.07123619318008423,-0.4245970845222473,-0.5223733186721802
-0.023426173254847527,-0.10935423523187637,-0.18747925758361816,0.07747989147901535,-0.4213094711303711,-0.42717212438583374
-0.2821049094200134,-0.16240833699703217,-0.2132735252380371,0.07110202312469482,-0.463914155960083,-0.32921743392944336
-0.348279744386673,-0.13062353432178497,-0.16217654943466187,0.100396066904068,-0.4312959909439087,-0.33337855339050293
-0.11224737763404846,-0.13955675065517426,-0.0666799545288086,0.09492382407188416,-0.36934274435043335,-0.3631305694580078
0.17694693803787231,-0.19816070795059204,-0.19969041645526886,0.009939484298229218,-0.3108642101287842,-0.3230275511741638
0.357465922832489,-0.24844104051589966,-0.5643655061721802,-0.06379479169845581,-0.23026585578918457,-0.20822423696517944
0.3610811233520508,-0.15359902381896973,-0.898716926574707,-0.052963413298130035,-0.16939067840576172,-0.09105437994003296
0.22537653148174286,0.0578150674700737,-1.0122276544570923,-0.00624731183052063,-0.14629888534545898,-0.00498044490814209
0.0778043195605278,0.2733142077922821,-0.8970255851745605,0.06717538833618164,-0.12025266885757446,0.014257371425628662
0.03922010958194733,0.41385242342948914,-0.7287530303001404,0.1184849962592125,-0.09808927774429321,-0.03143030405044556
0.11940288543701172,0.48723703622817993,-0.6485134959220886,0.12982702255249023,-0.027136266231536865,-0.07071495056152344
0.2878318428993225,0.4556479752063751,-0.6255699396133423,0.12677669525146484,0.05899173021316528,-0.06310731172561646
0.31008410453796387,0.4187849462032318,-0.6210029125213623,0.07748208940029144,0.100807785987854,0.021373093128204346
0.025778738781809807,0.35310590267181396,-0.5505882501602173,0.039565011858940125,0.07736915349960327,0.1330525279045105
-0.39747145771980286,0.3195769488811493,-0.3068062365055084,0.052899301052093506,0.023012638092041016,0.1662333607673645
-0.6647680401802063,0.2910822331905365,0.040932752192020416,0.08447211980819702,-0.03025364875793457,0.09107804298400879
-0.6131777167320251,0.19085456430912018,0.3141461908817291,0.08725437521934509,-0.02464890480041504,-0.03340351581573486
-0.3755408525466919,0.06451188027858734,0.387397825717926,0.03729832172393799,0.011587262153625488,-0.09637504816055298
-0.14433282613754272,-0.055799178779125214,0.31379178166389465,-0.023328304290771484,0.03615415096282959,-0.07845485210418701
-0.07842456549406052,-0.08524759858846664,0.22185158729553223,-0.06798145174980164,0.030713379383087158,0.0037292838096618652
-0.22958549857139587,-0.007576348725706339,0.13830122351646423,-0.10230940580368042,-0.0072863101959228516,0.08212625980377197
-0.3960772454738617,0.1115427240729332,0.016092240810394287,-0.11864055693149567,-0.04388689994812012,0.08502286672592163
-0.33570629358291626,0.1266929805278778,0.00027204304933547974,-0.046751052141189575,-0.039867401123046875,-0.010505914688110352
-0.09144095331430435,0.1574692577123642,0.12763558328151703,0.028620660305023193,-0.027296721935272217,-0.09545987844467163
0.15957972407341003,0.11251115053892136,0.2786153554916382,0.04356065392494202,-0.028996706008911133,-0.10730099678039551
0.21191208064556122,0.05860448628664017,0.37616685032844543,0.007173269987106323,-0.035379886627197266,-0.04828113317489624
0.08594851195812225,0.015059263445436954,0.3779687285423279,-0.03996008634567261,-0.02842766046524048,0.013223469257354736
-0.03305484354496002,-0.03490149974822998,0.29607129096984863,-0.06170293688774109,-0.004318594932556152,0.02354717254638672
0.04195357859134674,-0.09283553063869476,0.20708894729614258,-0.057130470871925354,0.013342022895812988,-0.02796727418899536
0.27170512080192566,-0.1825796365737915,0.22035472095012665,-0.004796877503395081,0.0426255464553833,-0.0704796314239502
0.5005362629890442,-0.2857673764228821,0.31934747099876404,0.0339692085981369,0.07317060232162476,-0.04098999500274658
0.5669156908988953,-0.21124862134456635,0.41840070486068726,0.018387258052825928,0.09405457973480225,0.05013030767440796
0.42092177271842957,-0.07770287990570068,0.4442518949508667,-0.017847806215286255,0.11287152767181396,0.13797295093536377
0.21755743026733398,-0.01253487914800644,0.40339115262031555,-0.04006773233413696,0.13592767715454102,0.1655898094177246
0.15007777512073517,-0.0014077769592404366,0.33443960547447205,-0.04894578456878662,0.14719665050506592,0.12484371662139893
0.18537989258766174,-0.007848815061151981,0.30721691250801086,-0.02729320526123047,0.14920777082443237,0.06501555442810059
0.2602500021457672,-0.07047061622142792,0.35843661427497864,0.01244731992483139,0.1546376347541809,0.02386176586151123
0.2806861996650696,-0.06875817477703094,0.45883649587631226,0.03640544414520264,0.16588300466537476,0.015498161315917969
0.23779931664466858,-0.046825408935546875,0.5068815350532532,0.019283197820186615,0.16712331771850586,0.023057997226715088
0.23191674053668976,-0.053093474358320236,0.5115157961845398,-0.006378263235092163,0.16401559114456177,-0.004648804664611816
0.3034683167934418,-0.14391353726387024,0.48969709873199463,-0.019036471843719482,0.2038366198539734,-0.0345076322555542
0.38505569100379944,-0.3407341539859772,0.3791347146034241,-0.03088921308517456,0.2620331645011902,-0.0191420316696167
0.44239380955696106,-0.4171803593635559,0.2208024263381958,-0.05368945375084877,0.2833220362663269,0.006525754928588867
0.5499127507209778,-0.3486330509185791,0.12875528633594513,-0.039231687784194946,0.2685282230377197,0.012610673904418945
0.6614062190055847,-0.2386338710784912,0.16850997507572174,-0.006842795759439468,0.23916411399841309,0.024864494800567627
0.6818814873695374,-0.1694059669971466,0.23253756761550903,0.0011861883103847504,0.22583454847335815,0.05791693925857544
0.6109297275543213,-0.16021448373794556,0.2545969486236572,-0.008597316220402718,0.2134152054786682,0.08876088261604309
0.4907017946243286,-0.2344190925359726,0.24290291965007782,-0.014293701387941837,0.21038973331451416,0.11000785231590271
0.349888414144516,-0.3151206076145172,0.1602168083190918,-0.03454872965812683,0.17733299732208252,0.12271451950073242
0.24673914909362793,-0.2581288814544678,0.03462103009223938,-0.04047086834907532,0.16507619619369507,0.11459681391716003
0.2555651068687439,-0.16978125274181366,-0.076841801404953,-0.014676451683044434,0.14508205652236938,0.07550376653671265
0.3968431055545807,-0.14312562346458435,-0.1038302406668663,0.021728485822677612,0.11728721857070923,0.03233560919761658
0.5466320514678955,-0.16928629577159882,-0.05136272683739662,0.0425056517124176,0.0933493971824646,0.030209898948669434
0.5737013220787048,-0.23180818557739258,0.00355818634852767,0.023978054523468018,0.0730595588684082,0.08413240313529968
0.41922175884246826,-0.25826296210289,0.029844483360648155,-0.01480013132095337,0.04179501533508301,0.1580401360988617
0.15929841995239258,-0.2353409081697464,-0.01339862123131752,-0.04617792367935181,0.017782866954803467,0.20586222410202026
-0.07859495282173157,-0.12250487506389618,-0.09290514141321182,-0.05098223686218262,0.00837165117263794,0.2056443989276886
-0.13963577151298523,0.008382139727473259,-0.1458759754896164,-0.03470110893249512,-0.003069639205932617,0.14370644092559814
-0.10423139482736588,0.08732044696807861,-0.11708545684814453,0.0017386376857757568,-0.012022972106933594,0.07478731870651245
-0.08658797293901443,0.104718878865242,-0.10420490056276321,0.016148149967193604,-0.016846537590026855,0.035135090351104736
-0.057942453771829605,0.09064227342605591,-0.13516569137573242,0.010563462972640991,-0.018034696578979492,0.0001627802848815918
-0.004402811173349619,0.03722498565912247,-0.18489108979701996,0.017349272966384888,-0.002855062484741211,-0.02743750810623169
0.08592115342617035,-0.058168329298496246,-0.20553302764892578,0.03424912691116333,0.0004544258117675781,-0.044414401054382324
0.15814822912216187,-0.1304069608449936,-0.14797210693359375,0.05823361873626709,-0.006342470645904541,-0.0298556387424469
0.16809320449829102,-0.12517674267292023,-0.027445469051599503,0.06050753593444824,-0.023669779300689697,0.012704819440841675
0.084239661693573,-0.060473889112472534,0.09161195904016495,0.04107475280761719,-0.02029186487197876,0.06072726845741272
-0.026109369471669197,-0.003640738083049655,0.14771941304206848,0.009099811315536499,-0.004500091075897217,0.08205521106719971
-0.106315016746521,0.005679734982550144,0.1422998309135437,-0.015428544022142887,0.030644714832305908,0.07226386666297913
-0.0964711457490921,-0.022587796673178673,0.08831813931465149,-0.037618041038513184,0.05712008476257324,0.04903769493103027
-0.03661608695983887,-0.05608789622783661,0.012640547007322311,-0.04677778482437134,0.08807885646820068,0.03967192769050598
-0.027204059064388275,-0.08460839092731476,-0.07940524071455002,-0.052251607179641724,0.09860265254974365,0.05987042188644409
-0.11999128013849258,-0.1382588893175125,-0.0987643450498581,-0.034275442361831665,0.09603464603424072,0.10003042221069336
-0.27566346526145935,-0.16970466077327728,-0.061847563832998276,-0.01646098494529724,0.09706997871398926,0.1251806616783142
-0.40271273255348206,-0.18916954100131989,-0.040664780884981155,-0.011691123247146606,0.09988915920257568,0.12098169326782227
-0.4494136869907379,-0.18498827517032623,-0.05863739177584648,-0.013556630350649357,0.11856275796890259,0.10515442490577698
-0.40116316080093384,-0.15173979103565216,-0.10134385526180267,-0.00921657681465149,0.13926291465759277,0.0934339165687561
-0.3407529890537262,-0.09727859497070312,-0.11060422658920288,0.004910617135465145,0.15358567237854004,0.10790535807609558
-0.36039888858795166,-0.016500921919941902,-0.10025474429130554,0.007053256034851074,0.15499430894851685,0.14472872018814087
-0.4447583258152008,0.04847552999854088,-0.08437654376029968,0.010005207732319832,0.16240572929382324,0.16862893104553223
-0.5333095192909241,0.09179430454969406,-0.07358492910861969,0.010989844799041748,0.17566514015197754,0.16181260347366333
-0.5325348377227783,0.12251164764165878,-0.06745021045207977,0.008780984207987785,0.20117652416229248,0.13114097714424133
-0.44601529836654663,0.13467639684677124,-0.07444175332784653,0.004127919673919678,0.22764062881469727,0.1022716760635376
-0.2829737365245819,0.10291644930839539,-0.09607736766338348,0.002324819564819336,0.24876177310943604,0.07909893989562988
-0.08913961797952652,0.02141445130109787,-0.06867466121912003,0.006359755992889404,0.25944089889526367,0.07123726606369019
0.07639715075492859,-0.08626560866832733,-0.0004434497095644474,0.014743417501449585,0.24598753452301025,0.08314800262451172
0.16541925072669983,-0.13098391890525818,0.09711818397045135,0.016786811873316765,0.2312096357345581,0.10203754901885986
0.18738871812820435,-0.13131555914878845,0.2569195330142975,0.04271093010902405,0.19514214992523193,0.09452632069587708
0.1774791032075882,-0.1534438282251358,0.47691699862480164,0.07147681713104248,0.17411881685256958,0.07262149453163147
0.0537995845079422,-0.12177237123250961,0.6223495602607727,0.0529208779335022,0.15691602230072021,0.08080899715423584
-0.1860937625169754,-0.07247208058834076,0.5846774578094482,0.006788761354982853,0.1447318196296692,0.08855947852134705
-0.38959071040153503,-0.03740351274609566,0.4073754549026489,-0.03608313202857971,0.145829439163208,0.06797367334365845
-0.4396500885486603,-0.007025083526968956,0.16957144439220428,-0.05768752098083496,0.15839266777038574,0.01960211992263794
-0.3087206482887268,-0.028924670070409775,-0.051377370953559875,-0.059328675270080566,0.17258423566818237,-0.02818506956100464
-0.16583558917045593,-0.08529931306838989,-0.23799194395542145,-0.05684277415275574,0.18043887615203857,-0.01726388931274414
-0.13179205358028412,-0.09002813696861267,-0.3737298846244812,-0.052993446588516235,0.15588414669036865,0.03986489772796631
-0.18994052708148956,-0.05671410635113716,-0.4425734579563141,-0.04438337683677673,0.1160387396812439,0.0831725001335144
-0.23085947334766388,-0.015077448450028896,-0.3949422836303711,-0.007847994565963745,0.08388930559158325,0.06823486089706421
-0.19925779104232788,-0.06870604306459427,-0.26530811190605164,0.03430578112602234,0.07567077875137329,0.023762762546539307
-0.13337023556232452,-0.203683003783226,-0.17994871735572815,0.047284334897994995,0.0963665246963501,0.009683430194854736
-0.06979294121265411,-0.2809150218963623,-0.19690370559692383,0.021183669567108154,0.09772342443466187,0.029920995235443115
-0.019785162061452866,-0.24101386964321136,-0.24402518570423126,0.0065355002880096436,0.08101314306259155,0.0583837628364563
-0.024704212322831154,-0.13168656826019287,-0.2514367699623108,0.015036195516586304,0.04093945026397705,0.06308978796005249
-0.107730932533741,0.02098333276808262,-0.21118701994419098,0.0317247211933136,-0.0141754150390625,0.03535193204879761
-0.12730547785758972,0.1615813821554184,-0.15873008966445923,0.03336837887763977,-0.061253249645233154,-0.017258286476135254
-0.06100675091147423,0.20575007796287537,-0.08533778041601181,0.028430433943867683,-0.06491756439208984,-0.07198220491409302
0.004698003176599741,0.14466962218284607,-0.00862706359475851,0.024366406723856926,-0.050154924392700195,-0.10100340843200684
0.004925703164190054,0.04189290851354599,0.07367952913045883,0.015463350340723991,-0.045173704624176025,-0.08880501985549927
-0.07139822095632553,0.03284232318401337,0.045436013489961624,-0.02655971050262451,-0.04440426826477051,-0.06304782629013062
-0.20713956654071808,0.13128501176834106,-0.06670713424682617,-0.048056453466415405,-0.06685525178909302,-0.050871074199676514
-0.24665075540542603,0.2065442055463791,-0.09145170450210571,-0.01899796910583973,-0.14052361249923706,-0.11019480228424072
-0.09756463766098022,0.18675696849822998,0.0453738234937191,0.03424173593521118,-0.19184380769729614,-0.1957697868347168
0.14819902181625366,0.07608732581138611,0.20439648628234863,0.048236340284347534,-0.19861507415771484,-0.23153382539749146
0.3232910931110382,-0.06435990333557129,0.19769448041915894,0.016240626573562622,-0.15897470712661743,-0.19596153497695923
0.40787529945373535,-0.11705420166254044,0.053033679723739624,-0.021855592727661133,-0.1217164397239685,-0.1292417049407959
0.3688317537307739,-0.05598445236682892,-0.12029522657394409,-0.034870535135269165,-0.10983240604400635,-0.06016397476196289
0.21201878786087036,0.051341090351343155,-0.245826855301857,-0.02544426918029785,-0.1505478024482727,-0.018059849739074707
0.03272064030170441,0.16950075328350067,-0.24877773225307465,0.0218161940574646,-0.18968117237091064,-0.034444987773895264
-0.038520053029060364,0.20111273229122162,-0.13862702250480652,0.07282659411430359,-0.17667490243911743,-0.08765929937362671
-0.029086537659168243,0.12160693854093552,-0.02053893357515335,0.07045024633407593,-0.16555535793304443,-0.12482476234436035
-0.04143674671649933,-0.006449188105762005,-0.0391518659889698,0.005513638257980347,-0.1927410364151001,-0.1226266622543335
-0.12951819598674774,-0.10621342062950134,-0.03708246350288391,-0.0017521940171718597,-0.246596097946167,-0.11824631690979004
-0.20416539907455444,-0.23025217652320862,0.13097088038921356,0.04196298122406006,-0.3103412389755249,-0.16903156042099
-0.3076891303062439,-0.34227699041366577,0.34644564986228943,0.06019949913024902,-0.34522169828414917,-0.20143365859985352
-0.3398993909358978,-0.34436899423599243,0.43037739396095276,0.032374680042266846,-0.3647729754447937,-0.23502850532531738
-0.21844832599163055,-0.11526783555746078,0.35694122314453125,-0.007502526510506868,-0.367697536945343,-0.27565819025039673
-0.1866195648908615,0.09450843185186386,0.2335703819990158,-0.015695959329605103,-0.3799087405204773,-0.2853083610534668
-0.30176472663879395,0.10859496891498566,0.26749879121780396,0.03836652636528015,-0.40625059604644775,-0.3058130145072937
-0.49095916748046875,-0.07062522321939468,0.479250967502594,0.08803221583366394,-0.4416765570640564,-0.3493562340736389
-0.5985415577888489,-0.47043707966804504,0.8425491452217102,0.09892910718917847,-0.4903009533882141,-0.4179121255874634
-0.5939366817474365,-0.9746786952018738,1.127982258796692,0.08752861618995667,-0.4450679421424866,-0.4512789249420166
-0.466198205947876,-1.1675444841384888,1.008250117301941,-0.010303616523742676,-0.38012242317199707,-0.40465497970581055
-0.13168016076087952,-0.6901900768280029,0.4733230471611023,-0.12111717462539673,-0.29606688022613525,-0.3257145881652832
0.2785842716693878,0.23668421804904938,-0.2271968275308609,-0.19431504607200623,-0.217818021774292,-0.24467194080352783
0.4746304750442505,0.8844805359840393,-0.6977751851081848,-0.17347943782806396,-0.1941624879837036,-0.14587736129760742
0.5175716876983643,0.943804144859314,-0.655205249786377,-0.013375334441661835,-0.21493744850158691,-0.15388423204421997
0.49021023511886597,0.4321771562099457,-0.2312421351671219,0.16274097561836243,-0.1782311201095581,-0.1830938458442688
0.2377466857433319,-0.17580591142177582,0.17310938239097595,0.19167080521583557,-0.14224839210510254,-0.13465571403503418
-0.06580506265163422,-0.489458292722702,0.32609039545059204,0.09926152229309082,-0.14833658933639526,-0.07475090026855469
-0.23251426219940186,-0.47773662209510803,0.22601522505283356,0.0024718940258026123,-0.11447525024414062,-0.04012739658355713
-0.19924648106098175,-0.3662431538105011,0.03570277988910675,-0.06494519114494324,-0.07401072978973389,-0.020535945892333984
-0.04025283828377724,-0.06817582994699478,-0.17489568889141083,-0.12022209167480469,-0.036487579345703125,-0.011188030242919922
0.10110948979854584,0.1469540148973465,-0.40713098645210266,-0.11754032969474792,0.02486598491668701,0.020374298095703125
0.07522883266210556,0.33839473128318787,-0.6010825037956238,-0.08611476421356201,0.05639606714248657,0.04972994327545166
-0.05837491154670715,0.39473631978034973,-0.6912199258804321,-0.03597190976142883,0.04435884952545166,0.06526386737823486
-0.14032337069511414,0.346112459897995,-0.5803903937339783,0.011028558015823364,0.014943897724151611,0.056310176849365234
-0.18309466540813446,0.28735896944999695,-0.3466331958770752,0.023525595664978027,-0.01851630210876465,0.04770064353942871
-0.28552037477493286,0.18399688601493835,-0.15008869767189026,0.015029728412628174,-0.007130265235900879,0.05610179901123047
-0.4130011796951294,0.0562443770468235,-0.07227558642625809,0.0025529563426971436,0.018765926361083984,0.050472140312194824
-0.41642990708351135,-0.11294244229793549,-0.0950847938656807,-0.00745701789855957,0.04713273048400879,0.024495720863342285
-0.1757332980632782,-0.23355990648269653,-0.1239844262599945,-0.012397706508636475,0.07762432098388672,-0.003939032554626465
0.16106827557086945,-0.25836992263793945,-0.11339519172906876,-0.019331753253936768,0.09119260311126709,0.010737121105194092
0.18245702981948853,-0.11033832281827927,-0.07385330647230148,-0.02629414200782776,0.11494225263595581,0.11109566688537598
-0.08313339203596115,0.0014780920464545488,-0.004304500762373209,-0.021606266498565674,0.11572921276092529,0.1873927116394043
-0.30393335223197937,0.03995339944958687,0.08745671808719635,-0.0009328126907348633,0.13117241859436035,0.1827080249786377
-0.28668585419654846,0.01816682703793049,0.13390229642391205,0.010493874549865723,0.16030502319335938,0.12429666519165039
-0.0911526307463646,-0.042200930416584015,0.15423108637332916,0.02126598358154297,0.18199002742767334,0.08220231533050537
0.14918503165245056,-0.09922842681407928,0.16243921220302582,0.023181678727269173,0.2200799584388733,0.08963984251022339
0.36687150597572327,-0.09198475629091263,0.23291629552841187,0.025295468047261238,0.23989880084991455,0.14003604650497437
0.2595273554325104,0.07495898008346558,0.39181700348854065,0.02664250135421753,0.27301502227783203,0.22471415996551514
-0.23082250356674194,0.12389766424894333,0.42462193965911865,-0.01732158660888672,0.25634992122650146,0.2967183589935303
-0.6831090450286865,0.10039320588111877,0.25640323758125305,-0.09739759564399719,0.18155807256698608,0.2509307265281677
-0.6880083680152893,0.07124125957489014,0.08676517754793167,-0.09690490365028381,0.14839661121368408,0.08697211742401123
-0.3381213843822479,0.08136808127164841,0.012526732869446278,-0.05059760436415672,0.1543738842010498,-0.051693737506866455
-0.06596465408802032,0.07148077338933945,-0.01846468262374401,-0.015439093112945557,0.15441912412643433,-0.0762987732887268
0.016386274248361588,0.061167191714048386,-0.038760170340538025,-0.00540691614151001,0.12414407730102539,-0.05171680450439453
0.0893632173538208,0.028557762503623962,-0.04534151405096054,0.01246228814125061,0.10000675916671753,-0.06910938024520874
0.26749154925346375,-0.06408918648958206,-0.06815217435359955,0.017399579286575317,0.09412109851837158,-0.10435813665390015
0.5035746693611145,-0.20179975032806396,-0.11422939598560333,0.028139233589172363,0.10997700691223145,-0.10849356651306152
0.700615406036377,-0.2832314968109131,-0.14517733454704285,0.039822522550821304,0.14962518215179443,-0.06114929914474487
0.7445001006126404,-0.2608409523963928,-0.17599472403526306,0.019908402115106583,0.14988857507705688,0.029653549194335938
0.6471216082572937,-0.16453105211257935,-0.2018897831439972,0.003623485565185547,0.14664900302886963,0.1022987961769104
0.47997424006462097,-0.16857562959194183,-0.17827212810516357,0.010889619588851929,0.14203548431396484,0.1403261423110962
0.35872429609298706,-0.24183659255504608,-0.13775819540023804,0.01631743088364601,0.14523416757583618,0.13563048839569092
0.3304186463356018,-0.3198760449886322,-0.11732985079288483,0.0329243540763855,0.1637149453163147,0.10967302322387695
0.30198049545288086,-0.34343379735946655,-0.10002023726701736,0.049722880125045776,0.16343313455581665,0.10507607460021973
0.21603825688362122,-0.2547813951969147,-0.12169453501701355,0.04415774345397949,0.13104510307312012,0.12494349479675293
0.0970492959022522,-0.12351280450820923,-0.16885969042778015,0.04149604216217995,0.1067083477973938,0.12908422946929932
0.06029587984085083,-0.0517595149576664,-0.20647256076335907,0.04794814810156822,0.07140064239501953,0.09387248754501343
0.12148208171129227,-0.031486451625823975,-0.16474907100200653,0.07068979740142822,0.04921257495880127,0.0515141487121582
0.18638238310813904,-0.06362757831811905,-0.05223671719431877,0.09260699152946472,0.03673058748245239,0.05102205276489258
0.14742417633533478,-0.06611865758895874,0.08726624399423599,0.08732858300209045,0.028323590755462646,0.08842116594314575
-0.016597583889961243,0.014462664723396301,0.16399380564689636,0.04128670319914818,0.009491801261901855,0.13568568229675293
-0.19530080258846283,0.1299702525138855,0.16651657223701477,0.003970593214035034,-0.0004800558090209961,0.14268708229064941
-0.25865960121154785,0.20849375426769257,0.15655095875263214,-0.015170305967330933,0.0023772716522216797,0.0909891128540039
-0.1925787627696991,0.18278299272060394,0.14111340045928955,-0.024060692638158798,-0.0011587738990783691,0.027050316333770752
-0.1384878307580948,0.16420379281044006,0.12158413231372833,-0.027575820684432983,0.018020272254943848,-0.005868792533874512
-0.11580052971839905,0.12060621380805969,0.09391696006059647,-0.014261510223150253,0.011691749095916748,-0.035272300243377686
-0.07024773955345154,0.07288993895053864,0.10956942290067673,0.003892570734024048,0.005862593650817871,-0.06979835033416748
-0.023205192759633064,0.009874803945422173,0.14895617961883545,0.011303633451461792,0.001972794532775879,-0.07801306247711182
0.016584141179919243,-0.054916929453611374,0.19476930797100067,0.0036892294883728027,0.006011247634887695,-0.06759274005889893
0.060851603746414185,-0.10053964704275131,0.19363199174404144,-0.02148204669356346,0.01636815071105957,-0.04228395223617554
0.0715915635228157,-0.10823067277669907,0.10198618471622467,-0.04970237612724304,0.03550875186920166,-0.006311774253845215
0.09560426324605942,-0.08911462128162384,-0.038008470088243484,-0.06148078665137291,0.0507199764251709,0.012259960174560547
0.1690492480993271,-0.06361410021781921,-0.09096670150756836,-0.025155898183584213,0.04301106929779053,0.0018187165260314941
0.2674627900123596,-0.05812430381774902,-0.045288097113370895,0.017059795558452606,0.05113863945007324,0.0016469359397888184
0.2959671914577484,-0.07266554236412048,0.01371406763792038,0.033948540687561035,0.06321132183074951,0.03321027755737305
0.2920694947242737,-0.06577636301517487,0.05079837143421173,0.028471320867538452,0.07702744007110596,0.0644066333770752
0.25213271379470825,-0.04229503870010376,0.06791575998067856,0.023322254419326782,0.10161292552947998,0.0934484601020813
0.16194210946559906,-0.02284051477909088,0.05002002790570259,0.013362348079681396,0.10911351442337036,0.11681801080703735
0.13251502811908722,-0.038843099027872086,0.007893224246799946,0.006094489246606827,0.12327241897583008,0.11537390947341919
0.24389971792697906,-0.04490624740719795,-0.05617178976535797,-0.0039616599678993225,0.14237141609191895,0.0948520302772522
0.3633629381656647,-0.0412946492433548,-0.16378958523273468,-0.017672330141067505,0.17315733432769775,0.11547917127609253
0.24321389198303223,-0.019313383847475052,-0.24710528552532196,-0.021472692489624023,0.19053053855895996,0.17944610118865967
-0.014918392524123192,-0.00034536077873781323,-0.2660816013813019,-0.009599238634109497,0.16260874271392822,0.21137785911560059
-0.22633050382137299,0.041783656924963,-0.2003568857908249,0.012913919985294342,0.15248560905456543,0.18092584609985352
-0.2823430299758911,0.03528769686818123,-0.16554507613182068,0.01704597845673561,0.15336626768112183,0.11116492748260498
-0.1576681137084961,0.04696999490261078,-0.24303367733955383,-0.006761223077774048,0.16003066301345825,0.04379618167877197
0.04365487024188042,0.09760840237140656,-0.38080939650535583,-0.01586705446243286,0.18056130409240723,0.01725900173187256
0.15751589834690094,0.15385429561138153,-0.48549750447273254,0.005815356969833374,0.1893962025642395,0.03901737928390503
0.1464853435754776,0.17418907582759857,-0.46967241168022156,0.041579365730285645,0.1839401125907898,0.07395976781845093
0.0767306312918663,0.15592041611671448,-0.3482305407524109,0.06080549955368042,0.1770632266998291,0.09931433200836182
-0.01126067340373993,0.12190055102109909,-0.2036018818616867,0.05129885673522949,0.15628433227539062,0.10698282718658447
-0.0769520029425621,0.10432237386703491,-0.1586703360080719,0.02622133493423462,0.15870118141174316,0.09951245784759521
-0.11758022755384445,0.11671774834394455,-0.205516517162323,0.01435747742652893,0.19248461723327637,0.09364891052246094
-0.16511301696300507,0.1709427386522293,-0.3022283613681793,0.004774987697601318,0.2109692096710205,0.1037893295288086
-0.30305472016334534,0.2635553479194641,-0.3833068013191223,0.006952760741114616,0.21397912502288818,0.1336231827735901
-0.46688252687454224,0.36362025141716003,-0.4108187258243561,0.01897433027625084,0.19325131177902222,0.13961541652679443
-0.46099647879600525,0.4266093075275421,-0.32340100407600403,0.0521814227104187,0.15805590152740479,0.06781768798828125
-0.33916065096855164,0.37157198786735535,-0.13099771738052368,0.08782435208559036,0.14986556768417358,0.0018522143363952637
-0.28876230120658875,0.2569458484649658,0.006173103582113981,0.06938067078590393,0.14718323945999146,-0.0020235180854797363
-0.32697594165802,0.1378958374261856,0.017842598259449005,0.005223359912633896,0.11502164602279663,0.02259659767150879
-0.39313673973083496,0.04189078509807587,-0.050820957869291306,-0.033049076795578,0.08691251277923584,0.0362623929977417
-0.39557573199272156,0.0026160134002566338,-0.14915788173675537,-0.04051953926682472,0.059344351291656494,0.01866137981414795
-0.35990414023399353,0.03540061414241791,-0.1954001784324646,-0.016671299934387207,0.045366764068603516,0.00024956464767456055
-0.295249879360199,0.11808173358440399,-0.19648675620555878,0.004880428314208984,0.024214565753936768,-0.012083172798156738
-0.2096724957227707,0.23225915431976318,-0.18883179128170013,0.007057845592498779,-0.0009168386459350586,-0.021213114261627197
-0.17599956691265106,0.2728167474269867,-0.19984623789787292,-0.0017825961112976074,-0.03438776731491089,-0.02491307258605957
-0.11086443066596985,0.18811175227165222,-0.22780703008174896,0.0011782050132751465,-0.06248831748962402,-0.060402095317840576
0.0034325914457440376,0.11250580102205276,-0.18964001536369324,0.030316442251205444,-0.07624125480651855,-0.10365802049636841
0.1265871524810791,0.13429541885852814,-0.12560978531837463,0.04455706477165222,-0.08093219995498657,-0.11973822116851807
0.25303322076797485,0.2752690613269806,-0.15387055277824402,0.02194005250930786,-0.05127650499343872,-0.10935091972351074
0.3519095480442047,0.4475773274898529,-0.3299037218093872,-0.029230356216430664,-0.023944497108459473,-0.07694321870803833
0.4379175305366516,0.49935072660446167,-0.48362475633621216,-0.04728180915117264,-0.019519686698913574,-0.05849289894104004
0.48480620980262756,0.34940305352211,-0.4479335844516754,-0.009581178426742554,-0.014105916023254395,-0.04660904407501221
0.45679181814193726,0.10425718873739243,-0.2391497790813446,0.035395801067352295,-0.04279327392578125,-0.037653565406799316
0.3191366195678711,-0.01616526208817959,0.038265738636255264,0.04297181963920593,-0.07885313034057617,-0.01132214069366455
0.08154091238975525,0.003916849847882986,0.1837925910949707,-0.019184589385986328,-0.11566883325576782,0.009541809558868408
-0.12155748903751373,0.026386264711618423,0.12364571541547775,-0.08702149987220764,-0.09615987539291382,-0.01854991912841797
-0.21417583525180817,-0.11782804876565933,-0.07781796902418137,-0.11868536472320557,-0.05207264423370361,-0.07135266065597534
-0.19115018844604492,-0.32094937562942505,-0.2749369144439697,-0.1027926504611969,-0.05124688148498535,-0.12088924646377563
-0.09398870170116425,-0.37391576170921326,-0.35433706641197205,-0.03921288251876831,-0.08842027187347412,-0.152265727519989
0.08682508021593094,-0.20408815145492554,-0.2667638659477234,0.041044920682907104,-0.14964252710342407,-0.18263137340545654
0.282326340675354,0.054494041949510574,-0.0726935938000679,0.07231003046035767,-0.17964905500411987,-0.20148593187332153
0.2758237421512604,0.040061790496110916,0.08484894782304764,0.02371804416179657,-0.1763576865196228,-0.16912627220153809
-0.024112045764923096,-0.3543606698513031,0.12962490320205688,-0.03661903738975525,-0.14511388540267944,-0.12155646085739136
-0.41674405336380005,-0.9545133709907532,0.04394416883587837,-0.07661798596382141,-0.17975246906280518,-0.11850494146347046
-0.6234103441238403,-1.3498117923736572,-0.025327708572149277,-0.052249349653720856,-0.2711111307144165,-0.18096321821212769
-0.5310047268867493,-1.3736872673034668,3.9301346987485886e-05,0.03439297527074814,-0.35819488763809204,-0.2658301591873169
-0.2973736524581909,-1.0306090116500854,-0.01465543732047081,0.06701451539993286,-0.4004341959953308,-0.2997833490371704
-0.10789866745471954,-0.47727975249290466,-0.2593704164028168,0.05366978049278259,-0.38350653648376465,-0.28716713190078735
-0.01004900224506855,0.0313483364880085,-0.5306101441383362,0.07501828670501709,-0.35502469539642334,-0.26362526416778564
-0.06965339928865433,0.33034849166870117,-0.5937740206718445,0.12332868576049805,-0.38171321153640747,-0.23294031620025635
-0.22945505380630493,0.35125645995140076,-0.360441654920578,0.18691924214363098,-0.4166242480278015,-0.21381527185440063
-0.3065759241580963,0.12256702035665512,0.13174156844615936,0.24390307068824768,-0.4421687722206116,-0.24867844581604004
-0.2994108200073242,-0.11613935232162476,0.5818939805030823,0.21206361055374146,-0.4150344729423523,-0.2843751907348633
-0.3016829192638397,-0.23580044507980347,0.6771609783172607,0.0932759940624237,-0.36222022771835327,-0.2769167423248291
-0.23443783819675446,-0.23940743505954742,0.5014991164207458,-0.003390580415725708,-0.30470019578933716,-0.26260095834732056
-0.08679322898387909,-0.17875376343727112,0.2497885525226593,-0.054181069135665894,-0.2523801326751709,-0.2380598783493042
0.040560707449913025,-0.049419064074754715,0.06852022558450699,-0.05319380760192871,-0.22439110279083252,-0.1939944624900818
0.12856879830360413,0.14396549761295319,0.07001065462827682,-0.009527027606964111,-0.2307261824607849,-0.158797025680542
0.10857431590557098,0.27451932430267334,0.1930389553308487,0.03620212525129318,-0.21613383293151855,-0.13199204206466675
0.07234077155590057,0.2370632141828537,0.3044981062412262,0.04129636287689209,-0.18228685855865479,-0.13191086053848267
0.13609889149665833,0.0012574035208672285,0.3066844344139099,0.012804865837097168,-0.12768876552581787,-0.14587664604187012
0.2891693413257599,-0.2720566391944885,0.21584738790988922,-0.006704449653625488,-0.05940747261047363,-0.1260717511177063
0.40923529863357544,-0.329817533493042,0.13086824119091034,-0.008644908666610718,-0.01224607229232788,-0.05996835231781006
0.3542884588241577,-0.12244190275669098,0.11356368660926819,-0.0077839195728302,-0.002704024314880371,0.0244828462600708
0.15501073002815247,0.1788541078567505,0.14088863134384155,-0.010708127170801163,-0.00862210988998413,0.07197993993759155
-0.06662319600582123,0.3469771146774292,0.10527385026216507,-0.028151631355285645,-0.008807480335235596,0.06495922803878784
-0.1342734843492508,0.38347989320755005,0.010620687156915665,-0.0394887700676918,0.009023785591125488,0.00019538402557373047
-0.00016267597675323486,0.3263184726238251,-0.05445263534784317,-0.03054419532418251,0.035180091857910156,-0.06500643491744995
0.07035908848047256,0.22206662595272064,-0.09149216115474701,-0.03422245755791664,0.054297804832458496,-0.04810529947280884
-0.12372616678476334,0.15334783494472504,-0.13053423166275024,-0.02757108211517334,0.04803884029388428,0.01657503843307495
-0.3080163896083832,0.09341786056756973,-0.08245231211185455,0.012527883052825928,0.010210692882537842,0.013567686080932617
-0.2576321065425873,0.09723316878080368,0.06510768830776215,0.04670872539281845,0.005737662315368652,-0.04069840908050537
-0.0257766954600811,0.11539392918348312,0.1613617241382599,0.03176169842481613,0.026848435401916504,-0.06009328365325928
0.27620530128479004,0.04938405007123947,0.23888865113258362,-0.003104783594608307,0.06734812259674072,-0.035621583461761475
0.2744656801223755,-0.14205816388130188,0.40380316972732544,0.011106546968221664,0.1100807785987854,0.06067174673080444
-0.15550413727760315,-0.36062905192375183,0.434529572725296,-0.0011721886694431305,0.11339360475540161,0.1711471676826477
-0.6330845952033997,-0.2827599346637726,0.18947575986385345,-0.08628952503204346,0.06406503915786743,0.19466406106948853
-0.6195248365402222,-0.006320531480014324,-0.011032432317733765,-0.08911794424057007,0.05162996053695679,0.07325917482376099
-0.23021245002746582,0.1465248018503189,-0.01595350354909897,-0.0160273015499115,0.08951699733734131,-0.04998898506164551
0.012929482385516167,0.11459462344646454,0.10892593860626221,0.038260191679000854,0.14554119110107422,-0.049113452434539795
-0.16250579059123993,-0.030626576393842697,0.03771207109093666,0.00394945964217186,0.14279979467391968,0.0411418080329895
-0.326969176530838,-0.1304372400045395,-0.2665356993675232,-0.051265716552734375,0.0983460545539856,0.05777454376220703
-0.08394965529441833,-0.11717616766691208,-0.4368394613265991,-0.0032809972763061523,0.09248250722885132,-0.025415539741516113
0.391827791929245,-0.1317686289548874,-0.32331186532974243,0.10654968023300171,0.09483397006988525,-0.07465428113937378
0.6301248669624329,-0.12325882911682129,0.0019364068284630775,0.17944300174713135,0.11241954565048218,0.00635838508605957
0.43233466148376465,-0.03159451484680176,0.29386627674102783,0.15281429886817932,0.10995274782180786,0.13125765323638916
0.058914557099342346,0.04054407775402069,0.38356319069862366,0.07724922895431519,0.09177649021148682,0.18352282047271729
-0.046671923249959946,0.03167085722088814,0.3561633825302124,0.0316222608089447,0.12118476629257202,0.11359584331512451
0.17697454988956451,-0.07155267149209976,0.32841116189956665,0.03715389966964722,0.16561567783355713,0.017290771007537842
0.5297388434410095,-0.23565681278705597,0.36327582597732544,0.059188246726989746,0.19198518991470337,-0.019028663635253906
0.7250642776489258,-0.3083195388317108,0.42657697200775146,0.061717689037323,0.20759129524230957,0.03839099407196045
0.6298292875289917,-0.2328108698129654,0.42837899923324585,0.03166744112968445,0.20411920547485352,0.12655764818191528
0.4113636910915375,-0.06849630922079086,0.39674434065818787,0.003898829221725464,0.196344792842865,0.15900146961212158
0.24481259286403656,0.07432622462511063,0.33325961232185364,-0.01119580864906311,0.2020409107208252,0.14259612560272217
0.1812846064567566,0.09721985459327698,0.24515587091445923,-0.014086753129959106,0.2217687964439392,0.09741079807281494
0.23262695968151093,-0.004624322522431612,0.175462007522583,-0.00520646758377552,0.2357475757598877,0.0555996298789978
0.311593621969223,-0.18482260406017303,0.15884439647197723,0.019352078437805176,0.23659491539001465,0.04864245653152466
0.34428533911705017,-0.26792043447494507,0.181819349527359,0.0181674063205719,0.20847058296203613,0.08128011226654053
0.2650963366031647,-0.24616381525993347,0.21262067556381226,0.01677185669541359,0.1823214888572693,0.1227453351020813
0.09904106706380844,-0.15601947903633118,0.2018183171749115,0.009538445621728897,0.15689390897750854,0.1439298391342163
0.008860638365149498,-0.06337019801139832,0.1536373794078827,-0.0011586546897888184,0.14982950687408447,0.11956346035003662
0.057554006576538086,-0.022832611575722694,0.08629725873470306,-5.751848220825195e-06,0.1513921022415161,0.08025777339935303
0.13700996339321136,0.030486535280942917,0.007169949356466532,-0.006060361862182617,0.13057196140289307,0.06996643543243408
0.15083342790603638,0.1294216811656952,-0.03892679512500763,-0.0006112717092037201,0.09225761890411377,0.08907866477966309
0.09958728402853012,0.23916107416152954,-0.0036016409285366535,0.03057679533958435,0.06522142887115479,0.09801352024078369
0.003195629920810461,0.30591604113578796,0.11497731506824493,0.04868635907769203,0.026133060455322266,0.09767132997512817
-0.10204250365495682,0.316879004240036,0.2634008526802063,0.04409167170524597,-0.011124908924102783,0.08583605289459229
-0.18326418101787567,0.2734339237213135,0.36358609795570374,0.015887051820755005,-0.024469614028930664,0.06390714645385742
-0.23414841294288635,0.1382894366979599,0.4034816026687622,-0.0038854479789733887,-0.018733978271484375,0.03523319959640503
-0.1857447326183319,0.02315886877477169,0.4040151536464691,-0.031017839908599854,-0.020079493522644043,0.005696296691894531
-0.12060713768005371,0.02240905724465847,0.3731837272644043,-0.04565039277076721,-0.015880465507507324,0.0010057687759399414
-0.11784317344427109,0.10650751739740372,0.2915569245815277,-0.05987590551376343,-0.00561070442199707,0.019529998302459717
-0.19391357898712158,0.23087084293365479,0.21763475239276886,-0.0595623180270195,0.0030036568641662598,0.025831758975982666
-0.31191399693489075,0.26892736554145813,0.1624959111213684,-0.04674088954925537,0.00463491678237915,0.00472712516784668
-0.30888649821281433,0.21611668169498444,0.11565102636814117,-0.03975674510002136,0.004638016223907471,-0.0672903060913086
-0.15059426426887512,0.11495804786682129,0.05259168520569801,-0.02996975928544998,0.028258323669433594,-0.13572686910629272
0.06722274422645569,-0.0310651995241642,-0.03306622803211212,-0.008807115256786346,0.06188720464706421,-0.15089821815490723
0.23697324097156525,-0.10095465183258057,-0.10108646005392075,-0.010568201541900635,0.06376081705093384,-0.10068893432617188
0.2764524221420288,-0.05424449220299721,-0.1286015808582306,-0.013393133878707886,0.0635308027267456,-0.009776413440704346
0.16059882938861847,0.02672395296394825,-0.14344535768032074,-0.012491762638092041,0.07678687572479248,0.0731273889541626
-0.0036523558665066957,0.08057207614183426,-0.15382692217826843,-0.012736700475215912,0.08026182651519775,0.10837876796722412
-0.08966419100761414,0.10221976786851883,-0.15587502717971802,-0.008509721606969833,0.09254741668701172,0.0969458818435669
-0.08087211102247238,0.08011163771152496,-0.15887081623077393,0.005429212003946304,0.11963939666748047,0.07035046815872192
-0.03589890897274017,0.028611620888113976,-0.15528041124343872,0.015200678259134293,0.13770204782485962,0.06630384922027588
0.022153539583086967,0.004929492715746164,-0.11070612072944641,0.028439529240131378,0.14830422401428223,0.07633858919143677
0.04272739589214325,-0.008653347380459309,-0.05987224355340004,0.03150355815887451,0.16224581003189087,0.1002197265625
0.03166089206933975,-0.016139758750796318,-0.0435478650033474,0.016052309423685074,0.16795021295547485,0.11217904090881348
0.03888785094022751,-0.054524976760149,-0.03908495604991913,0.0076371729373931885,0.17391252517700195,0.11090278625488281
0.05538026988506317,-0.0989016741514206,-0.05470294505357742,-0.00011229515075683594,0.17205196619033813,0.11156994104385376
0.04252126067876816,-0.13877739012241364,-0.09463680535554886,-0.009208053350448608,0.16529244184494019,0.12475520372390747
-0.024093713611364365,-0.11335188895463943,-0.1424132138490677,-0.010461386293172836,0.15709948539733887,0.14011907577514648
-0.0885402113199234,-0.06529700011014938,-0.17365844547748566,0.004443228244781494,0.15886807441711426,0.13169598579406738
-0.06198497116565704,-0.03802213817834854,-0.15651236474514008,0.03374925255775452,0.16314458847045898,0.09344947338104248
0.02573595754802227,-0.03474836051464081,-0.07126609236001968,0.05577343702316284,0.1616690754890442,0.06404030323028564
0.049666598439216614,-0.06894325464963913,0.025777477771043777,0.05912297964096069,0.16803735494613647,0.08288329839706421
-0.04401935264468193,-0.06496729701757431,0.05232487618923187,0.03629383444786072,0.1756318211555481,0.12043678760528564
-0.1194169670343399,-0.06618818640708923,-0.006357479840517044,0.009415596723556519,0.17682164907455444,0.12259960174560547
-0.10824760794639587,-0.030800335109233856,-0.09231802076101303,-0.0012110471725463867,0.17483073472976685,0.10179239511489868
-0.052779823541641235,-0.004211686551570892,-0.158419668674469,0.0075316764414310455,0.18152505159378052,0.09738069772720337
0.007454493548721075,0.051366325467824936,-0.161858931183815,0.025026917457580566,0.18117845058441162,0.11903584003448486
0.025945689529180527,0.18456235527992249,-0.11316915601491928,0.025378108024597168,0.1665029525756836,0.15536367893218994
-0.028979752212762833,0.3534582853317261,-0.04163207486271858,0.003129754215478897,0.12895607948303223,0.18417811393737793
-0.1253565549850464,0.4769282639026642,0.022522354498505592,-0.01246216706931591,0.0707322359085083,0.1584320068359375
-0.14916947484016418,0.5291014313697815,0.0668819397687912,-0.013417720794677734,0.057591021060943604,0.08002513647079468
-0.09392166137695312,0.3558195233345032,0.062981016933918,-0.007539687678217888,0.0700649619102478,0.006058931350708008
-0.05644945427775383,0.08310753107070923,0.020890576764941216,-0.019290000200271606,0.057541072368621826,-0.004314780235290527
-0.08011617511510849,-0.09731059521436691,0.012797156348824501,-0.021688133478164673,0.01400148868560791,0.020318210124969482
-0.1280255764722824,-0.052448902279138565,0.0469362735748291,-0.01224607229232788,-0.02016913890838623,0.03987455368041992
-0.17636148631572723,0.11197394877672195,0.07549495995044708,-0.0021831393241882324,-0.03827929496765137,0.033674001693725586
-0.16688121855258942,0.250907838344574,0.0374615453183651,-0.0035783052444458008,-0.04241776466369629,0.00790637731552124
-0.10344626009464264,0.3018210530281067,-0.04231605306267738,0.006890088319778442,-0.0391697883605957,-0.021468281745910645
-0.015267733484506607,0.3545452356338501,-0.08742789179086685,0.034900784492492676,-0.03951823711395264,-0.04036659002304077
0.0987842008471489,0.48977982997894287,-0.02309556119143963,0.0415588915348053,-0.06188851594924927,-0.04282677173614502
0.08207559585571289,0.5006387829780579,0.10365284979343414,0.028654098510742188,-0.08069288730621338,-0.017613112926483154
0.016479475423693657,0.33361390233039856,0.18795277178287506,0.0057395691983401775,-0.07120370864868164,-0.021955490112304688
0.03031526319682598,0.13004471361637115,0.14427810907363892,-0.027237653732299805,-0.026761412620544434,-0.054261982440948486
0.06930100917816162,0.01688021421432495,0.049614787101745605,-0.03705671429634094,-0.006618380546569824,-0.06531351804733276
0.08601674437522888,0.03943821042776108,-0.02990073710680008,-0.036265403032302856,-0.017914772033691406,-0.051862895488739014
0.0938173457980156,0.13223880529403687,-0.04105635732412338,-0.02631738781929016,-0.037051379680633545,-0.03552865982055664
0.12038511037826538,0.15723028779029846,0.06546568870544434,0.00022482778877019882,-0.050445616245269775,-0.05149883031845093
0.14630626142024994,0.03449459373950958,0.155808687210083,-0.0011925697326660156,-0.05107617378234863,-0.06116306781768799
0.12424768507480621,-0.08920348435640335,0.11936318129301071,-0.048145174980163574,-0.058523356914520264,-0.048757970333099365
0.019698042422533035,-0.07972417771816254,-0.011263329535722733,-0.08207657933235168,-0.08023273944854736,-0.03730738162994385
-0.044390201568603516,0.015815919265151024,-0.08379560708999634,-0.05148151516914368,-0.10999685525894165,-0.06148362159729004
0.023111414164304733,0.07941269129514694,-0.006419797893613577,0.00812569260597229,-0.12050080299377441,-0.12132596969604492
0.10223805904388428,0.013209003023803234,0.13122637569904327,0.03766188025474548,-0.12429368495941162,-0.15245211124420166
0.09314216673374176,-0.12366482615470886,0.1422004997730255,0.006367325782775879,-0.1526760458946228,-0.136743426322937
-0.046863142400979996,-0.21134236454963684,0.09419959783554077,0.007623136043548584,-0.19000619649887085,-0.10787612199783325
-0.27587181329727173,-0.14568522572517395,0.015464968979358673,-0.006738751195371151,-0.2641488313674927,-0.1064600944519043
-0.39496278762817383,0.027333630248904228,0.022247185930609703,0.03401052951812744,-0.3014224171638489,-0.18612384796142578
-0.2463759183883667,0.12495298683643341,0.15672805905342102,0.0840524435043335,-0.32782459259033203,-0.31934672594070435
0.017072096467018127,0.05536779388785362,0.27621880173683167,0.09089633822441101,-0.3228095769882202,-0.3933076858520508
0.14246384799480438,-0.07031682878732681,0.2383614033460617,0.0376354455947876,-0.305015504360199,-0.34816819429397583
0.06591547280550003,-0.11156882345676422,0.15519531071186066,0.009786190465092659,-0.3025627136230469,-0.25922906398773193
-0.12291936576366425,-0.021225159987807274,0.16317413747310638,0.03103107213973999,-0.31938719749450684,-0.19486331939697266
-0.37313112616539,0.17408634722232819,0.2839030623435974,0.06865459680557251,-0.36248213052749634,-0.1943897008895874
-0.5158264636993408,0.18058951199054718,0.4471553564071655,0.10458546876907349,-0.3884097933769226,-0.2781410813331604
-0.3444259762763977,-0.06542715430259705,0.5905073881149292,0.10590222477912903,-0.367753267288208,-0.4189819097518921
0.004708842374384403,-0.40060025453567505,0.5520360469818115,0.04622572660446167,-0.27701687812805176,-0.442842960357666
0.30810901522636414,-0.5734500288963318,0.2951511740684509,-0.05596041679382324,-0.1803489327430725,-0.32825857400894165
0.35198262333869934,-0.341262549161911,-0.07615485787391663,-0.15795952081680298,-0.16458189487457275,-0.14822030067443848
0.19696363806724548,0.13198870420455933,-0.4050248861312866,-0.19718095660209656,-0.22744369506835938,-0.027686119079589844
-0.11018386483192444,0.4875325858592987,-0.6494534015655518,-0.17600873112678528,-0.26587241888046265,0.009788036346435547
-0.2582913041114807,0.587071418762207,-0.5392147898674011,-0.01062646135687828,-0.25569409132003784,-0.07941341400146484
-0.1252233386039734,0.38636043667793274,-0.2319328784942627,0.08217820525169373,-0.24030625820159912,-0.19527655839920044
0.07267431169748306,0.042035654187202454,0.03499113768339157,0.07581454515457153,-0.19614177942276,-0.21844863891601562
0.16230858862400055,-0.15230818092823029,0.030594108626246452,-0.012891888618469238,-0.17162346839904785,-0.1482413411140442
0.0681866779923439,0.016104958951473236,-0.14030909538269043,-0.06618046760559082,-0.17263919115066528,-0.06628930568695068
-0.07706379145383835,0.28517946600914,-0.18740643560886383,-0.01456555724143982,-0.18266308307647705,-0.06251633167266846
-0.05563586205244064,0.35547390580177307,-0.04360433295369148,0.0628805160522461,-0.16763532161712646,-0.11971378326416016
0.14737264811992645,0.14997640252113342,0.17699366807937622,0.09876632690429688,-0.08561098575592041,-0.15931034088134766
0.3761703372001648,-0.07408774644136429,0.3065781891345978,0.044599294662475586,-0.0030637383460998535,-0.12239378690719604
0.4004732072353363,-0.12223418056964874,0.23439820110797882,-0.038790345191955566,0.027476489543914795,-0.017387032508850098
0.16923686861991882,0.004949777387082577,0.07233792543411255,-0.07105448842048645,0.01848292350769043,0.06309628486633301
-0.0802629142999649,0.11272519081830978,0.051583968102931976,-0.034071534872055054,-0.024790585041046143,0.05999797582626343
-0.1354491412639618,0.07494964450597763,0.20774824917316437,0.019706401973962784,-0.03996586799621582,-0.014494001865386963
-0.012615356594324112,-0.10736919939517975,0.3785776197910309,0.04137253761291504,-0.0030037760734558105,-0.07877743244171143
0.11527030169963837,-0.26505228877067566,0.4024534225463867,0.010803043842315674,0.04195404052734375,-0.07613366842269897
0.07528027147054672,-0.313885360956192,0.26783624291419983,-0.027537580579519272,0.058187246322631836,-0.023340046405792236
-0.025753464549779892,-0.2864494025707245,0.09265610575675964,-0.0402376651763916,0.026536524295806885,0.0013126134872436523
0.03780640661716461,-0.2342544049024582,-0.0029583536088466644,-0.015375137329101562,-0.0012106895446777344,-0.03863358497619629
0.28227195143699646,-0.2213878035545349,-0.06614238023757935,0.012822180986404419,0.02571570873260498,-0.08143514394760132
0.559576153755188,-0.23393502831459045,-0.1694144755601883,0.008172325789928436,0.10053467750549316,-0.04141122102737427
0.5913766622543335,-0.14096951484680176,-0.2782551944255829,-0.0028520524501800537,0.1497328281402588,0.0523221492767334
0.34055960178375244,-0.0960855484008789,-0.32575723528862,0.021543148905038834,0.14177435636520386,0.12403172254562378
0.011407885700464249,-0.0542144700884819,-0.2272471785545349,0.053864479064941406,0.10562944412231445,0.12817084789276123
-0.12415513396263123,-0.035850804299116135,-0.03456145524978638,0.07348138093948364,0.09891253709793091,0.06957489252090454
-0.04763306304812431,-0.15089701116085052,0.1296997219324112,0.061980366706848145,0.14742553234100342,0.01587367057800293
0.09248036891222,-0.33887556195259094,0.14537741243839264,0.008691400289535522,0.199687659740448,0.029974699020385742
0.14662477374076843,-0.4398871660232544,-0.0665082260966301,-0.05669558048248291,0.2278209924697876,0.08802205324172974
-0.0015720282681286335,-0.3491901159286499,-0.3288044333457947,-0.06847897917032242,0.2139890193939209,0.15374910831451416
-0.19898496568202972,-0.15157648921012878,-0.36877894401550293,0.011099152266979218,0.16403883695602417,0.16965585947036743
-0.32001569867134094,0.08939237147569656,-0.14959335327148438,0.09212228655815125,0.11389249563217163,0.1381400227546692
-0.30594444274902344,0.1871437132358551,0.13659745454788208,0.12185564637184143,0.10584497451782227,0.07738804817199707
-0.14830894768238068,0.06565478444099426,0.2967509627342224,0.09277746081352234,0.14370512962341309,0.01994776725769043
0.07809936255216599,-0.17366769909858704,0.25214943289756775,0.03653302788734436,0.20403891801834106,0.0026235580444335938
0.2180662602186203,-0.4640909433364868,0.06644169986248016,-0.0019231513142585754,0.2589554786682129,0.05838567018508911
0.25773030519485474,-0.635357677936554,-0.06889058649539948,-0.032959721982479095,0.24728631973266602,0.11537158489227295
0.3053041696548462,-0.6197547912597656,-0.032222505658864975,-0.02510061115026474,0.21283739805221558,0.12276273965835571
0.3536989986896515,-0.5668189525604248,0.09059430658817291,0.009435392916202545,0.20248740911483765,0.11358433961868286
0.373748242855072,-0.5529308915138245,0.1359148621559143,0.027035266160964966,0.2051045298576355,0.11143851280212402
0.356370747089386,-0.4523695707321167,0.13561302423477173,0.020151883363723755,0.19068849086761475,0.10789376497268677
0.27932241559028625,-0.29167887568473816,0.1059679239988327,0.010406017303466797,0.16819757223129272,0.1080465316772461
0.17588172852993011,-0.1603882759809494,0.07966115325689316,0.01604589819908142,0.14434772729873657,0.10090166330337524
0.11289955675601959,-0.08742254972457886,0.07704536616802216,0.02540650963783264,0.12126851081848145,0.07428836822509766
0.12855024635791779,-0.1375981718301773,0.09931761771440506,0.041798800230026245,0.10299450159072876,0.03635907173156738
0.21770918369293213,-0.2792991101741791,0.1295533925294876,0.06611137092113495,0.10635089874267578,0.008595526218414307
0.3378801941871643,-0.3690890669822693,0.11465342342853546,0.0727124810218811,0.11349284648895264,0.00563502311706543
0.413761705160141,-0.3192645311355591,0.05170600861310959,0.059052973985672,0.10920774936676025,0.0477069616317749
0.4024240970611572,-0.18334540724754333,-0.013591802679002285,0.042041242122650146,0.07882237434387207,0.09887892007827759
0.3245934247970581,-0.021214241161942482,-0.018754132091999054,0.04223255813121796,0.05729097127914429,0.13195738196372986
0.16342565417289734,0.04588937759399414,0.05821261554956436,0.061930835247039795,0.04093402624130249,0.15338414907455444
-0.050095416605472565,0.0734362080693245,0.16327883303165436,0.06905651092529297,0.028799057006835938,0.15819597244262695
-0.20882871747016907,0.08421753346920013,0.2310919612646103,0.05688387155532837,0.028567790985107422,0.1308683156967163
-0.2648940086364746,0.1314244568347931,0.28945863246917725,0.04458090662956238,0.017786622047424316,0.07945799827575684
-0.24219009280204773,0.1885639727115631,0.3290576934814453,0.033372893929481506,0.018031001091003418,0.03275838494300842
-0.21644838154315948,0.21994273364543915,0.3331671953201294,0.017692074179649353,0.01958101987838745,-0.003727644681930542
-0.18329308927059174,0.14844834804534912,0.29897573590278625,0.009850353002548218,0.027114570140838623,-0.033157944679260254
-0.16089816391468048,0.08069632202386856,0.27002641558647156,0.006893366575241089,0.031436383724212646,-0.06195259094238281
-0.12483091652393341,-0.001855982467532158,0.2506651282310486,0.01109883189201355,0.02234548330307007,-0.07957255840301514
-0.07755766808986664,-0.014356947503983974,0.24462628364562988,0.007121235132217407,0.01106196641921997,-0.0869821310043335
0.0015716333873569965,-0.012746697291731834,0.1896854192018509,-0.012349456548690796,0.007685184478759766,-0.08583837747573853
0.06483675539493561,0.00725069735199213,0.09574396908283234,-0.025708377361297607,0.022573530673980713,-0.06300520896911621
0.1329740583896637,0.06803495436906815,-0.025888968259096146,-0.03700210154056549,0.02284449338912964,-0.029726892709732056
0.22014091908931732,0.16963988542556763,-0.11043287813663483,-0.039726316928863525,0.022859036922454834,0.0021620988845825195
0.2517860233783722,0.23011577129364014,-0.1539802849292755,-0.031163394451141357,0.021250605583190918,0.04228699207305908
0.21768061816692352,0.21863843500614166,-0.15057320892810822,-0.011440962553024292,0.020831942558288574,0.07434934377670288
0.14040222764015198,0.233549103140831,-0.1041874811053276,0.009285151958465576,0.03426206111907959,0.09039175510406494
0.04224216565489769,0.22025515139102936,-0.019958073273301125,0.03127381205558777,0.054157376289367676,0.09282833337783813
-0.016729941591620445,0.19624873995780945,0.04799811542034149,0.03422173857688904,0.08423376083374023,0.08360850811004639
-0.000734065193682909,0.16363434493541718,0.06866587698459625,0.017907649278640747,0.12208932638168335,0.07308560609817505
0.061607539653778076,0.15398265421390533,0.0038810819387435913,-0.006670862436294556,0.15824049711227417,0.07839387655258179
0.13953515887260437,0.1519400179386139,-0.08956842124462128,-0.012752652168273926,0.19978344440460205,0.09525060653686523
0.19119581580162048,0.1862204521894455,-0.1544477343559265,-0.002944633364677429,0.2308657169342041,0.12105333805084229
0.17588704824447632,0.2525888681411743,-0.19062793254852295,0.004929885268211365,0.25178438425064087,0.1503535807132721
0.15484029054641724,0.2885173261165619,-0.2320406287908554,0.0040435791015625,0.2659250497817993,0.15955519676208496
0.1953940987586975,0.2681427597999573,-0.2609446048736572,0.0009652078151702881,0.2795838713645935,0.15108686685562134
0.3208344578742981,0.1495058834552765,-0.30361926555633545,-0.012790501117706299,0.2958996295928955,0.14361870288848877
0.4571249783039093,-0.010978100821375847,-0.37820255756378174,-0.030614666640758514,0.31205588579177856,0.16904887557029724
0.4608553946018219,-0.10968826711177826,-0.41857674717903137,-0.03282350301742554,0.32589370012283325,0.22539639472961426
0.15758173167705536,-0.13310258090496063,-0.3954799175262451,-0.003152810037136078,0.3062846064567566,0.28634384274482727
-0.2899813652038574,-0.020088203251361847,-0.31652384996414185,0.03443731367588043,0.2339807152748108,0.2841392755508423
-0.5570930242538452,0.15758848190307617,-0.06914293020963669,0.10343971848487854,0.16680675745010376,0.1828252673149109
-0.5290550589561462,0.25949734449386597,0.20225179195404053,0.12311570346355438,0.15098708868026733,0.046629756689071655
-0.3822702467441559,0.1175733208656311,0.2605709135532379,0.06652647256851196,0.17281323671340942,-0.03323543071746826
-0.29716813564300537,-0.16306203603744507,0.09253118187189102,-0.009711205959320068,0.18200254440307617,-0.0281754732131958
-0.32789501547813416,-0.27674344182014465,-0.21144376695156097,-0.06976398825645447,0.14289355278015137,0.01964467763900757
-0.3718147277832031,-0.1779554933309555,-0.4509109854698181,-0.059220679104328156,0.08207213878631592,0.03785520792007446
-0.22644008696079254,-0.02526889741420746,-0.4579165577888489,0.04767760634422302,0.03636372089385986,-0.027138829231262207
0.026320457458496094,0.054718371480703354,-0.28570640087127686,0.12678784132003784,0.04636085033416748,-0.05823853611946106
0.1554904282093048,0.07844533771276474,-0.163003608584404,0.12160938233137131,0.057590365409851074,-0.0035204291343688965
