rotation_x,rotation_y,rotation_z,acceleration_x,acceleration_y,acceleration_z
-0.6830531358718872,-0.12261535227298737,0.34869128465652466,-0.10278179496526718,-0.7443901896476746,-0.2924714684486389
-0.6516265273094177,-0.1852686107158661,0.1472942978143692,-0.15487129986286163,-0.7796485424041748,-0.4030986726284027
-0.4361680746078491,0.0013512896839529276,-0.05110703781247139,-0.08150836825370789,-0.7921332716941833,-0.4863334596157074
-0.4584599435329437,0.006831333041191101,-0.09224669635295868,-0.02454744279384613,-0.7237828373908997,-0.37168341875076294
-0.44860026240348816,-0.10692517459392548,-0.04417174309492111,0.029384713619947433,-0.5857357382774353,-0.3124524652957916
-0.4907744228839874,-0.01936996728181839,-0.0542110949754715,-0.02880169451236725,-0.48103708028793335,-0.22316503524780273
-0.31675246357917786,0.2084568291902542,-0.09383312612771988,-0.023724939674139023,-0.44051337242126465,-0.27617958188056946
-0.2092875838279724,0.31150999665260315,-0.103812575340271,-0.05938953906297684,-0.3609517216682434,-0.18724095821380615
-0.17002347111701965,0.25371089577674866,-0.10427703708410263,-0.027661211788654327,-0.2794024348258972,-0.1627519130706787
-0.14809279143810272,0.2516096234321594,-0.1071193739771843,-0.04219762980937958,-0.19744819402694702,-0.17919844388961792
-0.3193415403366089,0.11930479109287262,-0.027424467727541924,-0.015180043876171112,-0.11531239748001099,-0.05824834108352661
-0.29923713207244873,-0.0746987983584404,-0.037201717495918274,-0.051482684910297394,-0.10295677185058594,-0.11869165301322937
-0.1109061911702156,0.06880481541156769,-0.11255185306072235,-0.10004747658967972,-0.08507019281387329,-0.20248016715049744
-0.10911756008863449,0.11115820705890656,-0.09104504436254501,-0.06569213420152664,-0.02106577157974243,-0.1263565719127655
-0.09048017114400864,0.06722801178693771,0.03496997803449631,0.02547544427216053,0.012485086917877197,-0.11492457985877991
-0.2313762903213501,0.02132682502269745,0.12622395157814026,0.06467786431312561,-0.01013946533203125,-0.055130064487457275
-0.24976491928100586,-0.06908868998289108,0.06905455887317657,0.03888288140296936,0.005960285663604736,-0.08041331171989441
-0.1198938861489296,0.042317524552345276,0.02859143353998661,0.027895938605070114,-0.003599822521209717,-0.1569221317768097
0.0601973719894886,0.201286181807518,-0.013446544297039509,-0.02806437574326992,0.049579620361328125,-0.1771465241909027
0.006288430187851191,0.332088828086853,0.09201047569513321,0.0377015620470047,0.04960662126541138,-0.05139586329460144
-0.37161847949028015,0.23321402072906494,0.29189687967300415,0.09896399825811386,0.021203815937042236,0.11385217308998108
-0.5396907329559326,0.1682368367910385,0.3124402165412903,0.001510554924607277,0.06158256530761719,-0.020340532064437866
-0.501144289970398,0.0981297641992569,0.21431437134742737,0.02768455445766449,0.06266158819198608,-0.10288894176483154
-0.402001291513443,-0.02920418605208397,0.15407924354076385,0.07555586099624634,0.041680335998535156,-0.15371400117874146
-0.4222317039966583,0.09516817331314087,0.2070702165365219,0.041072599589824677,0.07552284002304077,-0.06615298986434937
-0.5243745446205139,0.15875042974948883,0.38816267251968384,0.07588598132133484,0.07333862781524658,-0.04170572757720947
-0.5388749241828918,0.21524150669574738,0.32737189531326294,-0.09127958863973618,0.1044468879699707,-0.11729162931442261
-0.39438796043395996,0.20302143692970276,0.19053596258163452,-0.050934359431266785,0.1233900785446167,-0.1696673035621643
-0.3962174355983734,0.004272012505680323,0.09508755803108215,0.01880522072315216,0.14175546169281006,-0.0891261100769043
-0.3729422688484192,-0.037657104432582855,0.11790923774242401,0.08202846348285675,0.1861053705215454,-0.04854249954223633
-0.4032347798347473,-0.016823075711727142,0.19288456439971924,0.03302464634180069,0.21282410621643066,0.04989868402481079
-0.37285447120666504,0.08681878447532654,0.16066232323646545,-0.07220590114593506,0.230779230594635,0.07139953970909119
-0.33263465762138367,0.12402419000864029,0.0839928612112999,-0.07079315185546875,0.22528678178787231,0.12962809205055237
-0.28263214230537415,0.07370518893003464,-0.023371990770101547,-0.04668710380792618,0.24361050128936768,0.1471502184867859
-0.26708346605300903,-0.033093295991420746,-0.10692647099494934,-0.02511260285973549,0.27432161569595337,0.17489400506019592
-0.2351788431406021,-0.027701323851943016,-0.14635363221168518,-0.01760055124759674,0.2863844037055969,0.19622176885604858
-0.18503747880458832,0.0505392849445343,-0.14204110205173492,0.0004355683922767639,0.2642652988433838,0.21086490154266357
-0.17503750324249268,0.03325503692030907,-0.0659075379371643,0.011867791414260864,0.24717098474502563,0.21601206064224243
-0.04370565339922905,-0.11987427622079849,-0.04528116434812546,0.006385117769241333,0.251126229763031,0.14456218481063843
0.2130279690027237,-0.013903811573982239,-0.18041563034057617,-0.08726070076227188,0.24994874000549316,0.04855126142501831
0.4376676082611084,0.10143402963876724,-0.2419869750738144,-0.04469052702188492,0.2053547501564026,0.03574717044830322
0.45730337500572205,0.004649868700653315,-0.19996118545532227,-0.015073023736476898,0.16463589668273926,0.12500816583633423
0.40839579701423645,-0.04334571212530136,-0.12644103169441223,0.03148728609085083,0.10208046436309814,0.1579166054725647
0.38389062881469727,0.03533259779214859,-0.06650201976299286,0.04455778747797012,0.06996297836303711,0.1400388479232788
0.3565770387649536,0.07395889610052109,-0.10153812170028687,-0.015025969594717026,0.07040137052536011,0.11734399199485779
0.2982119917869568,-0.08866943418979645,-0.10400313884019852,0.011419985443353653,0.04918020963668823,0.1095467209815979
0.17615431547164917,-0.23637790977954865,-0.06994824856519699,0.026648761704564095,0.030836164951324463,0.11704352498054504
0.10361628979444504,-0.17127805948257446,-0.027114730328321457,-0.0004896074533462524,0.024146318435668945,0.0901716947555542
0.06266027688980103,-0.1621389240026474,-0.010440932586789131,-0.0074394866824150085,0.017360448837280273,0.07714569568634033
0.0698818638920784,-0.19413316249847412,-0.027075210586190224,0.005226075649261475,-0.0033413171768188477,0.04915088415145874
0.02183239348232746,-0.1893286556005478,-0.08718768507242203,0.007824517786502838,-0.023579418659210205,0.09817284345626831
-0.052123941481113434,-0.22629429399967194,-0.16448232531547546,0.013297706842422485,-0.021842896938323975,0.10742849111557007
-0.043762508779764175,-0.1821994185447693,-0.19734318554401398,0.004825793206691742,-0.0016159415245056152,0.04261922836303711
-0.027842121198773384,-0.055917173624038696,-0.12325263768434525,0.02291388437151909,0.005088090896606445,0.028542399406433105
-0.04933766648173332,0.014208022505044937,-0.018926678225398064,0.017124133184552193,0.0030907392501831055,0.027254551649093628
-0.027895193547010422,0.031379375606775284,0.028391527011990547,0.015638090670108795,-0.009386539459228516,0.0035588741302490234
0.014060514979064465,-0.008914745412766933,-0.00039149506483227015,0.014277912676334381,-0.006504237651824951,-0.02365952730178833
0.045287590473890305,-0.03354466333985329,-0.02574934810400009,0.024436108767986298,-0.005946159362792969,-0.03730899095535278
0.053575579077005386,-0.011136426590383053,-0.017790600657463074,0.029934659600257874,-0.000495612621307373,-0.01274651288986206
0.007136319763958454,0.02360260859131813,0.06427046656608582,0.04315399378538132,0.009007811546325684,0.06192946434020996
0.01468958891928196,0.046947021037340164,0.10138195008039474,0.01239904947578907,0.02628248929977417,0.07231679558753967
0.03452722355723381,0.0037624717224389315,0.081429623067379,0.010327599942684174,0.03689706325531006,0.09308654069900513
0.0019867494702339172,-0.040006641298532486,0.009727463126182556,-0.02216266095638275,0.06822550296783447,0.14752644300460815
-0.05610138177871704,-0.10003327578306198,-0.01770058646798134,0.015058064833283424,0.08693742752075195,0.19047501683235168
-0.08243618905544281,0.01374737173318863,0.021134372800588608,0.02753414958715439,0.12444233894348145,0.17494750022888184
-0.05794844031333923,0.09394191205501556,0.11714038997888565,0.04796250909566879,0.16668403148651123,0.1429024338722229
0.0492166243493557,0.07896479964256287,0.11100377142429352,0.0033786483108997345,0.21273577213287354,0.10624608397483826
0.18357494473457336,0.1382039487361908,-0.00855252705514431,-0.058515552431344986,0.24838942289352417,0.07440680265426636
0.2833908200263977,0.03775305673480034,-0.06760270148515701,0.00863153487443924,0.2572537660598755,0.057727694511413574
0.3804020881652832,-0.017245624214410782,0.024117032065987587,0.08022371679544449,0.25340187549591064,0.052836060523986816
0.38888904452323914,-0.055188994854688644,0.19410796463489532,0.11932441592216492,0.2496756911277771,0.1210155189037323
0.4937931001186371,0.09088845551013947,0.13868503272533417,-0.0015779845416545868,0.2609187364578247,0.04488420486450195
0.5848135352134705,0.03598547354340553,-0.08160527050495148,-0.04477955400943756,0.2580423355102539,0.02309250831604004
0.5135884881019592,-0.1993960738182068,-0.20009756088256836,0.004769571125507355,0.2593775987625122,0.08959901332855225
0.5529484748840332,-0.05034419149160385,-0.14563734829425812,0.011395666748285294,0.23941248655319214,0.06128835678100586
0.570003867149353,0.060070738196372986,-0.007197435945272446,0.038133785128593445,0.24015015363693237,0.06179320812225342
0.5101050734519958,0.07581183314323425,0.014975490048527718,-0.04470755159854889,0.24064791202545166,0.08880865573883057
0.5562365055084229,0.12483549863100052,-0.05605630204081535,-0.08187605440616608,0.2296748161315918,0.01572135090827942
0.5418519973754883,0.1456674039363861,-0.15861576795578003,-0.06453587859869003,0.2118040919303894,0.03945094347000122
0.543290376663208,0.04004095867276192,-0.1192069873213768,0.03260214626789093,0.16310250759124756,0.003996312618255615
0.4934178292751312,0.0657574012875557,-0.009421982802450657,0.02331072837114334,0.18216025829315186,-0.03418463468551636
0.35712870955467224,0.19716908037662506,0.0790872648358345,-0.011682465672492981,0.1885993480682373,-0.02406865358352661
0.4222547709941864,0.16393333673477173,0.07781979441642761,-0.010886741802096367,0.1484028697013855,-0.16916564106941223
0.5866966247558594,0.04536548629403114,-0.03077196702361107,-0.07994821667671204,0.09331762790679932,-0.20267221331596375
0.5882645845413208,-0.048378944396972656,-0.1279388964176178,-0.1079433411359787,0.03407776355743408,-0.10910958051681519
0.506685733795166,-0.1162501648068428,-0.07429350912570953,0.0009056124836206436,0.026983678340911865,-0.03370794653892517
0.4278559684753418,0.0903349220752716,-0.03962387517094612,0.02102014422416687,-0.007806062698364258,-0.03505909442901611
0.3794640004634857,0.21621710062026978,-0.0632055327296257,-0.023603729903697968,-0.07136476039886475,-0.08023729920387268
0.3108968734741211,0.01924888603389263,-0.09591366350650787,-0.04827111214399338,-0.09054052829742432,-0.08888116478919983
0.296581506729126,-0.03499457985162735,-0.0404384545981884,0.014870092272758484,-0.10294240713119507,-0.16748285293579102
0.21076597273349762,-0.11889339238405228,-0.014072135090827942,0.011367134749889374,-0.12573528289794922,-0.17463958263397217
0.18675224483013153,-0.06331322342157364,0.017932094633579254,0.021222904324531555,-0.17084598541259766,-0.21877257525920868
0.29179245233535767,-0.051278505474328995,0.03837013244628906,-0.032253921031951904,-0.20101988315582275,-0.28180330991744995
0.3727280795574188,-0.18910659849643707,0.08482694625854492,-0.00038389768451452255,-0.21715134382247925,-0.2409818023443222
0.3378499150276184,-0.2568625211715698,0.1840393841266632,0.06344376504421234,-0.2504788637161255,-0.13129127025604248
0.14090441167354584,-0.14595389366149902,0.22033913433551788,0.0019162241369485855,-0.2908656597137451,-0.017073974013328552
0.03836476430296898,-0.04007018357515335,0.22033178806304932,-0.045599814504384995,-0.3111916184425354,-0.07576742768287659
-0.12056734412908554,0.03245748579502106,0.19266854226589203,-0.06618183851242065,-0.33852559328079224,-0.09153984487056732
-0.22729182243347168,0.0831492468714714,0.19255127012729645,0.07095591723918915,-0.4596731662750244,-0.1930701732635498
-0.27420544624328613,0.11614863574504852,0.2086097002029419,0.12451080977916718,-0.5851319432258606,-0.263325959444046
-0.17653177678585052,0.23955774307250977,0.19657957553863525,-0.006138734519481659,-0.602351188659668,-0.36196041107177734
-0.17516173422336578,0.29611465334892273,0.11355084180831909,-0.13643747568130493,-0.5975563526153564,-0.3264988958835602
-0.31235143542289734,0.14832529425621033,-0.04026864469051361,-0.17776983976364136,-0.6209660768508911,-0.25966179370880127
-0.39090079069137573,0.026661431416869164,-0.19199775159358978,-0.11299805343151093,-0.6698076725006104,-0.24095825850963593
-0.19736401736736298,0.15610447525978088,-0.17777706682682037,-0.0029476284980773926,-0.6709886789321899,-0.35864347219467163
-0.0778120905160904,0.07120242714881897,-0.11575207114219666,0.04584154114127159,-0.6003282070159912,-0.2999749481678009
-0.05420820415019989,-0.03284546732902527,-0.0742725059390068,0.0015063732862472534,-0.45676344633102417,-0.25610285997390747
-0.0771547481417656,0.02221306599676609,-0.11456488817930222,-0.08241987973451614,-0.2879341244697571,-0.2522488236427307
-0.234152689576149,-0.029838168993592262,-0.17501170933246613,-0.09182661026716232,-0.16162431240081787,-0.20557716488838196
-0.32083839178085327,-0.16499219834804535,-0.15382017195224762,-0.012292951345443726,-0.10228860378265381,-0.22472792863845825
-0.34697356820106506,-0.1676160842180252,0.014991377480328083,0.04275171831250191,-0.053635478019714355,-0.19923445582389832
-0.2585923671722412,-0.21583551168441772,0.23121385276317596,0.06770645081996918,-0.0032882094383239746,-0.20935514569282532
-0.2347738891839981,-0.11641237884759903,0.32396575808525085,-0.015317913144826889,0.030266761779785156,-0.1618230640888214
-0.3458475172519684,-0.1486756056547165,0.06795486807823181,-0.07199463248252869,-0.019895195960998535,-0.06779083609580994
-0.3594874441623688,-0.2791595160961151,-0.06765998899936676,-0.015649504959583282,-0.025930285453796387,-0.08332288265228271
-0.47424906492233276,-0.2268235832452774,0.04163772612810135,-0.0173029862344265,-0.029889166355133057,-0.0049606263637542725
-0.5829362869262695,-0.05599602311849594,0.2374802529811859,-0.027802929282188416,-0.02234286069869995,0.011862635612487793
-0.567997395992279,0.06381186842918396,0.2561035454273224,-0.08185013383626938,-0.0027979612350463867,-0.05795171856880188
-0.4249398708343506,-0.002852072473615408,0.04238797724246979,-0.06721530854701996,-0.00600433349609375,-0.1207720935344696
-0.4154921770095825,-0.1535615175962448,-0.0298280268907547,0.06555026024580002,-0.007261097431182861,-0.05897611379623413
-0.5400415062904358,-0.11310095340013504,0.03717898949980736,0.05679965391755104,0.05101412534713745,0.016916602849960327
-0.6206219792366028,0.05568814277648926,0.1842557191848755,0.04173308238387108,0.0598219633102417,0.01156356930732727
-0.583655595779419,0.07356616854667664,0.26870405673980713,-0.04724462330341339,0.10698509216308594,-0.05238747596740723
-0.5819166302680969,0.036202482879161835,0.14886505901813507,-0.09117200970649719,0.10365831851959229,-0.024140000343322754
-0.5752201080322266,-0.09241355955600739,0.09223165363073349,0.03730424493551254,0.07547426223754883,-0.029502063989639282
-0.5977365970611572,0.011390015482902527,0.163008913397789,0.09125407785177231,0.11879110336303711,0.026800096035003662
-0.48744213581085205,0.16192469000816345,0.3011409044265747,0.0948122888803482,0.172044575214386,-0.02077937126159668
-0.3286627531051636,0.23218663036823273,0.303891122341156,0.04687780141830444,0.21496963500976562,-0.02317214012145996
-0.250682532787323,0.2661626935005188,0.0623759888112545,-0.02490933984518051,0.2380792498588562,0.026307255029678345
-0.4351653456687927,0.08218932151794434,-0.1208781749010086,0.08073499798774719,0.20239514112472534,0.20769712328910828
-0.6653954386711121,0.047245945781469345,-0.15520897507667542,0.10640517622232437,0.18869143724441528,0.31931012868881226
-0.5929341316223145,0.276472806930542,-0.12757046520709991,0.028328225016593933,0.20652669668197632,0.208472341299057
-0.37966564297676086,0.42193716764450073,-0.1689097285270691,-0.07879608869552612,0.2472531795501709,0.10414603352546692
-0.2173001766204834,0.46501991152763367,-0.24734435975551605,-0.0582272931933403,0.24358171224594116,0.10351747274398804
-0.1161501556634903,0.3774228096008301,-0.28170323371887207,0.02206449583172798,0.2103266716003418,0.0907151997089386
-0.24484260380268097,0.2649111747741699,-0.18020594120025635,0.08921246230602264,0.15721654891967773,0.21035081148147583
-0.12906479835510254,0.21786606311798096,-0.16715312004089355,-0.043685752898454666,0.20093411207199097,0.07181280851364136
0.324930876493454,0.30409014225006104,-0.2430039346218109,-0.056801460683345795,0.20390784740447998,-0.13541415333747864
0.6070472002029419,0.2507629990577698,-0.3030147850513458,-0.016311010345816612,0.19238543510437012,-0.063519686460495
0.5972779393196106,0.03189851716160774,-0.29810279607772827,0.037437520921230316,0.16282737255096436,0.08104550838470459
0.5164368748664856,-0.10929451882839203,-0.2567857801914215,0.04744059592485428,0.13044220209121704,0.12721538543701172
0.2713821828365326,0.01134630385786295,-0.12196070700883865,0.03250480443239212,0.10845273733139038,0.22752222418785095
0.12334124743938446,0.012284090742468834,-0.016252564266324043,-0.0038577241357415915,0.10353982448577881,0.18312498927116394
0.1802818924188614,0.013247877359390259,0.026354599744081497,-0.011989645659923553,0.09110832214355469,0.022285550832748413
0.09867413341999054,-0.052443839609622955,-0.015341108664870262,-0.014764092862606049,0.0765385627746582,0.04598206281661987
0.021293768659234047,-0.16929557919502258,-0.0925525650382042,0.008114345371723175,0.041242122650146484,0.004403948783874512
-0.026551760733127594,-0.18738257884979248,-0.09072121232748032,0.02600274235010147,0.014450013637542725,-0.009445726871490479
0.07898357510566711,-0.13208059966564178,0.007034230045974255,0.019793927669525146,0.021037518978118896,-0.0689755380153656
0.0657653883099556,-0.04186072573065758,0.03338835760951042,-0.04100853204727173,0.005302608013153076,-0.013730227947235107
-0.07329469174146652,-0.0541379414498806,0.048518106341362,-0.006860807538032532,-0.02898550033569336,0.06767970323562622
-0.1192476749420166,-0.10336005687713623,0.027331583201885223,-0.010574862360954285,-0.04490947723388672,0.02704906463623047
0.007239723112434149,-0.10300864279270172,-0.03916371613740921,-0.04188462346792221,-0.049807190895080566,-0.05084982514381409
0.10572392493486404,-0.07422800362110138,-0.03399786725640297,-0.028096161782741547,-0.03548985719680786,-0.044153690338134766
0.12225320190191269,-0.08547363430261612,-0.011079280637204647,-0.02796299010515213,-0.014080286026000977,0.01852262020111084
0.1403614580631256,-0.0833703801035881,-0.019715283066034317,-0.022586025297641754,0.005271792411804199,0.05622914433479309
0.1573837399482727,-0.05371563881635666,-0.009309688583016396,-0.008843384683132172,0.026716887950897217,0.10182636976242065
0.04296360909938812,-0.09212338179349899,-0.07806998491287231,-0.024704672396183014,0.04673224687576294,0.1932978630065918
-0.024185746908187866,-0.07188225537538528,-0.14810101687908173,-0.008470713160932064,0.055416882038116455,0.1958390176296234
-0.12716680765151978,-0.0861482322216034,-0.12824717164039612,0.006158255040645599,0.09550023078918457,0.20507925748825073
-0.09104883670806885,-0.06986475735902786,-0.04454230144619942,0.0033264830708503723,0.12740427255630493,0.08498984575271606
-0.10570428520441055,-0.05152491107583046,-0.004497629590332508,-0.03410903364419937,0.14249461889266968,0.09789344668388367
-0.05420111119747162,-0.0740915909409523,-0.06591614335775375,-0.059713155031204224,0.15257692337036133,0.07167479395866394
-0.0484430156648159,-0.1415441334247589,-0.17706480622291565,-0.051286980509757996,0.14985424280166626,0.12012466788291931
-0.04019933566451073,-0.14722147583961487,-0.1681109368801117,0.0076448991894721985,0.15701544284820557,0.11266431212425232
0.013754639774560928,-0.10606607794761658,-0.05161197483539581,0.01629042625427246,0.20660549402236938,0.05337947607040405
0.11512165516614914,-0.10379322618246078,0.030621765181422234,-0.005409561097621918,0.21887415647506714,0.0386522114276886
0.2058517187833786,-0.020279308781027794,0.008313962258398533,-0.037624433636665344,0.2052578330039978,0.06947728991508484
0.19719259440898895,-0.13950887322425842,-0.018842143937945366,0.007150829304009676,0.21328818798065186,0.12495070695877075
0.26784294843673706,-0.2500510513782501,0.0104932626709342,0.04916544258594513,0.24600017070770264,0.05714750289916992
0.43897926807403564,-0.07262136042118073,0.025915291160345078,0.014836296439170837,0.27254432439804077,0.0009852051734924316
0.5118567943572998,-0.09249754995107651,0.04952849820256233,0.007549473084509373,0.26278185844421387,0.07088884711265564
0.5564753413200378,-0.06532060354948044,0.02336195856332779,-0.007942409254610538,0.26545482873916626,0.11703944206237793
0.5069512128829956,-0.04757475107908249,-0.10242649167776108,-0.00481805857270956,0.2671439051628113,0.19600728154182434
0.3886902928352356,-0.1639980524778366,-0.163541778922081,0.051830485463142395,0.25439268350601196,0.21643438935279846
0.23365545272827148,-0.33602046966552734,-0.05715399980545044,0.10465125739574432,0.26624518632888794,0.23297438025474548
0.3463498055934906,-0.059640295803546906,0.1040240228176117,0.09577611833810806,0.23808163404464722,0.06604000926017761
0.5261809825897217,0.14376814663410187,0.13357476890087128,0.027762457728385925,0.20333975553512573,-0.05149015784263611
0.4988093674182892,0.05430033430457115,0.02035791240632534,0.006780557334423065,0.17740213871002197,-0.006189823150634766
0.33021360635757446,-0.23001457750797272,-0.08748967945575714,0.022604964673519135,0.16101139783859253,0.022135615348815918
0.26122331619262695,-0.41520991921424866,0.06934118270874023,0.2455461472272873,0.09423810243606567,-0.05771368741989136
0.3759379982948303,0.01197396032512188,0.27426502108573914,0.15000766515731812,0.05389690399169922,-0.14511138200759888
0.4881579875946045,0.07939941436052322,0.29398292303085327,-0.08725258708000183,0.09026408195495605,-0.16619807481765747
0.5289763808250427,-0.3302081823348999,0.07165012508630753,-0.12346959114074707,0.019024968147277832,-0.16395840048789978
0.5245519280433655,-0.30701035261154175,-0.0036194713320583105,-0.03729385882616043,-0.09255492687225342,-0.1721535325050354
0.46828165650367737,-0.1301286816596985,0.12268377840518951,0.02827031910419464,-0.10543298721313477,-0.09225833415985107
0.33622047305107117,0.06547142565250397,0.16437801718711853,-0.08984819054603577,-0.07635432481765747,-0.03450724482536316
0.3689217269420624,0.04198049381375313,0.05285010486841202,-0.1687549352645874,-0.036444664001464844,-0.10885107517242432
0.5348318815231323,-0.015681933611631393,-0.07232195883989334,-0.09984250366687775,-0.07845437526702881,-0.1963215172290802
0.39297160506248474,-0.10160191357135773,-0.045370765030384064,0.02421789988875389,-0.13913261890411377,-0.039068788290023804
0.2230595052242279,-0.09521493315696716,-0.008705658838152885,0.003950010985136032,-0.15020757913589478,-0.038317590951919556
0.1692882776260376,0.1438935548067093,0.027782559394836426,-0.04518701136112213,-0.1412065625190735,-0.11893004179000854
0.11781717836856842,0.24954435229301453,0.08163322508335114,-0.03664539381861687,-0.17062634229660034,-0.17481611669063568
0.11703552305698395,0.11526059359312057,0.0013607991859316826,-0.05475934222340584,-0.20373576879501343,-0.22716131806373596
0.19609381258487701,-0.006502201315015554,-0.20719757676124573,-0.058030299842357635,-0.3040960431098938,-0.3018568754196167
0.1586618721485138,-0.06938200443983078,-0.2146412432193756,0.03410017862915993,-0.37712734937667847,-0.23222826421260834
0.03291056305170059,0.01183573342859745,-0.09898979961872101,0.028616445139050484,-0.3732476830482483,-0.15032319724559784
0.05581406131386757,0.10092175006866455,-0.04408056661486626,-0.029386475682258606,-0.42508214712142944,-0.20737779140472412
-0.014864683151245117,0.1381864845752716,-0.045053862035274506,-0.11110170930624008,-0.477245569229126,-0.16213053464889526
-0.15402384102344513,-0.0011359592899680138,-0.053110525012016296,-0.10268603265285492,-0.5093781352043152,-0.1600702702999115
-0.316502183675766,-0.01763783022761345,-0.1698644608259201,-0.10710680484771729,-0.5227884650230408,-0.1997441053390503
-0.45868733525276184,0.018050314858555794,-0.2095409631729126,-0.012402182444930077,-0.5303496718406677,-0.23044608533382416
-0.4190855920314789,-0.11324805021286011,-0.027767427265644073,0.11016055196523666,-0.5453289151191711,-0.3685187101364136
-0.31236565113067627,-0.08451909571886063,0.12955765426158905,0.05961748957633972,-0.5257590413093567,-0.4231468737125397
-0.23646500706672668,0.11287886649370193,0.10266987234354019,-0.04920308291912079,-0.5005996227264404,-0.3769291937351227
-0.23231296241283417,0.16451899707317352,-0.0735882967710495,-0.0782838985323906,-0.42255711555480957,-0.30758461356163025
-0.3074067234992981,-0.08523032814264297,-0.14105501770973206,0.009020725265145302,-0.3574429750442505,-0.20907142758369446
-0.2981599271297455,-0.11473194509744644,-0.0979481190443039,0.0016353204846382141,-0.2688365578651428,-0.1946929693222046
-0.19049003720283508,-0.03197478502988815,0.11410822719335556,0.018557578325271606,-0.15823960304260254,-0.20140290260314941
-0.1042359247803688,0.192498579621315,0.18987753987312317,-0.08179307729005814,-0.0719289779663086,-0.15444621443748474
-0.07825744152069092,0.08183595538139343,0.016320139169692993,-0.10069087147712708,-0.07794147729873657,-0.14783501625061035
-0.268759548664093,-0.19520851969718933,-0.11322866380214691,-0.04294910281896591,-0.09296369552612305,-0.015641778707504272
-0.3308390974998474,-0.20619317889213562,-0.011545579880475998,0.0036282315850257874,-0.06984114646911621,-0.05888468027114868
-0.3740009069442749,-0.1156640499830246,0.17375747859477997,0.025428948923945427,-0.015220224857330322,-0.06843945384025574
-0.20982611179351807,0.033965568989515305,-0.005127551034092903,-0.14503270387649536,0.008611500263214111,-0.2276264727115631
-0.28580400347709656,-0.24742668867111206,-0.08065980672836304,-0.029704004526138306,-0.02182745933532715,-0.1343112587928772
-0.32473841309547424,-0.5009962320327759,0.022931832820177078,0.044730983674526215,-0.011299610137939453,-0.09704738855361938
-0.43271464109420776,-0.4315902292728424,0.2334345132112503,0.0674949437379837,-0.03208047151565552,0.009213268756866455
-0.5486660003662109,-0.1726846843957901,0.3051891624927521,-0.04336417093873024,-0.008034348487854004,0.005099445581436157
-0.41101667284965515,-0.11210934072732925,0.2526613175868988,-0.07613864541053772,-0.006107211112976074,-0.11281946301460266
-0.33609288930892944,-0.20055323839187622,0.15759854018688202,-0.043631140142679214,-0.011772751808166504,-0.05709698796272278
-0.3558397889137268,-0.10373324155807495,0.08616729080677032,-0.018878471106290817,-0.021511495113372803,0.02549859881401062
-0.49193963408470154,0.024486031383275986,0.01874343305826187,0.007704589515924454,-0.0005608797073364258,0.0843568742275238
-0.4758499264717102,0.05504283681511879,0.0030720389913767576,0.04999816417694092,0.03421849012374878,-0.047630876302719116
-0.2837359607219696,0.154264897108078,0.07964770495891571,0.04690920189023018,0.07572436332702637,-0.1580144762992859
-0.35369884967803955,0.09917593002319336,0.20073673129081726,0.04201122373342514,0.08334743976593018,0.019075453281402588
-0.482624351978302,0.21275123953819275,0.2264506220817566,0.02440318465232849,0.0544009804725647,0.14344137907028198
-0.511406421661377,0.4058726727962494,0.09082363545894623,-0.030588380992412567,0.07401478290557861,0.1459369957447052
-0.4714162349700928,0.3999904692173004,0.05537247657775879,0.0464588962495327,0.10861891508102417,0.13121971487998962
-0.39956530928611755,0.38612955808639526,0.03599076718091965,0.023447923362255096,0.16796129941940308,0.10093429684638977
-0.4019244611263275,0.3540094792842865,0.08193156123161316,0.052805181592702866,0.21022260189056396,0.11673840880393982
-0.2969202697277069,0.339948445558548,0.1732141375541687,0.10159410536289215,0.2420344352722168,0.052267104387283325
-0.2486792653799057,0.3908122181892395,0.17401595413684845,0.07264217734336853,0.2444661259651184,0.0837758481502533
-0.1414562314748764,0.488924503326416,0.0510534942150116,-0.003913894295692444,0.2504337430000305,0.05058407783508301
-0.12663361430168152,0.6171820759773254,-0.07894657552242279,-0.034402016550302505,0.25349193811416626,0.0801272988319397
-0.19250887632369995,0.4718305766582489,-0.08030568808317184,0.03145483508706093,0.2723914384841919,0.14093893766403198
-6.979471072554588e-05,0.27188536524772644,-0.042086273431777954,0.04864049702882767,0.28101617097854614,-0.0087355375289917
0.18002475798130035,0.03981347754597664,-0.04762936383485794,0.030643004924058914,0.26620036363601685,-0.04462072253227234
0.4964756965637207,0.12489067018032074,-0.16754914820194244,-0.0674837976694107,0.25183671712875366,-0.11001354455947876
0.5677562355995178,0.18210451304912567,-0.2144012302160263,-0.05367528647184372,0.2166987657546997,0.005734354257583618
0.5780177116394043,0.11617498844861984,-0.1720215231180191,-0.03833360970020294,0.19333982467651367,0.07121637463569641
0.5656848549842834,0.09000415354967117,-0.14849598705768585,-0.03040435165166855,0.15405488014221191,0.10654598474502563
0.494120717048645,0.04659169912338257,-0.15224149823188782,-0.014252430759370327,0.14673840999603271,0.11262592673301697
0.3573625981807709,-0.04559241607785225,-0.0985085591673851,0.04521409422159195,0.11350071430206299,0.13247957825660706
0.15372423827648163,-0.05856580659747124,-0.07308386266231537,0.024101436138153076,0.08461719751358032,0.14976602792739868
0.02086380124092102,-0.044790372252464294,-0.07181139290332794,0.02601422369480133,0.058799684047698975,0.10801640152931213
-0.0493040531873703,-0.01664574444293976,-0.09970568865537643,0.0038078278303146362,0.054527103900909424,0.07954424619674683
-0.07449046522378922,-0.06306353956460953,-0.08928098529577255,0.00903184711933136,0.05307823419570923,0.04957097768783569
-0.06597955524921417,-0.09300106018781662,-0.10647238045930862,-0.010716289281845093,0.05072814226150513,0.04694026708602905
-0.026385869830846786,-0.12547698616981506,-0.11170655488967896,0.009171731770038605,0.032347261905670166,0.030978649854660034
-0.060784950852394104,-0.1583477407693863,-0.15176086127758026,-0.022255994379520416,0.014683425426483154,0.08392137289047241
-0.058775827288627625,-0.11847662180662155,-0.1291007101535797,0.008194409310817719,-0.001773059368133545,0.06795677542686462
-0.09430836141109467,-0.10673986375331879,-0.040760479867458344,0.018863990902900696,0.02250075340270996,0.06944316625595093
-0.08574999868869781,0.03351215645670891,0.06748897582292557,0.030115678906440735,0.025394797325134277,0.04371657967567444
-0.07345893234014511,-0.024800075218081474,0.10313615202903748,0.024469122290611267,0.03322190046310425,0.02675226330757141
-0.07528703659772873,-0.005293312948197126,-0.008915462531149387,-0.019707143306732178,0.03910994529724121,0.06348341703414917
-0.17087037861347198,-0.0015772981569170952,-0.12855593860149384,-0.020462244749069214,0.050488293170928955,0.14717626571655273
-0.17491106688976288,-0.033787600696086884,-0.11704616248607635,0.03021954745054245,0.09106868505477905,0.13556143641471863
-0.14200714230537415,0.025853630155324936,-0.00475845905020833,0.05381746590137482,0.1426081657409668,0.15065252780914307
-0.10435906797647476,0.10027721524238586,0.06824919581413269,0.020533546805381775,0.18155550956726074,0.14006614685058594
-0.03644600510597229,0.13634739816188812,0.02587844617664814,-0.006911411881446838,0.19804954528808594,0.1213693618774414
0.041730865836143494,0.15432989597320557,-0.021660545840859413,-0.01172330230474472,0.21098971366882324,0.1099022626876831
0.14239922165870667,0.08637368679046631,0.01121625117957592,0.030863821506500244,0.2336798906326294,0.07979875802993774
0.14814811944961548,-0.1317274272441864,0.06867334246635437,0.0649738758802414,0.22280925512313843,0.10394605994224548
0.2874487042427063,-0.17373502254486084,0.14156372845172882,0.06587642431259155,0.2225685715675354,0.0599595308303833
0.3399147689342499,0.06984372437000275,0.11254473775625229,-0.035463131964206696,0.24961012601852417,0.07803130149841309
0.21040964126586914,0.10198432952165604,0.043146491050720215,-0.035321615636348724,0.25943201780319214,0.14785271883010864
0.3626047968864441,-0.014327426441013813,0.0271915215998888,-0.015340343117713928,0.26367640495300293,0.011942923069000244
0.6911263465881348,-0.34146198630332947,0.07804951816797256,0.04408108443021774,0.24980765581130981,-0.08101463317871094
0.7738524079322815,-0.07657264918088913,0.016215015202760696,-0.06159220635890961,0.22939538955688477,0.07914590835571289
0.6530930995941162,0.15087956190109253,-0.008423159830272198,-0.034323714673519135,0.22296887636184692,0.14976286888122559
0.4545561373233795,0.2772081196308136,-0.0721743032336235,-0.03715408593416214,0.20307695865631104,0.15258166193962097
0.421914666891098,-0.07983177155256271,-0.15640737116336823,-0.005333505570888519,0.16912972927093506,0.03233522176742554
0.60554039478302,-0.17949844896793365,-0.23495304584503174,0.00880739837884903,0.10304051637649536,-0.09148299694061279
0.6509338617324829,0.08203516155481339,-0.14542774856090546,0.030926577746868134,0.08935946226119995,-0.0639767050743103
0.6226345896720886,0.2836085557937622,-0.02498631365597248,0.04524146020412445,0.08144372701644897,-0.07548144459724426
0.5490335822105408,0.11902114003896713,-0.06213871389627457,-0.014552847482264042,0.08479225635528564,-0.08986857533454895
0.5714616775512695,-0.24652081727981567,-0.1849704384803772,-0.043961554765701294,0.08750969171524048,-0.09646108746528625
0.672332227230072,-0.10193553566932678,-0.2055632323026657,-0.03676702827215195,0.062396347522735596,-0.11551529169082642
0.636442244052887,0.1729268878698349,-0.10499394685029984,-0.019691593945026398,0.07122135162353516,-0.06776541471481323
0.5888303518295288,0.263786256313324,-0.04922150820493698,-0.04250822216272354,0.040824830532073975,-0.13177603483200073
0.5121976733207703,0.05075980722904205,-0.09335363656282425,-0.07036308199167252,0.025158822536468506,-0.16837190091609955
0.4592150151729584,-0.2061375230550766,-0.12319513410329819,-0.015561304986476898,-0.018215179443359375,-0.1866316795349121
0.36093515157699585,-0.18769803643226624,-0.11512071639299393,0.007350808009505272,-0.07786351442337036,-0.10900072753429413
0.3593044579029083,0.07577613741159439,-0.14734381437301636,-0.06811448186635971,-0.10143840312957764,-0.18279008567333221
0.46472638845443726,0.1254381388425827,-0.1434597671031952,-0.04361968860030174,-0.13476121425628662,-0.2612232267856598
0.38631802797317505,0.015844495967030525,-0.16854938864707947,-0.04776133596897125,-0.2121638059616089,-0.22736704349517822
0.2962149679660797,-0.18449120223522186,-0.0954752117395401,0.051301855593919754,-0.3016815781593323,-0.17483170330524445
0.28851261734962463,-0.29495447874069214,0.03711942210793495,0.02868684008717537,-0.3144339323043823,-0.1863124817609787
0.30612003803253174,-0.20881099998950958,0.14024445414543152,-0.04231763258576393,-0.300229012966156,-0.2586015462875366
0.26592516899108887,-0.1864413172006607,0.20136776566505432,0.03575887531042099,-0.3776583671569824,-0.26600968837738037
0.2095640003681183,-0.2346823364496231,0.11993207037448883,0.036553338170051575,-0.4779101610183716,-0.26925748586654663
0.26416489481925964,-0.31664571166038513,0.0392146110534668,0.00033930689096450806,-0.5042980313301086,-0.2451004981994629
0.27011871337890625,-0.2776123285293579,0.0879441425204277,0.01135801337659359,-0.507848858833313,-0.1725052446126938
0.12643766403198242,-0.10475243628025055,0.15156519412994385,-0.0003250185400247574,-0.5587450861930847,-0.05593155324459076
0.03781022131443024,0.0702805444598198,0.12838353216648102,-0.002518674358725548,-0.6039596796035767,-0.12957288324832916
-0.08127233386039734,0.13285291194915771,-0.007774588651955128,-0.09105802327394485,-0.5928377509117126,-0.14379191398620605
-0.22534435987472534,-0.05725163221359253,-0.08397530019283295,-0.06779385358095169,-0.5628542304039001,-0.13070768117904663
-0.2901667654514313,0.051733117550611496,-0.13714709877967834,-0.04696636646986008,-0.5568292737007141,-0.14460110664367676
-0.22958232462406158,0.17583411931991577,-0.1250002533197403,-0.011862240731716156,-0.4965897798538208,-0.20643872022628784
-0.16200949251651764,0.18588778376579285,0.03992724418640137,0.09326744824647903,-0.4064651131629944,-0.21945028007030487
-0.12435447424650192,0.081784188747406,0.1377611756324768,0.06692636013031006,-0.2918919324874878,-0.20465897023677826
-0.25374287366867065,-0.002663923893123865,0.13581155240535736,-0.016756201162934303,-0.2062785029411316,-0.13324634730815887
-0.4019581079483032,-0.020825430750846863,-0.053361427038908005,-0.1252518594264984,-0.177199125289917,-0.09314960241317749
-0.4719541072845459,-0.019860586151480675,-0.2987549304962158,-0.1021895781159401,-0.18649762868881226,-0.11283300817012787
-0.46556055545806885,-0.12747010588645935,-0.31640031933784485,0.019046708941459656,-0.12601768970489502,-0.07426697015762329
-0.3548075556755066,-0.33586016297340393,-0.06705503910779953,0.12805812060832977,-0.0213049054145813,-0.09295523166656494
-0.499790757894516,-0.2551395297050476,0.11239728331565857,-0.0067428238689899445,-0.012315154075622559,-0.004714995622634888
-0.4757290482521057,-0.10960162431001663,0.08122215420007706,-0.0772990882396698,-0.033023297786712646,-0.10671968758106232
-0.5180327892303467,-0.2153627872467041,-0.12834720313549042,-0.08577423542737961,-0.0795181393623352,-0.10114425420761108
-0.4646732807159424,-0.15922905504703522,-0.09418163448572159,0.025606080889701843,-0.050908446311950684,-0.11733996868133545
-0.4629153311252594,0.08620116114616394,0.11339879035949707,0.03944297134876251,0.03031003475189209,-0.10474817454814911
-0.5344905257225037,0.1472032368183136,0.31954261660575867,0.014487279579043388,0.04631465673446655,-0.10020288825035095
-0.5712648034095764,0.02392338402569294,0.1754714399576187,-0.10089951008558273,0.06178879737854004,-0.10483261942863464
-0.5441875457763672,-0.31794261932373047,-0.17120549082756042,-0.061709366738796234,-0.009318888187408447,-0.11330971121788025
-0.5064838528633118,-0.3925648033618927,-0.2574842870235443,0.04773430526256561,0.011054694652557373,-0.06459537148475647
-0.5134004354476929,-0.24374236166477203,-0.009924007579684258,0.12086048722267151,0.06581026315689087,-0.005129724740982056
-0.6016921997070312,0.1659037470817566,0.2339504361152649,0.03503982722759247,0.11129540205001831,0.05728036165237427
-0.6729300618171692,0.22211331129074097,0.26743215322494507,-0.017650321125984192,0.12842965126037598,0.06258255243301392
-0.6679320335388184,0.13779591023921967,-0.073466956615448,-0.09506190568208694,0.0959320068359375,0.013048410415649414
-0.7023729681968689,0.05744272470474243,-0.24541586637496948,-0.018163315951824188,0.1140751838684082,0.04727157950401306
-0.9254151582717896,-0.023256588727235794,-0.1004997119307518,0.03828335553407669,0.1848638653755188,0.15438249707221985
-1.028876781463623,-0.0851622223854065,0.13001489639282227,0.06800278276205063,0.24484413862228394,0.0889790952205658
-0.9348911046981812,-0.10982295870780945,0.222615048289299,0.004395769909024239,0.29945480823516846,-0.022921264171600342
-0.6178311705589294,-0.19548772275447845,0.2032734900712967,0.030235663056373596,0.3132167458534241,-0.1401318907737732
-0.42994728684425354,-0.13044822216033936,0.07113955914974213,0.02400641143321991,0.29803216457366943,-0.034356653690338135
-0.5003774166107178,-0.01853402890264988,0.026535801589488983,0.028407588601112366,0.2925141453742981,0.15256965160369873
-0.6554256081581116,-0.022490091621875763,0.1529170423746109,0.06386364251375198,0.3018978238105774,0.22807466983795166
-0.5540781021118164,0.08868692070245743,0.25051453709602356,0.04050729423761368,0.31005656719207764,0.10081279277801514
-0.15290658175945282,0.16269700229167938,0.14420725405216217,-0.019490055739879608,0.2972303032875061,-0.06659981608390808
0.1381271481513977,0.04216345399618149,-0.00041360186878591776,-0.01331685483455658,0.24059349298477173,-0.028878390789031982
0.20351114869117737,0.06520697474479675,-0.04907247796654701,-0.002424776554107666,0.19340431690216064,0.05507779121398926
0.2232246696949005,0.1408066600561142,0.013864141888916492,0.03403698652982712,0.14471060037612915,0.05673336982727051
0.33395808935165405,0.15586310625076294,0.10998716950416565,0.06607785820960999,0.11805814504623413,0.024416685104370117
0.5797785520553589,0.02942768484354019,0.08310233056545258,-0.014167740941047668,0.11717373132705688,-0.07751291990280151
0.7299038171768188,-0.06804756820201874,-0.01817306876182556,-0.028789706528186798,0.08577007055282593,-0.03807854652404785
0.5841571688652039,-0.04711486026644707,-0.09077562391757965,-0.02531787008047104,0.03484433889389038,0.15433067083358765
0.38017669320106506,0.06564977765083313,-0.03784877061843872,0.03284113109111786,-0.009743809700012207,0.21222010254859924
0.16446228325366974,0.11287889629602432,0.008745013736188412,0.03649049997329712,-0.032692551612854004,0.21079754829406738
-0.08102201670408249,0.01066911406815052,0.030097462236881256,0.0315384715795517,-0.016697466373443604,0.1958620548248291
-0.12136993557214737,-0.01987215131521225,-0.07639420032501221,-0.035207703709602356,0.01033872365951538,0.059849321842193604
-0.032250113785266876,-0.025821179151535034,-0.15731532871723175,-0.008959144353866577,0.03275376558303833,-0.018243610858917236
0.010015476495027542,0.05828508362174034,-0.12082062661647797,0.018969811499118805,0.03201937675476074,0.0007421970367431641
0.0345301553606987,0.09219024330377579,-0.04317740723490715,0.0022067800164222717,0.04127764701843262,0.01901376247406006
0.08148791640996933,0.09463681280612946,0.07420650869607925,0.022221699357032776,0.022183477878570557,-0.016033411026000977
0.1429162472486496,0.1730550080537796,0.08860698342323303,-0.014342918992042542,0.017216086387634277,0.005449533462524414
0.14380334317684174,0.1544540971517563,0.058545246720314026,-0.02975139021873474,0.026416420936584473,0.07014733552932739
0.04926443099975586,0.12993420660495758,0.03018302470445633,-0.03759615123271942,0.046923041343688965,0.14970245957374573
-0.1420057713985443,-0.005054333712905645,0.010963080450892448,-0.027077019214630127,0.06269770860671997,0.2219673991203308
-0.22900651395320892,-0.039814725518226624,0.05298750102519989,0.0025758591946214437,0.07617473602294922,0.17080435156822205
-0.23105837404727936,0.05520106852054596,0.035732053220272064,-0.04770643264055252,0.09453684091567993,0.11205083131790161
-0.13083581626415253,0.033876240253448486,-0.08511651307344437,-0.09579629451036453,0.11965960264205933,0.027926355600357056
-0.03574943542480469,-0.1063479408621788,-0.18983818590641022,-0.08602201193571091,0.1263849139213562,-0.019379913806915283
0.11344627290964127,-0.2153063267469406,-0.23215797543525696,-0.08009451627731323,0.1648939847946167,-0.04999279975891113
0.13346640765666962,-0.19422955811023712,-0.18303409218788147,-0.03022994101047516,0.1991957426071167,0.04100596904754639
0.09168002009391785,-0.11361169070005417,-0.1536272019147873,-0.03354490548372269,0.2310166358947754,0.11712837219238281
0.15279722213745117,-0.04181685298681259,-0.20366427302360535,-0.06569328904151917,0.2400171160697937,0.048886656761169434
0.10062137246131897,-0.18405255675315857,-0.20060670375823975,0.0024160388857126236,0.215349018573761,0.09856712818145752
0.04470422863960266,-0.28660765290260315,-0.02536218985915184,0.14868047833442688,0.19625842571258545,0.11113917827606201
0.022506874054670334,-0.2925638258457184,0.14433600008487701,0.17060740292072296,0.24447327852249146,0.09064847230911255
0.24796134233474731,-0.1835605353116989,0.08512768149375916,0.03902246803045273,0.27625101804733276,-0.058161765336990356
0.3679426908493042,-0.13308654725551605,-0.04101311415433884,-0.019851744174957275,0.270064115524292,-0.01825094223022461
0.34275445342063904,-0.1897893100976944,-0.034290414303541183,0.06014949828386307,0.23658615350723267,0.0982820987701416
0.21747198700904846,-0.22681988775730133,0.11614185571670532,0.15174256265163422,0.23335307836532593,0.21864938735961914
0.19693706929683685,-0.11606741696596146,0.197520449757576,0.11658608913421631,0.21065211296081543,0.18109792470932007
0.3246951997280121,0.101250559091568,0.15570800006389618,-0.018200919032096863,0.21805834770202637,0.08646932244300842
0.4348644018173218,0.12529966235160828,0.05298483744263649,-0.06805341690778732,0.24045681953430176,0.05042356252670288
0.3044373691082001,0.006499741226434708,-0.031119586899876595,0.0034930482506752014,0.2068263292312622,0.1521841287612915
0.23444056510925293,0.02841201424598694,-0.03320065140724182,0.02176053822040558,0.16967010498046875,0.08526131510734558
0.127655029296875,0.11401066184043884,0.02226303517818451,0.016366086900234222,0.08918493986129761,0.02884918451309204
0.287845253944397,0.1491672694683075,0.028196044266223907,0.006784208118915558,0.05653876066207886,-0.20721769332885742
0.5259360671043396,0.1526774764060974,-0.011350681073963642,0.02737635374069214,0.07579183578491211,-0.29674574732780457
0.5736677050590515,0.1718888282775879,-0.10405843704938889,-0.021157048642635345,0.05166435241699219,-0.1971331238746643
0.4822445213794708,0.023206528276205063,-0.1358361393213272,-0.033901698887348175,-0.004578590393066406,-0.07254824042320251
0.4005511999130249,0.0028234124183654785,-0.08378243446350098,-0.029737167060375214,-0.04944300651550293,-0.08587995171546936
0.3981401026248932,0.20602121949195862,0.021171221509575844,-0.012856759130954742,-0.05126309394836426,-0.11077535152435303
0.6007112264633179,0.23921139538288116,-0.015997987240552902,-0.04561993479728699,-0.02238285541534424,-0.2640172839164734
0.6835345029830933,0.09523358941078186,-0.15480849146842957,-0.08511929214000702,-0.04688841104507446,-0.2373490333557129
0.6298025846481323,-0.09680444002151489,-0.16947782039642334,-0.04492564499378204,-0.10736089944839478,-0.15241995453834534
0.4609317183494568,-0.06750675290822983,-0.020585542544722557,0.011389171704649925,-0.12133616209030151,-0.04817637801170349
0.38997533917427063,-0.023222604766488075,0.030585967004299164,-0.05137098580598831,-0.09065479040145874,-0.10676589608192444
0.4012340009212494,-0.18062910437583923,-0.06220534071326256,-0.06268679350614548,-0.08257442712783813,-0.16930100321769714
0.4497007429599762,-0.386087030172348,-0.14355149865150452,-0.06467792391777039,-0.10708153247833252,-0.21306078135967255
0.2930113673210144,-0.4758784770965576,-0.02001730166375637,-0.006325364112854004,-0.1668643355369568,-0.11490774154663086
0.1283498853445053,-0.26698845624923706,0.113848976790905,-0.00043766945600509644,-0.2211235761642456,-0.07052779197692871
0.02155119925737381,-0.15524142980575562,0.11730390042066574,-0.03672397881746292,-0.22133147716522217,-0.08244022727012634
-0.05370724946260452,-0.259857714176178,0.1110922321677208,-0.027644015848636627,-0.21193546056747437,-0.06073175370693207
-0.2794105112552643,-0.38494735956192017,0.08217793703079224,-0.030566714704036713,-0.2839508056640625,-0.03388011455535889
-0.2872525751590729,-0.3341214954853058,0.04989404231309891,-0.002795308828353882,-0.36994653940200806,-0.11015740036964417
-0.1873268485069275,-0.01051247026771307,0.18296493589878082,0.09620732069015503,-0.44330936670303345,-0.19158533215522766
-0.17538097500801086,0.23113225400447845,0.22407658398151398,0.0060108378529548645,-0.4729793071746826,-0.14791637659072876
-0.257568359375,0.21031127870082855,0.14983627200126648,0.004261261783540249,-0.5630661845207214,-0.1675606071949005
-0.21113286912441254,-0.002746998332440853,0.004039992578327656,-0.051992036402225494,-0.5594004392623901,-0.2669444680213928
-0.17116610705852509,-0.0077202762477099895,-0.03806902468204498,-0.035283975303173065,-0.5721747875213623,-0.31146523356437683
-0.17334648966789246,0.05876683071255684,0.07558432221412659,0.013902917504310608,-0.5172895193099976,-0.2603733539581299
-0.24074433743953705,0.35198235511779785,0.06386145204305649,-0.11024446040391922,-0.4581979513168335,-0.21170949935913086
-0.28262391686439514,0.3097774386405945,-0.07731273770332336,-0.1357618272304535,-0.41500604152679443,-0.24072933197021484
-0.2609628438949585,0.027646156027913094,-0.21632175147533417,-0.06403166800737381,-0.39728379249572754,-0.31206709146499634
-0.24075791239738464,0.006978626362979412,-0.1295895129442215,0.05510874092578888,-0.3585652709007263,-0.2977423071861267
-0.19485171139240265,0.05285701900720596,0.009371474385261536,0.036520011723041534,-0.28536534309387207,-0.2728268504142761
-0.23990106582641602,0.14435003697872162,0.015291579999029636,-0.022234633564949036,-0.24477022886276245,-0.1941346526145935
-0.26791271567344666,0.14856374263763428,-0.06866544485092163,-0.03498709201812744,-0.2200021743774414,-0.21431729197502136
-0.16093888878822327,-0.013515476137399673,-0.020661355927586555,0.029899239540100098,-0.16867345571517944,-0.29592272639274597
-0.16415603458881378,-0.04706626012921333,0.07332611829042435,0.0419466495513916,-0.12232369184494019,-0.19211584329605103
-0.16112442314624786,0.039331138134002686,0.2007392942905426,0.0835266187787056,-0.08384555578231812,-0.118705153465271
-0.20649796724319458,0.11297313868999481,0.24437358975410461,0.044058024883270264,-0.060479938983917236,-0.053132474422454834
-0.21586796641349792,-0.005966416094452143,0.24558836221694946,0.0004808977246284485,-0.034640371799468994,-0.06091099977493286
-0.29495272040367126,-0.05300102010369301,0.2515026330947876,-0.04319383203983307,-0.033712029457092285,-0.056919991970062256
-0.35835909843444824,0.06643735617399216,0.2616582214832306,-0.05480242520570755,-0.015269339084625244,-0.0412314236164093
-0.4083496034145355,0.19779078662395477,0.24251411855220795,-0.006486466154456139,-0.004803955554962158,-0.049593061208724976
-0.4034509062767029,0.14472980797290802,0.12123558670282364,-0.043805547058582306,-0.00305938720703125,-0.0908505916595459
-0.33192235231399536,0.08698011934757233,-0.029893379658460617,-0.1253511756658554,-0.0018253922462463379,-0.14285090565681458
-0.2923903167247772,0.08997088670730591,-0.018516691401600838,-0.08800477534532547,0.010764718055725098,-0.1399461328983307
-0.27139410376548767,0.2760124206542969,0.023761779069900513,-0.07360292226076126,0.042180776596069336,-0.07532903552055359
-0.29531699419021606,0.24639342725276947,0.046826187521219254,-0.01679128408432007,0.06400549411773682,-0.03444361686706543
-0.35834792256355286,0.1611013263463974,0.030546171590685844,-0.01803654432296753,0.1163245439529419,-0.00536346435546875
-0.4746219515800476,0.13893769681453705,0.010184703394770622,-0.007370248436927795,0.145074725151062,0.014934897422790527
-0.4786921739578247,0.1870114803314209,-0.11951523274183273,-0.03248488903045654,0.1819080114364624,-0.032328903675079346
-0.42073243856430054,0.10117291659116745,-0.1743084043264389,0.02230849117040634,0.18187779188156128,-0.042862921953201294
-0.39909669756889343,0.06114489212632179,-0.10735311359167099,0.022506602108478546,0.22782307863235474,0.017530083656311035
-0.41834720969200134,0.09858306497335434,-0.011120844632387161,0.001996830105781555,0.2595711946487427,0.054803550243377686
-0.5204393863677979,0.11478270590305328,-0.01364942267537117,-0.050156369805336,0.30659395456314087,0.11418277025222778
-0.4652095139026642,0.03352896124124527,-0.07698002457618713,-0.05172744393348694,0.3521183133125305,0.06932711601257324
-0.33750927448272705,0.0060098846442997456,-0.03970446065068245,0.023556366562843323,0.3562614917755127,0.08333635330200195
-0.23031140863895416,0.04760964214801788,0.06386817246675491,0.04772627353668213,0.3290773630142212,0.1126818060874939
-0.2276434451341629,0.010706983506679535,0.14210893213748932,0.05902882665395737,0.30256450176239014,0.17718175053596497
-0.15447118878364563,-0.10659776628017426,0.13463103771209717,0.06664635986089706,0.2932695150375366,0.14700287580490112
-0.006420634221285582,-0.08510614931583405,0.07483542710542679,0.04253048449754715,0.2765583395957947,0.10311102867126465
0.21158334612846375,-0.0609496533870697,0.03514627367258072,0.026707381010055542,0.2481183409690857,0.0511317253112793
0.44153833389282227,0.013849625363945961,0.04149593785405159,0.024530895054340363,0.21899306774139404,0.018623173236846924
0.5219194889068604,-0.09689457714557648,0.056141290813684464,0.013905101455748081,0.1968950629234314,0.04650649428367615
0.4901479184627533,-0.1385328471660614,0.047263115644454956,0.006002707406878471,0.14684748649597168,0.10873299837112427
0.41933611035346985,-0.12959779798984528,-0.02009877748787403,0.01159270666539669,0.0805167555809021,0.14717596769332886
0.3431931734085083,-0.147849902510643,-0.07314931601285934,0.022944318130612373,0.03876394033432007,0.16212522983551025
0.2900516092777252,-0.15688367187976837,-0.04399246722459793,0.019863195717334747,0.05122566223144531,0.12852472066879272
0.19388052821159363,-0.19680622220039368,-0.015248218551278114,0.002151312306523323,0.04790991544723511,0.1322929859161377
0.10976725816726685,-0.265911728143692,-0.044994741678237915,-0.019991301000118256,0.04158216714859009,0.1126394271850586
0.06906455755233765,-0.22144165635108948,-0.11141272634267807,-0.018605612218379974,0.02818310260772705,0.09188956022262573
0.04624562710523605,-0.23964819312095642,-0.12889282405376434,0.010671287775039673,0.031195223331451416,0.08964967727661133
0.022946856915950775,-0.18182611465454102,-0.1038127988576889,0.020205996930599213,0.02986598014831543,0.0759042501449585
0.028930772095918655,-0.09476086497306824,-0.025803105905652046,0.023236745968461037,0.03623563051223755,0.051954835653305054
0.007149407174438238,-0.06645407527685165,0.0671989843249321,0.04204690456390381,0.04104429483413696,0.07359880208969116
-0.04928916320204735,0.014599062502384186,0.09356813877820969,0.04100789874792099,0.04821157455444336,0.10632866621017456
-0.09531155228614807,0.06881234794855118,0.04898351430892944,0.01322551816701889,0.06185770034790039,0.11035579442977905
-0.1063987985253334,0.046593453735113144,0.02236006036400795,0.043086644262075424,0.08862793445587158,0.10872089862823486
-0.10725228488445282,0.12583325803279877,0.00265358854085207,0.021103836596012115,0.09884721040725708,0.11883920431137085
-0.17129282653331757,0.18014802038669586,0.031667560338974,0.029560016468167305,0.12108516693115234,0.18983504176139832
-0.27268144488334656,0.21583151817321777,0.01938679628074169,-0.026270849630236626,0.14245617389678955,0.2210865318775177
-0.22240833938121796,0.2864781320095062,-0.058320846408605576,-0.0774005576968193,0.20073825120925903,0.09956330060958862
-0.014237036928534508,0.28717729449272156,-0.1940539926290512,-0.08287288248538971,0.2643793225288391,-0.012811899185180664
0.19493743777275085,0.3570162057876587,-0.24959838390350342,-0.013661122880876064,0.30510133504867554,0.002433985471725464
0.17083188891410828,0.41321805119514465,-0.236996129155159,0.03217461705207825,0.3273073434829712,0.1637817621231079
0.11648192256689072,0.3056504726409912,-0.12984934449195862,0.10742338001728058,0.33390164375305176,0.1884394884109497
0.20947425067424774,0.29241982102394104,-0.08138080686330795,0.09066217392683029,0.31805574893951416,0.06783682107925415
0.3882295489311218,0.24346603453159332,-0.22999174892902374,-0.008211418986320496,0.31470274925231934,-0.04097414016723633
0.5530343055725098,0.07801253348588943,-0.3786303997039795,-0.02012142725288868,0.2861477732658386,-0.07625147700309753
0.5846297740936279,0.006450186483561993,-0.32195568084716797,-0.008865147829055786,0.28007519245147705,0.003326117992401123
0.47297531366348267,-0.04250986874103546,-0.1385544240474701,-0.034617550671100616,0.29830318689346313,0.07788574695587158
0.33857712149620056,-0.05492003634572029,-0.03704715892672539,-0.11089213192462921,0.2871502637863159,0.1180230975151062
0.39961084723472595,0.06212402135133743,-0.07206745445728302,-0.14932303130626678,0.22680914402008057,0.0481545627117157
0.3480680584907532,0.024738449603319168,-0.11355087906122208,-0.10727804899215698,0.1911488175392151,0.10823497176170349
0.27600157260894775,-0.12356016039848328,-0.04479420557618141,-0.0004598870873451233,0.15636366605758667,0.11202120780944824
0.21020908653736115,-0.0767887532711029,0.07154496014118195,0.02552533894777298,0.11393499374389648,0.06524783372879028
0.07533483952283859,-0.009412281215190887,0.19036798179149628,0.00212039053440094,0.06207674741744995,0.042216360569000244
0.1458420604467392,-0.06409134715795517,0.2369808405637741,0.0005235355347394943,0.022938430309295654,-0.1422807276248932
0.36556947231292725,-0.035427846014499664,0.052221208810806274,-0.04833955317735672,-0.007224619388580322,-0.2864428162574768
0.4580100476741791,-0.08088666200637817,-0.16094885766506195,-0.06264685094356537,-0.03339940309524536,-0.25368720293045044
0.5255089998245239,-0.22647222876548767,-0.11202376335859299,-0.01218309998512268,-0.04845845699310303,-0.23544174432754517
0.3550103008747101,-0.16474609076976776,0.13311037421226501,0.013818211853504181,-0.06949847936630249,-0.07805442810058594
0.2586045265197754,-0.13266588747501373,0.33506423234939575,0.08281231671571732,-0.06473594903945923,-0.01671430468559265
0.3685739040374756,-0.00406903401017189,0.17307163774967194,-0.09947118163108826,-0.0165555477142334,-0.10075050592422485
0.4293532073497772,-0.055850982666015625,-0.04150325059890747,-0.08637049049139023,-0.06872308254241943,-0.1546964943408966
0.31507444381713867,-0.050545528531074524,-0.06790041923522949,0.013514203950762749,-0.10678672790527344,-0.15080323815345764
0.29498961567878723,-0.07316844165325165,0.014264138415455818,0.07166753709316254,-0.08123350143432617,-0.18954992294311523
0.199519544839859,-0.15472407639026642,0.10360574722290039,0.10453605651855469,-0.08731687068939209,-0.09126055240631104
0.09029091149568558,-0.15740925073623657,0.04867769405245781,-0.0014904886484146118,-0.10961097478866577,-0.04873919486999512
0.15631014108657837,-0.11745363473892212,-0.05610695853829384,-0.011404791846871376,-0.1576874852180481,-0.19130799174308777
0.2785300314426422,-0.15069229900836945,-0.10138415545225143,-0.007783956825733185,-0.24176150560379028,-0.32138973474502563
0.2207438349723816,-0.13592515885829926,-0.06696856766939163,-0.013414077460765839,-0.2794153690338135,-0.2342360019683838
0.017508655786514282,-0.14031898975372314,0.011227604001760483,0.0024913297966122627,-0.29009193181991577,-0.07800962030887604
0.03618149086833,-0.025470741093158722,0.0009004110470414162,-0.06566400825977325,-0.3211085796356201,-0.16686415672302246
0.06390233337879181,-0.002382997889071703,-0.06673722714185715,-0.0780390128493309,-0.41564083099365234,-0.18607184290885925
0.13630950450897217,0.009344438090920448,-0.11469828337430954,0.020185774192214012,-0.49314725399017334,-0.21130894124507904
0.08087218552827835,0.021592941135168076,-0.04095384106040001,0.10080667585134506,-0.5078942179679871,-0.14512228965759277
-0.05504431575536728,0.049958012998104095,-0.03922705352306366,-0.04389595240354538,-0.48197829723358154,-0.15049421787261963
-0.07223843783140182,0.08884929865598679,-0.017381493002176285,-0.050186604261398315,-0.4894184470176697,-0.27230674028396606
-0.03436155244708061,0.1512814462184906,-0.07695738971233368,-0.054848864674568176,-0.4576137065887451,-0.2545921504497528
0.017762383446097374,0.11019279062747955,-0.08850955963134766,0.05250684171915054,-0.4270213842391968,-0.21282225847244263
-0.06604442745447159,-0.008543074131011963,-0.08347021043300629,0.035312749445438385,-0.38764238357543945,-0.1419612169265747
-0.22592966258525848,0.11198098957538605,-0.05189366638660431,0.020095400512218475,-0.37158310413360596,-0.07175189256668091
-0.40685343742370605,0.2641047537326813,-0.062452830374240875,-0.01879066787660122,-0.3541492223739624,-0.09287895262241364
-0.5350008010864258,0.2686786651611328,-0.10524395108222961,0.0007012747228145599,-0.35235345363616943,-0.11741332709789276
-0.5282156467437744,0.107581228017807,-0.0962902307510376,0.029752038419246674,-0.32112348079681396,-0.23478996753692627
-0.48628246784210205,-0.010943116620182991,-0.08893048763275146,-0.044204045087099075,-0.25786834955215454,-0.2946867048740387
-0.37436532974243164,0.012286340817809105,-0.05055728554725647,-0.07483286410570145,-0.20247513055801392,-0.34760820865631104
-0.26275867223739624,0.020126529037952423,-0.005601624958217144,-0.06232086941599846,-0.14445102214813232,-0.34020134806632996
-0.29489946365356445,-0.11329052597284317,-0.022571710869669914,0.010967414826154709,-0.13547950983047485,-0.2108210027217865
-0.3412751257419586,-0.20590201020240784,-0.00758735928684473,0.017499499022960663,-0.10105419158935547,-0.13909155130386353
-0.33810093998908997,-0.17277029156684875,0.11092900484800339,0.023237694054841995,-0.05011558532714844,-0.08862337470054626
-0.39397159218788147,-0.17598196864128113,0.2195613980293274,-0.010044332593679428,0.00950390100479126,-0.023610919713974
-0.4719129502773285,-0.05138912424445152,0.1443489044904709,-0.030586089938879013,0.008397877216339111,-0.01377055048942566
-0.5848156213760376,-0.061774712055921555,0.026053978130221367,0.03530743718147278,-0.044203341007232666,-0.007641971111297607
-0.6632423996925354,-0.31405702233314514,0.16008420288562775,0.14044685661792755,-0.003995537757873535,-0.031066685914993286
-0.6860224008560181,-0.27719196677207947,0.26545730233192444,0.04381229728460312,0.004521310329437256,-0.0910000205039978
-0.6520342230796814,-0.021894995123147964,0.30101585388183594,-0.08586522936820984,0.036180734634399414,-0.13138777017593384
-0.5749894380569458,0.06509073078632355,0.2770167887210846,-0.05417218059301376,0.042162954807281494,-0.12938660383224487
-0.4658828675746918,0.02716117724776268,0.1472809612751007,-0.027141697704792023,-0.013380825519561768,-0.13323014974594116
-0.41436225175857544,-0.05177002400159836,0.19011834263801575,0.04348836839199066,0.028785288333892822,-0.07354378700256348
-0.29379794001579285,-0.1168888658285141,0.23850426077842712,0.010910890996456146,0.06988823413848877,-0.12820270657539368
-0.19761452078819275,0.03652343153953552,0.24872058629989624,-0.028842419385910034,0.0933874249458313,-0.08616840839385986
-0.1956867128610611,0.02938728779554367,0.18301260471343994,-0.049510322511196136,0.07803219556808472,-0.004121005535125732
-0.28409630060195923,0.04285240173339844,0.018038911744952202,-0.09325484186410904,0.014792978763580322,0.11839747428894043
-0.4446870982646942,0.0745033398270607,0.053059931844472885,-0.05018314719200134,0.033191025257110596,0.16795188188552856
-0.46729210019111633,-0.023082386702299118,0.17575450241565704,-0.006981000304222107,0.08652341365814209,0.12130475044250488
-0.4239366352558136,0.02145221270620823,0.1810108721256256,-0.0037272125482559204,0.09860730171203613,0.058523356914520264
-0.2766939401626587,0.11238622665405273,0.011700581759214401,-0.03424385190010071,0.12716424465179443,-0.02252545952796936
-0.022297736257314682,-0.05032068490982056,-0.19250847399234772,0.003474825993180275,0.13100111484527588,-0.009336322546005249
0.1073419377207756,-0.03577180951833725,-0.2917162775993347,-0.026397645473480225,0.12776774168014526,0.09282046556472778
-0.04068206623196602,0.07598026096820831,-0.09493983536958694,0.0646764412522316,0.15344011783599854,0.2508109211921692
-0.09932190924882889,0.14904280006885529,0.17393982410430908,0.10328938066959381,0.2012091875076294,0.22491884231567383
0.036153167486190796,0.34070467948913574,0.27596065402030945,0.062057092785835266,0.22170060873031616,0.0842725932598114
0.3345661163330078,0.22879263758659363,0.07028062641620636,-0.059211306273937225,0.25314247608184814,-0.0827142596244812
0.6171672940254211,-0.06339065730571747,-0.10246673971414566,-0.022054292261600494,0.26400214433670044,-0.11937597393989563
0.666388988494873,-0.048331085592508316,-0.10319742560386658,0.008946016430854797,0.25187933444976807,-0.023561060428619385
0.5821753740310669,-0.041742000728845596,0.036418356001377106,0.03910347819328308,0.2694300413131714,0.08569073677062988
0.598889172077179,0.020724546164274216,0.03833530843257904,-0.02484685182571411,0.27527904510498047,0.07309037446975708
0.6927604675292969,0.11948918551206589,-0.09751012921333313,-0.04929124563932419,0.2764609456062317,0.04428178071975708
0.6280674934387207,0.11088117957115173,-0.18938583135604858,-0.023867167532444,0.2641580104827881,0.12534749507904053
0.50099116563797,0.03697622939944267,-0.17764705419540405,0.04557523876428604,0.2175387144088745,0.12729209661483765
0.38398465514183044,-0.0021526780910789967,-0.12921038269996643,0.050679050385951996,0.17288118600845337,0.09487193822860718
0.27085357904434204,-0.06456899642944336,-0.06985829025506973,0.07716379314661026,0.1344648003578186,0.09388959407806396
0.18143096566200256,-0.1582741141319275,-0.08400748670101166,0.02302272617816925,0.09259295463562012,0.09848350286483765
0.1559528112411499,-0.11137815564870834,-0.17992903292179108,-0.06295466423034668,0.06774336099624634,0.06584885716438293
0.044145338237285614,-0.06459208577871323,-0.20011037588119507,-0.034799329936504364,0.04444307088851929,0.10704120993614197
-0.12980830669403076,-0.06029239296913147,-0.07829234004020691,0.06238802522420883,0.03127110004425049,0.13073676824569702
-0.23530949652194977,0.007487508002668619,-0.006580154877156019,0.05600110441446304,0.033616483211517334,0.06330913305282593
-0.19769762456417084,0.045448362827301025,-0.05504346266388893,0.010600991547107697,0.030897676944732666,-0.021861255168914795
-0.09797163307666779,0.15522730350494385,-0.15569444000720978,-0.022991858422756195,0.03282219171524048,-0.05346396565437317
-0.05940169468522072,0.09357177466154099,-0.11200191080570221,0.05644478648900986,0.030897855758666992,-0.010651975870132446
-0.13274021446704865,0.09033064544200897,0.045082058757543564,0.09571543335914612,0.030991673469543457,0.041035622358322144
-0.1627884805202484,0.17687292397022247,0.11417359858751297,0.043730609118938446,0.03338265419006348,0.026497185230255127
-0.12903043627738953,0.10750750452280045,0.0553477443754673,-0.01869027502834797,0.05277299880981445,0.004456013441085815
-0.0842570886015892,0.10537762194871902,-0.034874916076660156,-0.08112683147192001,0.06812238693237305,0.039257973432540894
