rotation_x,rotation_y,rotation_z,acceleration_x,acceleration_y,acceleration_z
0.1879505068063736,0.09042219817638397,-0.18586702644824982,-0.11589246988296509,0.013862192630767822,0.10139906406402588
-0.1877633035182953,0.28434446454048157,-0.3126813471317291,-0.0900600403547287,-0.025816619396209717,0.15489491820335388
-0.44858890771865845,0.16171112656593323,-0.28229331970214844,-0.017924964427947998,-0.020799636840820312,0.08526158332824707
-0.40990909934043884,-0.06743777543306351,-0.15891686081886292,0.03791739046573639,0.013127803802490234,-0.012652039527893066
-0.16940447688102722,-0.23839405179023743,-0.09392798691987991,0.055607542395591736,0.049021899700164795,-0.04588398337364197
0.057183656841516495,-0.18493013083934784,-0.10971520096063614,0.04162910580635071,0.06126970052719116,0.009750455617904663
0.1506018489599228,0.019116442650556564,-0.16745083034038544,0.024505704641342163,0.0725296139717102,0.09527498483657837
0.07422802597284317,0.1480432152748108,-0.19582794606685638,0.04341132938861847,0.09910094738006592,0.16273465752601624
-0.030712081119418144,0.20970463752746582,-0.16896429657936096,0.07169517874717712,0.12926578521728516,0.17989253997802734
-0.12129034847021103,0.22716392576694489,-0.12603114545345306,0.09671555459499359,0.18483054637908936,0.1899557113647461
-0.17866986989974976,0.17351600527763367,-0.10648126900196075,0.10212306678295135,0.21867096424102783,0.1914283037185669
-0.147659033536911,0.15729063749313354,-0.12860499322414398,0.10745050013065338,0.26269829273223877,0.1771944761276245
-0.08586077392101288,0.18607228994369507,-0.1449618935585022,0.11064912378787994,0.27396953105926514,0.19005906581878662
-0.06742320209741592,0.25604844093322754,-0.10845773667097092,0.10937753319740295,0.26345986127853394,0.21331924200057983
-0.10355249792337418,0.3453370928764343,-0.04024138301610947,0.10484403371810913,0.27417540550231934,0.218643456697464
-0.13297563791275024,0.4046765863895416,0.012551257386803627,0.10744248330593109,0.29693955183029175,0.19183778762817383
-0.06037222221493721,0.3296748995780945,0.06985974311828613,0.11077114939689636,0.3263213038444519,0.14863699674606323
0.1272151619195938,0.25439050793647766,0.07273810356855392,0.08796556293964386,0.36782407760620117,0.12784963846206665
0.27465084195137024,0.21429812908172607,-0.009079908020794392,0.05905580520629883,0.37955665588378906,0.15782430768013
0.3382984399795532,0.20830291509628296,-0.10088862478733063,0.03820246458053589,0.3426560163497925,0.1758962869644165
0.3940357267856598,0.29229065775871277,-0.1406821757555008,0.046095892786979675,0.3362947106361389,0.17288929224014282
0.39268729090690613,0.3953958749771118,-0.16384665668010712,0.06495033204555511,0.3511471748352051,0.18096160888671875
0.33186349272727966,0.4929066300392151,-0.17299778759479523,0.06500519812107086,0.3093529939651489,0.1652306318283081
0.3569413125514984,0.5643090009689331,-0.15120704472064972,0.05713304877281189,0.25763624906539917,0.11855447292327881
0.36842745542526245,0.6106458306312561,-0.09092751145362854,0.04082880914211273,0.19875967502593994,0.10192683339118958
0.2686343193054199,0.656337559223175,-0.08281027525663376,0.0006095170974731445,0.1277521252632141,0.08949410915374756
0.159216970205307,0.6828659176826477,-0.08324648439884186,-0.00798419862985611,0.09519058465957642,0.04584351181983948
0.11881471425294876,0.6606041193008423,-0.09197087585926056,0.0023602470755577087,0.08147311210632324,-0.009296387434005737
0.11056187748908997,0.5709795355796814,-0.05334479361772537,0.01612633466720581,0.06827491521835327,-0.03134441375732422
0.07002145797014236,0.4345499873161316,0.017417840659618378,-0.0030527114868164062,0.010206341743469238,-0.026592731475830078
-0.02637537755072117,0.3267056941986084,0.0826490968465805,-0.02569691836833954,-0.040429770946502686,-0.019501805305480957
-0.18897606432437897,0.2473926842212677,0.09443654119968414,-0.04750240594148636,-0.08763676881790161,-0.022782176733016968
-0.34655261039733887,0.2535908818244934,0.07687051594257355,-0.03804173320531845,-0.09485131502151489,-0.07123121619224548
-0.34326621890068054,0.2771834135055542,0.0377005971968174,-0.010396711528301239,-0.06629806756973267,-0.13419491052627563
-0.22532996535301208,0.3144993484020233,0.009541526436805725,-0.008765004575252533,-0.060349464416503906,-0.14611947536468506
-0.12431497126817703,0.3755280673503876,0.027819471433758736,-0.043505631387233734,-0.09863817691802979,-0.09948739409446716
-0.1687248945236206,0.359563410282135,0.05042128264904022,-0.09237977862358093,-0.14502990245819092,-0.03923213481903076
-0.3513999581336975,0.24606698751449585,0.0367417074739933,-0.10978513956069946,-0.16607367992401123,-0.007140934467315674
-0.5492990016937256,0.148465096950531,-0.022567737847566605,-0.10355514287948608,-0.18178558349609375,-0.03315079212188721
-0.6248819828033447,0.15354140102863312,-0.04981372132897377,-0.050745218992233276,-0.21267938613891602,-0.11557751893997192
-0.4550718069076538,0.26997315883636475,0.017373349517583847,0.0013037100434303284,-0.23708057403564453,-0.21763381361961365
-0.26433899998664856,0.3011939525604248,0.11551225930452347,0.009001366794109344,-0.2554757595062256,-0.23593086004257202
-0.2685127854347229,0.27181631326675415,0.14406229555606842,-0.041839033365249634,-0.28335797786712646,-0.1985454559326172
-0.3521837592124939,0.2543153464794159,0.03173596411943436,-0.10650744289159775,-0.3121544122695923,-0.19105717539787292
-0.33594295382499695,0.2644779682159424,-0.1887875646352768,-0.12524443864822388,-0.3292965292930603,-0.25580674409866333
-0.11990952491760254,0.2942521274089813,-0.3726460635662079,-0.07520174980163574,-0.34664368629455566,-0.35653799772262573
0.19834640622138977,0.35638320446014404,-0.3428059220314026,0.027187082916498184,-0.35456597805023193,-0.39669713377952576
0.34993624687194824,0.4269829988479614,-0.14163686335086823,0.08273276686668396,-0.4241943359375,-0.3730196952819824
0.2668992280960083,0.4160563051700592,0.18016678094863892,0.08770865201950073,-0.4885818362236023,-0.32934942841529846
-0.054885268211364746,0.2617473006248474,0.44694629311561584,0.013513807207345963,-0.5419513583183289,-0.2926073968410492
-0.3441048860549927,-0.14064288139343262,0.5573751330375671,-0.07017764449119568,-0.5494157671928406,-0.3249697983264923
-0.3314415216445923,-0.5427262783050537,0.4589909017086029,-0.12077859044075012,-0.4549750089645386,-0.3736865520477295
-0.06294290721416473,-0.6244493722915649,0.15948395431041718,-0.15753144025802612,-0.36164408922195435,-0.3465283513069153
0.22822727262973785,-0.34672340750694275,-0.2093210220336914,-0.16669026017189026,-0.3352760076522827,-0.2456379532814026
0.32587185502052307,0.042618293315172195,-0.4140566885471344,-0.11655828356742859,-0.3731713891029358,-0.14187723398208618
0.17751196026802063,0.19831232726573944,-0.36349788308143616,-0.03015425056219101,-0.4034169316291809,-0.11021491885185242
-0.03410916402935982,0.010832837782800198,-0.21144503355026245,0.041229039430618286,-0.3873180150985718,-0.15343070030212402
-0.05067884922027588,-0.2517606019973755,-0.08792130649089813,0.06994476914405823,-0.3553292751312256,-0.22994601726531982
0.1528138518333435,-0.28590020537376404,-0.017468582838773727,0.06172969937324524,-0.3118412494659424,-0.24546927213668823
0.29168304800987244,-0.13026505708694458,0.06705822050571442,0.04199621081352234,-0.2959630489349365,-0.17918449640274048
0.26191285252571106,0.019768793135881424,0.15672406554222107,0.0119609534740448,-0.2684895992279053,-0.11160051822662354
0.1576651781797409,0.03189249336719513,0.1747250109910965,-0.01784631609916687,-0.21601533889770508,-0.08210772275924683
0.03523682430386543,-0.022787725552916527,0.11788100004196167,-0.02895653247833252,-0.16078466176986694,-0.06371265649795532
-0.04134656488895416,-0.026579946279525757,0.06438207626342773,-0.03258463740348816,-0.12761491537094116,-0.05949676036834717
-0.03315548971295357,-0.014199376106262207,0.06091184541583061,-0.0111541748046875,-0.11641263961791992,-0.08726739883422852
0.056882403790950775,-0.033864036202430725,0.09824685752391815,0.025208957493305206,-0.07526588439941406,-0.1100679337978363
0.12424077093601227,-0.05583258345723152,0.1178688108921051,0.031602658331394196,-0.03266322612762451,-0.10128533840179443
0.10673168301582336,-0.1293732076883316,0.0526440367102623,0.023747213184833527,0.0015589594841003418,-0.06853219866752625
0.07590103894472122,-0.21592611074447632,-0.008106464520096779,0.018108583986759186,0.005428135395050049,-0.036116212606430054
0.10701659321784973,-0.2379400134086609,-0.003833808470517397,0.01972469687461853,0.009830355644226074,-0.013229846954345703
0.15826185047626495,-0.15966764092445374,0.03524291142821312,0.022504277527332306,0.03459197282791138,0.007906168699264526
0.12718744575977325,-0.1018390953540802,0.09328432381153107,0.03940562903881073,0.05836200714111328,0.02325233817100525
0.06851586699485779,-0.051276855170726776,0.12025569379329681,0.0325513556599617,0.08010071516036987,0.024316400289535522
0.030005086213350296,-0.004312036093324423,0.11195426434278488,0.011722713708877563,0.08478939533233643,0.019136905670166016
-0.0012875054962933064,-0.06547001749277115,0.15545709431171417,0.015504904091358185,0.09035497903823853,0.003707021474838257
-0.059507496654987335,-0.22874291241168976,0.20340241491794586,0.015165187418460846,0.12164127826690674,-0.0017875134944915771
-0.055060550570487976,-0.3176290988922119,0.11928753554821014,-0.018848948180675507,0.15779811143875122,0.005424767732620239
0.016846567392349243,-0.2449394166469574,-0.1275940090417862,-0.050143852829933167,0.1630508303642273,0.03008294105529785
0.07318480312824249,-0.09830792993307114,-0.34371858835220337,-0.03835905343294144,0.13464272022247314,0.060050398111343384
0.08329123258590698,0.027655700221657753,-0.4110422432422638,0.005575448274612427,0.10317683219909668,0.07122147083282471
0.05723756551742554,0.08533547818660736,-0.36777961254119873,0.0415462926030159,0.10372865200042725,0.07313373684883118
0.024659154936671257,0.09157365560531616,-0.2824360132217407,0.04268891364336014,0.11458975076675415,0.07575568556785583
-0.010989812202751637,0.08155914396047592,-0.26020416617393494,0.003808058798313141,0.10671907663345337,0.10242286324501038
-0.09490220993757248,0.08764979243278503,-0.34637245535850525,-0.035157911479473114,0.08006489276885986,0.13232764601707458
-0.22545132040977478,0.1363188773393631,-0.40206801891326904,-0.012808144092559814,0.06953978538513184,0.13944357633590698
-0.34792089462280273,0.11440896987915039,-0.26525095105171204,0.06723594665527344,0.061372458934783936,0.08987736701965332
-0.3020595610141754,0.0086653558537364,0.01700155809521675,0.11647525429725647,0.08231234550476074,0.007882684469223022
-0.05832827836275101,-0.10203301161527634,0.249674454331398,0.09286869317293167,0.1443423628807068,-0.022079825401306152
0.2544671893119812,-0.14184343814849854,0.2072160691022873,5.888938903808594e-05,0.20708566904067993,0.03399980068206787
0.48731833696365356,-0.10912345349788666,-0.0457146093249321,-0.06997593492269516,0.2563631534576416,0.1350415050983429
0.5849373936653137,-0.13632050156593323,-0.3083038330078125,-0.08479195088148117,0.2795558571815491,0.2180919349193573
0.579990565776825,-0.06921975314617157,-0.3904365003108978,-0.033523112535476685,0.27423518896102905,0.24716389179229736
0.4101769030094147,-0.03571150451898575,-0.19322295486927032,0.06069154292345047,0.24991637468338013,0.23381614685058594
0.03700931370258331,-0.15685947239398956,0.14806561172008514,0.13148728013038635,0.23041653633117676,0.2032078504562378
-0.32160326838493347,-0.3134795129299164,0.5189235210418701,0.14643007516860962,0.23610490560531616,0.1370706856250763
-0.4767553508281708,-0.3339657187461853,0.7776474952697754,0.07751724869012833,0.23481029272079468,0.06449297070503235
-0.5323128700256348,-0.3638370633125305,0.8287807106971741,-0.0003603994846343994,0.23266839981079102,0.024965286254882812
-0.5324087142944336,-0.48965030908584595,0.6265649199485779,-0.06690394133329391,0.23781698942184448,-0.0071363747119903564
-0.38499656319618225,-0.6277377605438232,0.31444624066352844,-0.059531353414058685,0.25306767225265503,-0.04650285840034485
-0.04865502938628197,-0.6520554423332214,0.043919600546360016,-0.028928950428962708,0.24010765552520752,-0.06196624040603638
0.333699494600296,-0.5054042339324951,-0.13548757135868073,-0.010477259755134583,0.19070905447006226,-0.014654844999313354
0.5710341930389404,-0.1800875961780548,-0.21852299571037292,0.008073851466178894,0.1501368284225464,0.06691098213195801
0.5821470618247986,0.09440255910158157,-0.2046194076538086,0.011588305234909058,0.097989022731781,0.14728978276252747
0.3686048686504364,0.24193942546844482,-0.1821051836013794,-0.009529292583465576,0.049756407737731934,0.20728135108947754
0.03755217790603638,0.2896018624305725,-0.16491661965847015,-0.012781471014022827,0.031235814094543457,0.22196757793426514
-0.3251502811908722,0.19062449038028717,-0.0596378892660141,0.02543807029724121,0.015603303909301758,0.19217467308044434
-0.5810598731040955,0.01814022660255432,0.07614851742982864,0.030916273593902588,-0.003739476203918457,0.13500571250915527
-0.7124930620193481,-0.045484669506549835,0.14002975821495056,0.014729544520378113,-0.016833364963531494,0.062197089195251465
-0.6832178235054016,-0.0870480090379715,0.13235324621200562,-0.0006552338600158691,-0.034201979637145996,-0.016939878463745117
-0.5066719651222229,-0.0866650715470314,0.08825653046369553,-0.008269250392913818,-0.02671217918395996,-0.07628342509269714
-0.27678319811820984,-0.04427848383784294,0.04114088788628578,0.0004417151212692261,-0.00665968656539917,-0.10046300292015076
-0.07212673127651215,0.003501821542158723,-0.027362804859876633,-0.0007205456495285034,-0.0061776041984558105,-0.0961618423461914
0.05900084227323532,0.07308497279882431,-0.0700022429227829,0.013904154300689697,0.005785763263702393,-0.06517606973648071
0.0754678025841713,0.11998183280229568,-0.07135549187660217,0.02617521584033966,-0.00311201810836792,-0.03134152293205261
0.05897064879536629,0.10855405777692795,-0.013622166588902473,0.046859122812747955,0.004631400108337402,-0.016226619482040405
0.1117100864648819,0.08609531074762344,0.06034764647483826,0.042969077825546265,0.02395576238632202,-0.014345765113830566
0.19129818677902222,0.03039674460887909,0.1275264024734497,0.028494402766227722,0.05344843864440918,0.008658945560455322
0.24505551159381866,-0.020527616143226624,0.12061107903718948,0.004652231931686401,0.09399670362472534,0.05677500367164612
0.27337655425071716,0.03362445905804634,0.03913160413503647,-0.024628594517707825,0.12433594465255737,0.10439112782478333
0.2984922528266907,0.128304123878479,-0.08305992186069489,-0.03984449803829193,0.14735311269760132,0.1384594440460205
0.3343754708766937,0.23726733028888702,-0.17775829136371613,-0.035350196063518524,0.17462795972824097,0.16403260827064514
0.3305354714393616,0.2970249354839325,-0.23338773846626282,-0.031498074531555176,0.19928431510925293,0.19169485569000244
0.25043198466300964,0.2788124680519104,-0.2603529989719391,-0.0172741562128067,0.2203378677368164,0.2041526436805725
0.1248440146446228,0.19084660708904266,-0.2927212119102478,-0.0037134960293769836,0.2486032247543335,0.20929387211799622
-0.06213682144880295,0.12425202131271362,-0.33055198192596436,0.0002825930714607239,0.2583683133125305,0.20957845449447632
-0.29300758242607117,0.05810160934925079,-0.33358287811279297,0.004512794315814972,0.22841298580169678,0.17564016580581665
-0.40476280450820923,-0.0599195696413517,-0.3165445923805237,0.009613081812858582,0.18851685523986816,0.08454489707946777
-0.18759678304195404,-0.09350556880235672,-0.2971753180027008,0.018497660756111145,0.18973839282989502,-0.03835928440093994
0.2594456970691681,-0.08674806356430054,-0.28773120045661926,0.03276342898607254,0.20845431089401245,-0.08495000004768372
0.5895437598228455,-0.06114964932203293,-0.2858959138393402,0.018989235162734985,0.18552297353744507,-0.023970842361450195
0.6444030404090881,0.015552165918052197,-0.2864511013031006,-0.0018743202090263367,0.15310347080230713,0.07642239332199097
0.4683453440666199,0.05006639286875725,-0.18745940923690796,0.009884923696517944,0.1284334659576416,0.15175241231918335
0.13212522864341736,0.00253921071998775,-0.02432914823293686,0.01840335503220558,0.11225134134292603,0.18845435976982117
-0.19743846356868744,-0.1386609524488449,0.11022719740867615,0.014889780431985855,0.10481041669845581,0.1751251518726349
-0.34601691365242004,-0.23726589977741241,0.16529780626296997,-0.0016144812107086182,0.11629384756088257,0.1339958906173706
-0.36627843976020813,-0.26612207293510437,0.16860808432102203,-0.012008637189865112,0.11928391456604004,0.12153464555740356
-0.3930310606956482,-0.23429377377033234,0.17348922789096832,-0.026321977376937866,0.10262811183929443,0.1365748643875122
-0.4396003782749176,-0.23839464783668518,0.18154655396938324,-0.03681322932243347,0.07747757434844971,0.11726123094558716
-0.2891625463962555,-0.2820655107498169,0.16871234774589539,-0.02189047634601593,0.09127384424209595,0.019059300422668457
0.09602531045675278,-0.2799002230167389,0.08535727858543396,0.0002884194254875183,0.15226364135742188,-0.05639815330505371
0.48029953241348267,-0.2837817668914795,-0.07968267798423767,-0.008620142936706543,0.16623026132583618,-0.026484906673431396
0.6308158040046692,-0.14640606939792633,-0.2513657510280609,-0.021273605525493622,0.14040249586105347,0.07143494486808777
0.5297768115997314,0.0207406897097826,-0.30524781346321106,-0.004594765603542328,0.11959618330001831,0.16556069254875183
0.1706136167049408,0.14414343237876892,-0.2726535499095917,0.002291545271873474,0.0855259895324707,0.21943944692611694
-0.2822943925857544,0.158837229013443,-0.20541416108608246,0.01662735641002655,0.08105623722076416,0.20827269554138184
-0.5588624477386475,0.13899622857570648,-0.11892616748809814,0.03826264292001724,0.09273219108581543,0.12369778752326965
-0.5625861883163452,0.09511338174343109,0.0035833376459777355,0.05591230094432831,0.07383739948272705,0.01800060272216797
-0.4072737991809845,0.016704026609659195,0.1267949342727661,0.051658324897289276,0.05869823694229126,-0.03437948226928711
-0.3234436511993408,-0.06289105117321014,0.17622652649879456,0.007435157895088196,0.02135753631591797,-0.01714158058166504
-0.34436747431755066,-0.06274940818548203,0.13727612793445587,-0.04167233407497406,-0.012932896614074707,0.01660919189453125
-0.37928834557533264,0.12816953659057617,-0.00979316420853138,-0.09207243472337723,-0.0535663366317749,0.00922510027885437
-0.32202476263046265,0.497825562953949,-0.22744381427764893,-0.09458919614553452,-0.07605856657028198,-0.07237955927848816
-0.18109376728534698,0.7458457946777344,-0.42491021752357483,-0.04741499945521355,-0.09159386157989502,-0.1686324179172516
-0.05093878135085106,0.6249575018882751,-0.4736131727695465,0.027781162410974503,-0.11907190084457397,-0.21734237670898438
-0.0368177592754364,0.13080692291259766,-0.30887681245803833,0.08984863758087158,-0.15718954801559448,-0.20213982462882996
-0.11472519487142563,-0.34473225474357605,-0.018055617809295654,0.10654762387275696,-0.18880629539489746,-0.1372731328010559
-0.2106151133775711,-0.45775407552719116,0.2383955866098404,0.051503125578165054,-0.22758829593658447,-0.05875667929649353
-0.335811972618103,-0.2550898790359497,0.3234127461910248,-0.03533744812011719,-0.2694229483604431,-0.021268784999847412
-0.3684501647949219,0.010958898812532425,0.24303345382213593,-0.0796499028801918,-0.24238723516464233,-0.04724693298339844
-0.36796197295188904,0.12073836475610733,0.10549593716859818,-0.07111015915870667,-0.20773756504058838,-0.07884776592254639
-0.3548218011856079,0.12737423181533813,0.01597927138209343,-0.05015067011117935,-0.23815059661865234,-0.11552852392196655
-0.2879883050918579,0.28522706031799316,-0.0197370033711195,-0.028654497116804123,-0.27200257778167725,-0.1489669680595398
-0.10289707779884338,0.6026867628097534,-0.00962662510573864,0.016871511936187744,-0.3134256601333618,-0.22443276643753052
0.16085872054100037,0.794961154460907,0.08123235404491425,0.07020717859268188,-0.3634280562400818,-0.28478580713272095
0.2800012230873108,0.7639698386192322,0.20918215811252594,0.07302394509315491,-0.4199821352958679,-0.27378731966018677
0.1357344388961792,0.49246853590011597,0.40006223320961,0.04865962639451027,-0.47973698377609253,-0.22421997785568237
-0.12929043173789978,0.15762415528297424,0.6329935193061829,-0.008987963199615479,-0.5140941143035889,-0.18882155418395996
-0.3647575378417969,0.004088666755706072,0.6907500624656677,-0.11829209327697754,-0.523903489112854,-0.2194737195968628
-0.4647302031517029,0.01649937778711319,0.5921353697776794,-0.14294099807739258,-0.48050642013549805,-0.30660879611968994
-0.4263893663883209,-0.0015425118617713451,0.5370139479637146,-0.06215694546699524,-0.43171006441116333,-0.4015796184539795
-0.35149285197257996,0.04761362075805664,0.5327825546264648,-0.03281211107969284,-0.41234344244003296,-0.4204047918319702
-0.24089236557483673,0.1502663940191269,0.40707892179489136,-0.07643181085586548,-0.38657790422439575,-0.3839836120605469
-0.07758358120918274,0.14745861291885376,0.21764150261878967,-0.09300342202186584,-0.34071195125579834,-0.3504129648208618
0.1280633509159088,-0.06865066289901733,0.09993436187505722,-0.056890636682510376,-0.2812323570251465,-0.332952618598938
0.26483508944511414,-0.3338441252708435,0.03877612203359604,-0.009377263486385345,-0.2080053687095642,-0.2505318522453308
0.28234630823135376,-0.3443704843521118,-0.013478783890604973,-0.01222313940525055,-0.2054463028907776,-0.14525926113128662
0.26119181513786316,-0.0639839693903923,-0.05562358349561691,-0.03179645538330078,-0.1993420124053955,-0.06696134805679321
0.21855132281780243,0.34605634212493896,-0.15173718333244324,-0.06375843286514282,-0.18925511837005615,-0.02529841661453247
0.15156273543834686,0.526404857635498,-0.2558107376098633,-0.04969552904367447,-0.17989599704742432,-0.03152412176132202
0.09805599600076675,0.4432852864265442,-0.1958273947238922,0.041646845638751984,-0.1648167371749878,-0.08360546827316284
0.08608801662921906,0.2857864797115326,0.05537260323762894,0.11513623595237732,-0.15355664491653442,-0.1193009614944458
0.11859099566936493,0.2924228608608246,0.336749792098999,0.09436585754156113,-0.1268051266670227,-0.11053186655044556
0.15417931973934174,0.384476900100708,0.4058898389339447,-0.011988423764705658,-0.07505875825881958,-0.07201880216598511
0.22856542468070984,0.41744256019592285,0.23445478081703186,-0.09557419270277023,-0.0006284117698669434,-0.04403644800186157
0.347370982170105,0.3183925151824951,-0.026310931891202927,-0.12867075204849243,0.06143617630004883,-0.021890223026275635
0.4500769078731537,0.13015931844711304,-0.24877916276454926,-0.12633401155471802,0.0897178053855896,0.010336995124816895
0.38698044419288635,0.009110022336244583,-0.41351065039634705,-0.11237531155347824,0.07992929220199585,0.07389575242996216
0.18363772332668304,-0.000432199623901397,-0.4464744031429291,-0.04978817328810692,0.031698524951934814,0.09998178482055664
-0.013592010363936424,0.04182669147849083,-0.2764720916748047,0.01835516467690468,-0.014936506748199463,0.08270785212516785
-0.12941773235797882,0.09965593367815018,-0.036733195185661316,0.01707974448800087,-0.042908310890197754,0.03924626111984253
-0.06637226045131683,0.09793649613857269,0.12279881536960602,-0.015310466289520264,-0.002264857292175293,-0.023197650909423828
0.07915030419826508,-0.005011430010199547,0.08904753625392914,-0.05431288108229637,0.07069122791290283,-0.02732616662979126
0.13409288227558136,-0.09347125142812729,-0.09574215859174728,-0.08340060710906982,0.11729085445404053,0.031324684619903564
0.03174642100930214,-0.08047910034656525,-0.29039356112480164,-0.08633306622505188,0.09803611040115356,0.09753373265266418
-0.1442335695028305,-0.08808672428131104,-0.34037458896636963,-0.03933390974998474,0.061142683029174805,0.10296869277954102
-0.20255079865455627,-0.1331404447555542,-0.2123839408159256,0.05710303783416748,0.06659018993377686,0.03853750228881836
-0.06882418692111969,-0.1956513375043869,0.012455519288778305,0.1159888207912445,0.08617621660232544,-0.019881248474121094
0.06856141239404678,-0.14661496877670288,0.0924173891544342,0.08101534843444824,0.09981226921081543,0.013052761554718018
0.053624119609594345,0.027729889377951622,0.03636522218585014,0.02625212073326111,0.08211767673492432,0.07769787311553955
-0.06672888249158859,0.10443582385778427,-0.0016763261519372463,0.016351252794265747,0.07717204093933105,0.09505963325500488
-0.13944855332374573,-0.05159441754221916,0.0270395390689373,0.025328073650598526,0.08410614728927612,0.07901978492736816
-0.0671786367893219,-0.27575454115867615,0.14458207786083221,0.05692175030708313,0.11290371417999268,0.015012383460998535
0.0028631407767534256,-0.39508670568466187,0.18596456944942474,0.07174152135848999,0.16252964735031128,0.004746079444885254
0.012444708496332169,-0.31348296999931335,0.14389419555664062,0.04298228770494461,0.1515566110610962,0.040673911571502686
-0.0071780867874622345,-0.0880025252699852,0.09012680500745773,0.021534331142902374,0.1534872055053711,0.08474868535995483
0.04624013230204582,0.1170792505145073,0.08184357732534409,0.012825854122638702,0.15884095430374146,0.08516794443130493
0.2703179717063904,0.10567601025104523,0.17900635302066803,0.03570282459259033,0.1634872555732727,0.01363295316696167
0.500101625919342,-0.03173487260937691,0.25351446866989136,0.05929756164550781,0.21942245960235596,-0.021980464458465576
0.5025337338447571,-0.16154111921787262,0.24910402297973633,0.04594546556472778,0.2666454315185547,0.026614129543304443
0.32131922245025635,-0.22624489665031433,0.2344355285167694,0.0190756693482399,0.25928759574890137,0.09675243496894836
0.19338271021842957,-0.23149657249450684,0.24860058724880219,-0.004955917596817017,0.2246190309524536,0.12435197830200195
0.24823997914791107,-0.2674802243709564,0.32518836855888367,-0.004651248455047607,0.20910072326660156,0.07571220397949219
0.4078778326511383,-0.38359710574150085,0.40907466411590576,0.03467324376106262,0.24459004402160645,0.0125923752784729
0.4740588366985321,-0.44255343079566956,0.42172878980636597,0.05088553577661514,0.29375654458999634,0.023039430379867554
0.3678950369358063,-0.372187077999115,0.3634282648563385,0.015652567148208618,0.2715718746185303,0.09520673751831055
0.2032996118068695,-0.24054551124572754,0.29989683628082275,-0.03121216595172882,0.22997242212295532,0.1529146432876587
0.13442020118236542,-0.28348609805107117,0.27015572786331177,-0.05551059544086456,0.18358778953552246,0.1515011191368103
0.20573857426643372,-0.37075427174568176,0.24140551686286926,-0.052300676703453064,0.17344284057617188,0.10132646560668945
0.23316112160682678,-0.4886557161808014,0.17291854321956635,-0.028792649507522583,0.22099459171295166,0.09998032450675964
0.0884040892124176,-0.502151370048523,0.06749660521745682,-0.050131574273109436,0.1990761160850525,0.16322320699691772
-0.09731415659189224,-0.4095003604888916,-0.020349547266960144,-0.07592222094535828,0.14118880033493042,0.1989293396472931
-0.24082088470458984,-0.30905771255493164,-0.12227689474821091,-0.08537927269935608,0.1064947247505188,0.19420307874679565
-0.290056973695755,-0.28236639499664307,-0.2838789224624634,-0.09166809916496277,0.06487548351287842,0.12545126676559448
-0.26713934540748596,-0.28654223680496216,-0.4594845771789551,-0.06681373715400696,0.06267201900482178,0.10058048367500305
-0.2930700182914734,-0.2090919315814972,-0.5959995985031128,-0.03693242371082306,0.0369601845741272,0.11987626552581787
-0.40205955505371094,-0.10053964704275131,-0.6243602633476257,0.002139642834663391,-0.009765267372131348,0.1306512951850891
-0.4913865327835083,-0.021487152203917503,-0.4719023108482361,0.061719343066215515,-0.04601490497589111,0.0938258171081543
-0.48696625232696533,-0.028762640431523323,-0.24995088577270508,0.09385313093662262,-0.054720163345336914,0.03721705079078674
-0.40182748436927795,-0.08984764665365219,-0.07926744967699051,0.08353544771671295,-0.05201464891433716,-0.004338443279266357
-0.3266865313053131,-0.12007512897253036,-0.01946215145289898,0.05411241948604584,-0.04359060525894165,-0.018265962600708008
-0.3035294711589813,-0.11298955976963043,-0.04348008707165718,0.03704078495502472,-0.03698122501373291,-0.01960134506225586
-0.31116610765457153,-0.05858965963125229,-0.08975148946046829,0.041318848729133606,-0.04117709398269653,-0.03521585464477539
-0.25697749853134155,-0.02490174025297165,-0.09424051642417908,0.069766104221344,-0.04027354717254639,-0.06520384550094604
-0.1313350945711136,0.02516406588256359,-0.03256553038954735,0.09337981045246124,-0.026842951774597168,-0.07582786679267883
-0.028656480833888054,0.03726164624094963,0.01604325696825981,0.0806439071893692,-0.02776700258255005,-0.05145707726478577
0.04034389182925224,0.059796251356601715,0.05425881966948509,0.05713681876659393,-0.017281055450439453,-0.014206886291503906
0.03194418549537659,0.038987960666418076,0.03419090807437897,0.03918607532978058,0.0004196763038635254,0.02856159210205078
-0.01114965882152319,0.04339836910367012,0.004354909062385559,0.0340786948800087,0.015366077423095703,0.05319437384605408
-0.0593281053006649,0.05577674135565758,0.0037431810051202774,0.03668646514415741,0.019587397575378418,0.060448646545410156
-0.07458581775426865,0.08466801047325134,0.05749693512916565,0.042784787714481354,0.023124873638153076,0.04893741011619568
-0.04505191370844841,0.09901714324951172,0.13122692704200745,0.0447656512260437,0.04735875129699707,0.04483962059020996
-0.0169659573584795,0.0774773582816124,0.198722705245018,0.03153508901596069,0.05867969989776611,0.05308961868286133
0.044257283210754395,0.04849345609545708,0.21744349598884583,0.006648100912570953,0.08253097534179688,0.061528950929641724
0.0776204764842987,0.05453408509492874,0.13443158566951752,-0.022308990359306335,0.11785924434661865,0.10615313053131104
0.009377675130963326,0.08968905359506607,-0.006322162225842476,-0.030514732003211975,0.1312394142150879,0.1564154028892517
-0.08274241536855698,0.11937946081161499,-0.10692845284938812,-0.015869662165641785,0.12490737438201904,0.16842132806777954
-0.07470626384019852,0.16056041419506073,-0.10480513423681259,0.01633807271718979,0.13773733377456665,0.15179285407066345
-0.01730104722082615,0.17921839654445648,-0.07991208881139755,0.026373647153377533,0.15366703271865845,0.14738613367080688
0.03256520628929138,0.17089474201202393,-0.07475745677947998,0.023746773600578308,0.1606343388557434,0.1524682641029358
0.07004769146442413,0.18484513461589813,-0.09809835255146027,0.018291577696800232,0.1672312617301941,0.16445165872573853
0.05696909874677658,0.25671401619911194,-0.14241473376750946,0.013123944401741028,0.17051541805267334,0.18021953105926514
-0.010273309424519539,0.33580872416496277,-0.17369145154953003,0.021560370922088623,0.1659952998161316,0.18436205387115479
-0.064442940056324,0.36626097559928894,-0.10816273093223572,0.047380462288856506,0.15282857418060303,0.15150094032287598
-0.08354559540748596,0.33125826716423035,0.043667569756507874,0.07639126479625702,0.15256065130233765,0.1110379695892334
-0.10266772657632828,0.22971118986606598,0.19685134291648865,0.07778044044971466,0.15600734949111938,0.09059476852416992
-0.09764799475669861,0.12980565428733826,0.2937411665916443,0.058279022574424744,0.1586936116218567,0.08591127395629883
-0.10239177942276001,0.05255836620926857,0.3629322946071625,0.0351502001285553,0.16205650568008423,0.09664320945739746
-0.1297329217195511,-0.016903242096304893,0.3815889060497284,0.0144309401512146,0.15744245052337646,0.09979397058486938
-0.17194344103336334,-0.0071390531957149506,0.31973475217819214,-0.004521310329437256,0.1627357006072998,0.10368978977203369
-0.22663220763206482,0.06099710986018181,0.21091370284557343,-0.013906396925449371,0.1688116192817688,0.10096514225006104
-0.2601360082626343,0.15718524158000946,0.10921978950500488,-0.0129384845495224,0.15928804874420166,0.09512054920196533
-0.2961779534816742,0.2752391993999481,0.06708507984876633,-0.009484007954597473,0.13314169645309448,0.08828037977218628
-0.3601492941379547,0.33547741174697876,0.03949200361967087,-0.015170618891716003,0.10950970649719238,0.08019793033599854
-0.4166649580001831,0.34490442276000977,0.06434547156095505,0.0010947436094284058,0.11422228813171387,0.05130791664123535
-0.42743340134620667,0.24650606513023376,0.12334907054901123,0.016506895422935486,0.12030816078186035,0.003955245018005371
-0.3377913236618042,0.10596264898777008,0.20128007233142853,0.02289087325334549,0.1433454155921936,-0.031664252281188965
-0.17514543235301971,-0.004676784388720989,0.21205435693264008,-0.0008785873651504517,0.15358072519302368,-0.03412151336669922
-0.014215166680514812,-0.07690036296844482,0.16166053712368011,-0.020470209419727325,0.1469172239303589,-0.002700507640838623
0.08505059033632278,-0.037638794630765915,0.08383535593748093,-0.0419570729136467,0.1341373324394226,0.04291659593582153
0.1302904486656189,0.07470481842756271,-0.0017646728083491325,-0.05478931963443756,0.10892623662948608,0.06613874435424805
0.14147871732711792,0.15410399436950684,-0.07801605761051178,-0.04360109567642212,0.08442354202270508,0.05769002437591553
0.17716817557811737,0.22524547576904297,-0.10251989960670471,-0.013070724904537201,0.05202007293701172,0.012091219425201416
0.27566587924957275,0.29302164912223816,-0.060597676783800125,0.017613694071769714,0.04185241460800171,-0.027890384197235107
0.37189704179763794,0.2907102108001709,0.01590980589389801,0.019642643630504608,0.024881064891815186,-0.035424649715423584
0.33458665013313293,0.20971615612506866,0.10455699265003204,0.009242907166481018,0.0035639405250549316,-0.003052055835723877
0.15237459540367126,0.08846476674079895,0.14463678002357483,-0.02233166992664337,-0.04136532545089722,0.023317813873291016
-0.046794593334198,-0.032197657972574234,0.13359947502613068,-0.03846299648284912,-0.07419705390930176,0.008610129356384277
-0.16487856209278107,-0.10240873694419861,0.0876159816980362,-0.036312684416770935,-0.08123880624771118,-0.023996949195861816
-0.2403448522090912,0.03302993252873421,0.04910867661237717,-0.010993562638759613,-0.07924139499664307,-0.0547671914100647
-0.24804392457008362,0.2851701080799103,0.09120211750268936,0.022994786500930786,-0.08195555210113525,-0.09543335437774658
-0.2215082198381424,0.3810350000858307,0.23087646067142487,0.026143066585063934,-0.09791719913482666,-0.12546151876449585
-0.2560702860355377,0.22364541888237,0.328906774520874,-0.023160293698310852,-0.10465002059936523,-0.13102596998214722
-0.3218976557254791,-0.07757266610860825,0.26616156101226807,-0.09038914740085602,-0.11592411994934082,-0.1471102237701416
-0.33258411288261414,-0.21436433494091034,0.05508098751306534,-0.12244829535484314,-0.12318938970565796,-0.16316747665405273
-0.28105345368385315,-0.1613905280828476,-0.1177067905664444,-0.08099324256181717,-0.14365190267562866,-0.17353200912475586
-0.13554076850414276,0.07088682800531387,-0.1509588211774826,-0.018040984869003296,-0.16534411907196045,-0.18967598676681519
0.07286140322685242,0.2824136018753052,-0.08044616878032684,-0.0003942623734474182,-0.18335622549057007,-0.19418901205062866
0.17479252815246582,0.19925707578659058,-0.021228238940238953,-0.019532740116119385,-0.18050700426101685,-0.15901386737823486
0.17664466798305511,-0.021004658192396164,-0.06612427532672882,-0.07129135727882385,-0.1759905219078064,-0.11238062381744385
0.13321220874786377,-0.12262490391731262,-0.14685210585594177,-0.07742027193307877,-0.17434251308441162,-0.06585663557052612
0.08398602902889252,-0.01621440425515175,-0.16467905044555664,-0.049068085849285126,-0.17862540483474731,-0.05849272012710571
0.08430617302656174,0.18767665326595306,-0.130081444978714,-0.032350629568099976,-0.193203866481781,-0.07194721698760986
0.047191157937049866,0.30263152718544006,-0.05529183894395828,-0.02460259199142456,-0.21257495880126953,-0.09453046321868896
-0.005526482593268156,0.2465619295835495,0.024951409548521042,-0.009560726583003998,-0.207697331905365,-0.1322057843208313
-0.10242115706205368,0.12053132802248001,0.09507232159376144,-0.02192622423171997,-0.22893142700195312,-0.14077162742614746
-0.2394285351037979,0.11147764325141907,0.1302226483821869,-0.04110831022262573,-0.28004175424575806,-0.15151947736740112
-0.33310920000076294,0.2416868805885315,0.16005317866802216,-0.04501698911190033,-0.3436813950538635,-0.22508591413497925
-0.2922383248806,0.35582631826400757,0.24575255811214447,-0.016888558864593506,-0.3873457908630371,-0.35760974884033203
-0.22538051009178162,0.2708772122859955,0.4008987843990326,-0.01162990927696228,-0.4117191433906555,-0.43002331256866455
-0.20867736637592316,0.04502556100487709,0.4755017161369324,-0.05075612664222717,-0.3895798921585083,-0.428400456905365
-0.1851406991481781,-0.15699008107185364,0.37847471237182617,-0.12305104732513428,-0.3672865629196167,-0.38027673959732056
-0.07429144531488419,-0.21476545929908752,0.21709753572940826,-0.1627768576145172,-0.3531956672668457,-0.32526785135269165
0.05351525545120239,-0.13172252476215363,0.05053632706403732,-0.15889205038547516,-0.32705622911453247,-0.26816892623901367
0.14630872011184692,-0.015533405356109142,-0.08805482089519501,-0.13934893906116486,-0.30439507961273193,-0.22191184759140015
0.20462864637374878,0.020455675199627876,-0.19214516878128052,-0.12164372205734253,-0.28957581520080566,-0.18782895803451538
0.1618070751428604,-0.03503844514489174,-0.2861377000808716,-0.1022849977016449,-0.273897647857666,-0.15507090091705322
0.09917835146188736,-0.07532622665166855,-0.33714234828948975,-0.06120169907808304,-0.26012367010116577,-0.14647597074508667
0.11290062963962555,-0.06603516638278961,-0.2968096137046814,-0.012876898050308228,-0.2354411482810974,-0.15016216039657593
0.15850365161895752,-0.055172596126794815,-0.18719738721847534,0.01771537959575653,-0.21383386850357056,-0.1490001082420349
0.22137391567230225,-0.04218819737434387,-0.05627977102994919,0.007648058235645294,-0.17730236053466797,-0.13400155305862427
0.2596055865287781,-0.05234421044588089,-0.01300134789198637,-0.041531533002853394,-0.141637921333313,-0.10559588670730591
0.255944162607193,-0.030506497249007225,-0.09316249191761017,-0.08893272280693054,-0.09965717792510986,-0.07078814506530762
0.23700518906116486,-0.04477005824446678,-0.2368146777153015,-0.09755688160657883,-0.058876872062683105,-0.03981071710586548
0.23495200276374817,-0.023948056623339653,-0.3523094058036804,-0.08896374702453613,-0.018147587776184082,0.005788266658782959
0.17788301408290863,0.061493001878261566,-0.39735090732574463,-0.07567312568426132,-0.0023908019065856934,0.06897348165512085
-0.009520836174488068,0.12224695831537247,-0.3858409523963928,-0.07380089163780212,-0.007635712623596191,0.12620174884796143
-0.2613372206687927,0.07537418603897095,-0.2990896999835968,-0.03820788860321045,-0.03115689754486084,0.10159182548522949
-0.3623826503753662,-0.061993639916181564,-0.13575583696365356,0.011261403560638428,-0.020016789436340332,0.008143782615661621
-0.2950019836425781,-0.1451541781425476,-0.04481762275099754,0.015495099127292633,0.009548842906951904,-0.05195194482803345
-0.17658334970474243,-0.1186620444059372,-0.060891155153512955,-0.010336548089981079,0.030740439891815186,-0.047045230865478516
-0.13882660865783691,-0.051169708371162415,-0.13270717859268188,-0.04254373162984848,0.0196000337600708,-0.007828235626220703
-0.11691908538341522,-0.03830908238887787,-0.12182377278804779,-0.01859036087989807,-0.0180894136428833,-0.022872328758239746
-0.04970437288284302,-0.0968237817287445,-0.023061048239469528,0.017279036343097687,0.004821836948394775,-0.039376676082611084
-0.010723916813731194,-0.10900496691465378,0.011963367462158203,0.005010455846786499,0.03389263153076172,-0.009615719318389893
-0.04020579531788826,-0.029646679759025574,-0.0335267148911953,-0.02591240406036377,0.04497945308685303,0.04061484336853027
-0.11529387533664703,0.049924030900001526,-0.10347822308540344,-0.04851537197828293,0.061735570430755615,0.08577150106430054
-0.2021433264017105,0.06679505109786987,-0.1373264640569687,-0.04425814747810364,0.07003229856491089,0.0871075987815857
-0.2114037573337555,0.010217034257948399,-0.10197518020868301,-0.009527862071990967,0.07715219259262085,0.027614176273345947
-0.11634812504053116,-0.0798056423664093,-0.00911947526037693,0.02981361746788025,0.12744581699371338,-0.021677136421203613
-0.020222794264554977,-0.16386213898658752,0.06061145290732384,0.028424985706806183,0.16199660301208496,-0.009978532791137695
0.03903196379542351,-0.1818138062953949,0.03738689422607422,-0.019041508436203003,0.16913551092147827,0.04142338037490845
0.0056683034636080265,-0.15673011541366577,-0.0882343128323555,-0.07806777209043503,0.15433061122894287,0.09672647714614868
-0.03930351138114929,-0.13698406517505646,-0.27485135197639465,-0.08851134777069092,0.13886839151382446,0.08582878112792969
0.035902105271816254,-0.2082795947790146,-0.3808581829071045,-0.020209908485412598,0.1678633689880371,0.048247456550598145
0.21207617223262787,-0.2540179193019867,-0.3645384609699249,0.04065916687250137,0.18531638383865356,0.024207592010498047
0.3691958785057068,-0.21896669268608093,-0.2766081392765045,0.06440079212188721,0.19817078113555908,0.06528401374816895
0.3070942163467407,-0.06925127655267715,-0.26088747382164,0.02755412459373474,0.16568559408187866,0.13995689153671265
0.14227142930030823,0.07250537723302841,-0.33382323384284973,0.010117743164300919,0.1577664017677307,0.15200501680374146
0.09693899005651474,0.07007046788930893,-0.3523307740688324,0.04088655486702919,0.15898442268371582,0.07761293649673462
0.2600354254245758,0.0011437734356150031,-0.2387353926897049,0.09098827838897705,0.17890220880508423,-0.007828772068023682
0.45805445313453674,-0.09229854494333267,-0.03415338322520256,0.12981843948364258,0.22619837522506714,-0.013107776641845703
0.5557976961135864,-0.15670931339263916,0.11899374425411224,0.11291474103927612,0.24324935674667358,0.0389828085899353
0.505988359451294,-0.0889490470290184,0.17994298040866852,0.05777353048324585,0.24035584926605225,0.11409306526184082
0.41100797057151794,-0.05851121246814728,0.1891811490058899,0.017282161861658096,0.22284650802612305,0.14290982484817505
0.39463064074516296,-0.08903917670249939,0.22604553401470184,0.0011342987418174744,0.21631485223770142,0.11252599954605103
0.4704234302043915,-0.18059426546096802,0.24120588600635529,0.010707825422286987,0.2382490038871765,0.09262919425964355
0.5055801868438721,-0.2623012959957123,0.24620190262794495,0.015111245214939117,0.25663328170776367,0.12879139184951782
0.4325847029685974,-0.23678749799728394,0.21587078273296356,-0.008883893489837646,0.23376870155334473,0.1794801950454712
0.2796514630317688,-0.1603459119796753,0.1599498987197876,-0.024298489093780518,0.21163272857666016,0.22083771228790283
0.08346491307020187,-0.1281491070985794,0.11838255822658539,-0.037872761487960815,0.16732674837112427,0.23203766345977783
-0.03768545016646385,-0.11981809139251709,0.09235800802707672,-0.0373760461807251,0.11786949634552002,0.18906939029693604
-0.04053451493382454,-0.08643907308578491,0.08160986751317978,-0.015186399221420288,0.09007567167282104,0.12344038486480713
-0.023221712559461594,-0.09290596097707748,0.07823862880468369,0.016801118850708008,0.07988053560256958,0.09625327587127686
-0.04793475568294525,-0.03345155343413353,0.0786050409078598,0.019277550280094147,0.04953116178512573,0.09548065066337585
-0.11385440826416016,0.0518869049847126,0.10004299134016037,0.005303092300891876,0.01115041971206665,0.09717974066734314
-0.21510939300060272,0.06968161463737488,0.14195793867111206,0.002418696880340576,-0.0040010809898376465,0.08840733766555786
-0.29046332836151123,-0.030208999291062355,0.13452856242656708,-0.0038408637046813965,-0.0009702444076538086,0.061376214027404785
-0.2488178312778473,-0.10572934150695801,0.10408133268356323,-0.015533775091171265,-0.01503843069076538,0.027148187160491943
-0.1908799558877945,-0.074702687561512,0.056242551654577255,-0.025536373257637024,-0.02095949649810791,0.0228426456451416
-0.17921261489391327,0.02136775106191635,0.0022820448502898216,-0.026721060276031494,-0.02148735523223877,0.02154397964477539
-0.18751460313796997,0.05196499824523926,-0.054816294461488724,-0.02135767787694931,-0.025859534740447998,0.0006309747695922852
-0.14698682725429535,0.04773293063044548,-0.10588710755109787,-0.009149566292762756,-0.023142695426940918,-0.0338667631149292
-0.05226728692650795,0.045687638223171234,-0.13827615976333618,0.004579134285449982,-0.02924448251724243,-0.0553855299949646
0.021522583439946175,0.03687227517366409,-0.08633601665496826,0.03755369782447815,-0.03165555000305176,-0.04986006021499634
0.05756446719169617,0.02298816666007042,0.03758319094777107,0.04984936863183975,-0.03632086515426636,-0.02541881799697876
0.03302807733416557,-0.0024340085219591856,0.1641012728214264,0.039531707763671875,-0.028943955898284912,0.011602222919464111
0.021340955048799515,-0.008013172075152397,0.23722180724143982,0.0021149516105651855,-0.022325217723846436,0.02526390552520752
0.03266330435872078,-0.021029287949204445,0.23631764948368073,-0.02340872585773468,0.01170259714126587,0.04296255111694336
0.053873904049396515,-0.009872738271951675,0.17170044779777527,-0.06149020045995712,0.01406252384185791,0.06182020902633667
0.07497039437294006,0.03290057182312012,0.07263769954442978,-0.08620874583721161,0.016042590141296387,0.08492255210876465
0.02283773012459278,0.09457947313785553,-0.030393870547413826,-0.09119315445423126,0.019755423069000244,0.10396438837051392
-0.06334178894758224,0.15241490304470062,-0.116636261343956,-0.06737677752971649,0.01646137237548828,0.08687078952789307
-0.09157875925302505,0.16700825095176697,-0.11023356020450592,-0.015247553586959839,0.014365673065185547,0.040393829345703125
-0.07264949381351471,0.15806996822357178,-0.04951108619570732,0.01675475388765335,0.02027297019958496,0.006807506084442139
-0.033131375908851624,0.1390584409236908,0.011215455830097198,0.026682518422603607,0.020907044410705566,-0.011211216449737549
0.05038273707032204,0.10890891402959824,0.07395253330469131,0.027390748262405396,0.025960206985473633,-0.021519243717193604
0.13907933235168457,0.06798878312110901,0.11705789715051651,0.01341152936220169,0.03994935750961304,-0.0038364529609680176
0.1516525000333786,0.01914542354643345,0.0944715291261673,-0.005391344428062439,0.05988454818725586,0.03781628608703613
0.13436493277549744,-0.02764984220266342,0.02970711514353752,-0.01484902948141098,0.06816095113754272,0.062362730503082275
0.12973958253860474,-0.0550556406378746,-0.007370672654360533,-0.006745979189872742,0.0850479006767273,0.07811993360519409
0.13135777413845062,-0.04679586738348007,-0.02597747929394245,0.0007868707180023193,0.09915339946746826,0.09790468215942383
0.11144477874040604,-0.0013687191531062126,-0.027702219784259796,0.013995237648487091,0.12182080745697021,0.11537447571754456
0.12680408358573914,0.0268265288323164,-0.038699205964803696,0.03013891726732254,0.15612328052520752,0.11673817038536072
0.17057771980762482,0.06341169029474258,-0.07648104429244995,0.03061649203300476,0.18862897157669067,0.1243138313293457
0.21452711522579193,0.09903796017169952,-0.13435053825378418,0.028110772371292114,0.21538281440734863,0.14247876405715942
0.24061664938926697,0.09685809910297394,-0.1450633406639099,0.04067838937044144,0.2114940881729126,0.15204468369483948
0.24806615710258484,0.08547981083393097,-0.07021629810333252,0.06151615083217621,0.20795440673828125,0.1467011570930481
0.16748175024986267,0.0419749841094017,0.020317554473876953,0.06758550554513931,0.20870810747146606,0.16078713536262512
-0.01662171073257923,0.004466047044843435,0.0589558370411396,0.052280619740486145,0.20426535606384277,0.17032235860824585
-0.2351762354373932,-0.001622689887881279,0.05762413516640663,0.042768508195877075,0.20286083221435547,0.16371721029281616
-0.44805848598480225,0.032976869493722916,0.026835814118385315,0.034423619508743286,0.19487327337265015,0.15396738052368164
-0.5791733264923096,0.08620543032884598,-0.022850733250379562,0.021126098930835724,0.1670791506767273,0.11514785885810852
-0.5743548274040222,0.16585716605186462,-0.06251129508018494,0.02829083800315857,0.15023529529571533,0.054278433322906494
-0.4691604971885681,0.21950069069862366,-0.050719961524009705,0.05012956261634827,0.14057683944702148,-0.0008031129837036133
-0.35833194851875305,0.22228962182998657,0.023419944569468498,0.07613766938447952,0.12660634517669678,-0.033550262451171875
-0.30600351095199585,0.21461759507656097,0.11836795508861542,0.07916003465652466,0.12164705991744995,-0.03974497318267822
-0.2898809611797333,0.16481104493141174,0.18915553390979767,0.06830418854951859,0.12267017364501953,-0.037685513496398926
-0.2183089256286621,0.09174539148807526,0.23296919465065002,0.05390584468841553,0.14482426643371582,-0.037079811096191406
-0.09275088459253311,0.02166493609547615,0.22347165644168854,0.030891895294189453,0.17718714475631714,-0.008500099182128906
0.026840871199965477,-0.0005974118248559535,0.16744689643383026,0.0069023966789245605,0.19045209884643555,0.038738131523132324
0.0866464376449585,0.015806540846824646,0.09801281988620758,-0.0045506954193115234,0.18861424922943115,0.0660102367401123
0.06787162274122238,0.04875164106488228,0.07442229986190796,-0.012714952230453491,0.16767537593841553,0.11020141839981079
0.005559283774346113,0.08287511020898819,0.11576719582080841,-0.0030094310641288757,0.14076828956604004,0.13786214590072632
-0.02855759672820568,0.20170743763446808,0.11672233790159225,-0.010525107383728027,0.12126320600509644,0.1358814835548401
0.003408904653042555,0.3656003177165985,0.01651291735470295,-0.05620527267456055,0.11673897504806519,0.10913610458374023
0.022548239678144455,0.4699890613555908,-0.15429352223873138,-0.07984402775764465,0.1285158395767212,0.0905526876449585
-0.0015539044979959726,0.5156684517860413,-0.29786089062690735,-0.08739250898361206,0.10414516925811768,0.08969676494598389
-0.03788590803742409,0.4971076548099518,-0.25158944725990295,-0.04449763149023056,0.05003619194030762,0.0657166838645935
-0.12834887206554413,0.4105246961116791,-0.05063484609127045,0.01685718446969986,0.014367938041687012,0.03703790903091431
-0.3478766679763794,0.31874212622642517,0.10147019475698471,0.029159463942050934,-0.02004903554916382,0.041629016399383545
-0.5007598400115967,0.20794330537319183,0.12991836667060852,-0.00016671419143676758,-0.04082602262496948,0.019995033740997314
-0.4677196145057678,0.12400297075510025,-0.02103782631456852,-0.04218030720949173,-0.031878530979156494,-0.021931111812591553
-0.4244380295276642,0.13268189132213593,-0.28789541125297546,-0.09342962503433228,-0.018673598766326904,-0.011585235595703125
-0.5476202368736267,0.20235271751880646,-0.4961394667625427,-0.10430973768234253,-0.009463369846343994,0.06680548191070557
-0.6944925785064697,0.18664319813251495,-0.43028852343559265,-0.05238678678870201,-0.03932201862335205,0.0850265622138977
-0.5205159783363342,0.08908583968877792,-0.08702543377876282,0.08537885546684265,-0.05421656370162964,-0.050253868103027344
-0.14475895464420319,0.04009796679019928,0.19518566131591797,0.13601672649383545,-0.011248588562011719,-0.1706024408340454
0.0753018856048584,0.11722719669342041,0.18673819303512573,0.03274795413017273,0.0008057355880737305,-0.1502925157546997
0.15254217386245728,0.23704291880130768,-0.0633176937699318,-0.10576117038726807,-0.017875313758850098,-0.07036995887756348
0.12410879135131836,0.3346156179904938,-0.3195934295654297,-0.1716003119945526,-0.04002988338470459,-0.02285313606262207
0.001457524485886097,0.33933839201927185,-0.4221343398094177,-0.14680984616279602,-0.07824420928955078,-0.019558072090148926
-0.20876936614513397,0.3417302966117859,-0.312564879655838,-0.03077298402786255,-0.12049031257629395,-0.06662875413894653
-0.4514172375202179,0.3848234713077545,-0.17200693488121033,-0.021892249584197998,-0.148828387260437,-0.10853874683380127
-0.6034348011016846,0.36341145634651184,-0.14488817751407623,-0.038967400789260864,-0.1391737461090088,-0.15903633832931519
-0.6875755190849304,0.32057154178619385,-0.21723313629627228,-0.06078919768333435,-0.12894970178604126,-0.17649060487747192
-0.7640914916992188,0.2954697012901306,-0.35743972659111023,-0.055352628231048584,-0.12537384033203125,-0.15144658088684082
-0.8353905081748962,0.26709336042404175,-0.401325523853302,-0.013172417879104614,-0.1964680552482605,-0.183243989944458
-0.6648101806640625,0.2725917100906372,-0.28609827160835266,0.06248917803168297,-0.2599300146102905,-0.3292697072029114
-0.20197300612926483,0.22131451964378357,-0.06806062906980515,0.12517955899238586,-0.2565271258354187,-0.44362807273864746
0.11643044650554657,0.09045006334781647,0.048350729048252106,0.09460300207138062,-0.24768304824829102,-0.38741832971572876
0.17042048275470734,0.061815295368433,0.021840909495949745,0.005247354507446289,-0.29257720708847046,-0.28249263763427734
0.08988527208566666,0.010452084243297577,0.02322922833263874,-0.017912689596414566,-0.32574552297592163,-0.21968793869018555
-0.024209145456552505,-0.08130045980215073,0.1038791760802269,0.007513847202062607,-0.34154051542282104,-0.21569544076919556
-0.08429782092571259,-0.10855190455913544,0.2975233495235443,0.04457300901412964,-0.34144753217697144,-0.2506759762763977
-0.16576753556728363,-0.05255647376179695,0.4417254328727722,0.015317827463150024,-0.35280394554138184,-0.26271355152130127
-0.24544765055179596,-0.01689302921295166,0.42648619413375854,-0.0328388512134552,-0.33898794651031494,-0.2960205674171448
-0.25790515542030334,-0.0635828897356987,0.2757357358932495,-0.061024755239486694,-0.30291426181793213,-0.3325675129890442
-0.2342332899570465,-0.1964118480682373,0.09011092036962509,-0.06977874040603638,-0.3009216785430908,-0.3532169461250305
-0.1514095962047577,-0.32374125719070435,-0.05023173987865448,-0.03994220495223999,-0.2873231768608093,-0.354881227016449
-0.011547872796654701,-0.3060683608055115,-0.12512873113155365,0.00952082872390747,-0.2697342038154602,-0.3421645164489746
0.14592069387435913,-0.13743345439434052,-0.1581762731075287,0.044359415769577026,-0.2562466263771057,-0.31672102212905884
0.2690460681915283,0.04609736055135727,-0.16797327995300293,0.06313470005989075,-0.2253679633140564,-0.2728816270828247
0.31297656893730164,0.10079679638147354,-0.16256283223628998,0.058566540479660034,-0.20083022117614746,-0.21897423267364502
0.2705138921737671,0.06652785837650299,-0.11603031307458878,0.05827516317367554,-0.18305599689483643,-0.16982638835906982
0.22251921892166138,-0.030472179874777794,-0.006898581050336361,0.06535372138023376,-0.1789291501045227,-0.15977483987808228
0.2495003044605255,-0.10703039914369583,0.1548994928598404,0.07055583596229553,-0.1536693572998047,-0.16305124759674072
0.23992198705673218,-0.11817970126867294,0.2603933811187744,0.03200852870941162,-0.1375768780708313,-0.1265919804573059
0.1519230753183365,-0.08048584312200546,0.25858864188194275,-0.023312360048294067,-0.13693398237228394,-0.09373891353607178
0.04632512852549553,-0.050869278609752655,0.20976772904396057,-0.04435741901397705,-0.11389040946960449,-0.08855414390563965
-0.04456334561109543,-0.10109549760818481,0.14634831249713898,-0.047824710607528687,-0.1012614369392395,-0.10273957252502441
-0.024666834622621536,-0.18342912197113037,0.10436395555734634,-0.03438681364059448,-0.09023582935333252,-0.13866126537322998
0.10589836537837982,-0.22210249304771423,0.04511581361293793,-0.017212361097335815,-0.0706225037574768,-0.16330868005752563
0.28333979845046997,-0.2327839434146881,-0.031007666140794754,0.026784777641296387,-0.042228639125823975,-0.16290706396102905
0.42815521359443665,-0.14961324632167816,-0.09184394031763077,0.03894615173339844,-0.03414344787597656,-0.12332606315612793
0.41945746541023254,-0.034296587109565735,-0.0968785509467125,0.034807026386260986,-0.045480191707611084,-0.0634346604347229
0.2997361421585083,-0.04498836770653725,-0.11027725785970688,0.02382451295852661,-0.05083775520324707,-0.03729623556137085
0.2784838080406189,-0.12836964428424835,-0.1503516435623169,0.035170137882232666,-0.036173224449157715,-0.06744617223739624
0.38494518399238586,-0.1555951088666916,-0.14984187483787537,0.07792156934738159,-0.016962051391601562,-0.09282469749450684
0.5110002756118774,-0.10725993663072586,-0.08876506239175797,0.09793773293495178,-0.010378062725067139,-0.08048850297927856
0.5702115297317505,-0.02043026126921177,0.012348635122179985,0.08447974920272827,-0.0047051310539245605,-0.035896122455596924
0.5558251738548279,0.08542570471763611,0.10374098271131516,0.04543185234069824,0.017256736755371094,0.02093207836151123
0.4570871889591217,0.07825284451246262,0.12600955367088318,0.0063558220863342285,0.03900212049484253,0.06049221754074097
0.35784706473350525,-0.02387065440416336,0.07527075707912445,-0.0162661075592041,0.05157262086868286,0.05191373825073242
0.35442015528678894,-0.08423589169979095,0.025605399161577225,0.010447591543197632,0.08098024129867554,0.021803855895996094
0.4647267162799835,-0.03389137238264084,0.026629235595464706,0.041991859674453735,0.10627955198287964,-0.0077822208404541016
0.5659160017967224,0.12581577897071838,0.052644725888967514,0.05806666612625122,0.1415461301803589,0.013763189315795898
0.5018640756607056,0.3115559220314026,0.07453417032957077,0.03503108024597168,0.1419895887374878,0.0776451826095581
0.2983056604862213,0.3610241711139679,0.13262587785720825,-0.0019123554229736328,0.12822091579437256,0.12446433305740356
0.05791962146759033,0.1991005390882492,0.1544068455696106,-0.034196704626083374,0.12630313634872437,0.10746097564697266
-0.022019118070602417,-0.028592150658369064,0.1366739571094513,-0.031110495328903198,0.16342169046401978,0.04724997282028198
0.0266579482704401,-0.16774553060531616,0.09043240547180176,-0.020217955112457275,0.21334302425384521,0.025138795375823975
0.07857603579759598,-0.13383691012859344,-0.027213426306843758,-0.0373823344707489,0.23836112022399902,0.057082414627075195
0.051509082317352295,0.028051994740962982,-0.19820527732372284,-0.06833264231681824,0.23342931270599365,0.11417657136917114
0.016069944947957993,0.09643447399139404,-0.3282124698162079,-0.09769126772880554,0.1816135048866272,0.12237393856048584
0.10084445029497147,0.15628622472286224,-0.3846297264099121,-0.08439773321151733,0.17428791522979736,0.06535470485687256
0.31428414583206177,0.029189856722950935,-0.3379128575325012,0.0017521083354949951,0.22659623622894287,0.012497782707214355
0.5158236622810364,-0.17090459167957306,-0.23653899133205414,0.05927273631095886,0.2670819163322449,0.01475590467453003
0.569037139415741,-0.2747173011302948,-0.14837905764579773,0.052478283643722534,0.24063783884048462,0.06993550062179565
0.47031402587890625,-0.18918058276176453,-0.04482728987932205,0.017430156469345093,0.1903935670852661,0.12885123491287231
0.2610148787498474,-0.1037992462515831,0.03580775111913681,0.0004025101661682129,0.1652536392211914,0.153578519821167
0.12722545862197876,-0.11432979255914688,0.16114608943462372,0.030048400163650513,0.18286752700805664,0.10176628828048706
0.18464124202728271,-0.2606695592403412,0.3632056713104248,0.06871935725212097,0.23255598545074463,0.04159510135650635
0.2945185601711273,-0.46148720383644104,0.5374536514282227,0.05405941605567932,0.26855915784835815,0.05733153223991394
0.29699021577835083,-0.5590378642082214,0.5641315579414368,-0.011286554858088493,0.2708699703216553,0.13097652792930603
0.1779012680053711,-0.5175527930259705,0.4022133946418762,-0.07099717855453491,0.2479761242866516,0.19805371761322021
0.011976514011621475,-0.38876622915267944,0.18789611756801605,-0.08674073219299316,0.21014654636383057,0.2113962173461914
-0.1087239533662796,-0.3134433925151825,0.11888954043388367,-0.040526509284973145,0.16917067766189575,0.1732504963874817
-0.13835333287715912,-0.3766264319419861,0.22486728429794312,0.0276426300406456,0.1468667984008789,0.11475259065628052
-0.12089379876852036,-0.48735374212265015,0.3801614046096802,0.055532366037368774,0.14452475309371948,0.0967898964881897
-0.10616356134414673,-0.46127617359161377,0.4536249339580536,0.017112404108047485,0.11942529678344727,0.1128767728805542
-0.1518629938364029,-0.2775975167751312,0.3942674398422241,-0.04008030891418457,0.08171868324279785,0.1379028558731079
-0.21181410551071167,-0.06778258085250854,0.2686808407306671,-0.06199517846107483,0.043702006340026855,0.12147712707519531
-0.1913180947303772,0.023707913234829903,0.18557138741016388,-0.04334616661071777,0.024585366249084473,0.06799453496932983
-0.09324581921100616,-0.046277426183223724,0.20214800536632538,-0.010547325015068054,0.013869643211364746,0.01792687177658081
0.0008731107227504253,-0.17865847051143646,0.25563114881515503,-0.011568710207939148,0.0035550594329833984,0.010588347911834717
0.0278556477278471,-0.20544420182704926,0.23019611835479736,-0.041236117482185364,0.019881606101989746,0.040396928787231445
-0.025577519088983536,-0.1057685911655426,0.061512988060712814,-0.075399249792099,0.020971715450286865,0.07397580146789551
-0.10575875639915466,0.04304901510477066,-0.15082572400569916,-0.0803985595703125,0.00026226043701171875,0.06438976526260376
-0.11008323729038239,0.1278436928987503,-0.283494234085083,-0.04016447067260742,-0.012426435947418213,0.025397658348083496
-0.04008626937866211,0.12257739156484604,-0.274032860994339,0.009394735097885132,-0.020444273948669434,-0.017927825450897217
0.0010333238169550896,0.034469958394765854,-0.2049964964389801,0.051606178283691406,-0.010176420211791992,-0.02975285053253174
0.038211844861507416,-0.03086668998003006,-0.0822347030043602,0.06394393742084503,-0.011759757995605469,-0.022664010524749756
0.05712222680449486,-0.004907818976789713,0.018156319856643677,0.046761102974414825,-0.007766246795654297,-0.00237119197845459
0.031032880768179893,0.04003897309303284,0.0365329384803772,0.023635298013687134,0.0071402788162231445,0.01912909746170044
0.003990303259342909,0.05285831168293953,0.02342682145535946,0.003548860549926758,0.01735919713973999,0.03217720985412598
-0.002901883330196142,0.032725270837545395,0.01649242639541626,-0.010986141860485077,0.022559702396392822,0.038502633571624756
0.016650322824716568,-0.01946127414703369,0.027181338518857956,-0.014970451593399048,0.0308687686920166,0.04319673776626587
0.04816929250955582,-0.05577368661761284,0.049248963594436646,-0.01533210277557373,0.04091846942901611,0.0468938946723938
0.06162011995911598,-0.07807499915361404,0.051844481378793716,-0.012743942439556122,0.055427372455596924,0.060056835412979126
0.03769926726818085,-0.061720531433820724,0.03409948945045471,-0.008321933448314667,0.06313031911849976,0.06557849049568176
0.010976118966937065,-0.046261969953775406,0.013060489669442177,0.004947975277900696,0.07943540811538696,0.06684446334838867
-0.01813124492764473,-0.023990700021386147,9.263120591640472e-05,0.003776922821998596,0.08898293972015381,0.07622939348220825
-0.03388158977031708,-0.002925218315795064,-0.013929788023233414,-0.0048779696226119995,0.08927679061889648,0.08559310436248779
-0.02467949688434601,-0.012538828887045383,-0.0364876464009285,-0.007956914603710175,0.10016113519668579,0.09170296788215637
-0.005733544938266277,-0.031983956694602966,-0.05711186304688454,0.0033479034900665283,0.12496709823608398,0.09521663188934326
0.025098059326410294,-0.07073106616735458,-0.06753251701593399,0.022361405193805695,0.14453339576721191,0.09807202219963074
0.047345735132694244,-0.06962065398693085,-0.07191947847604752,0.02725968509912491,0.1606311798095703,0.11602476239204407
0.024899540469050407,-0.03276006132364273,-0.10591229796409607,0.01267484575510025,0.16397613286972046,0.14014151692390442
-0.03356156498193741,-0.02962714061141014,-0.1373022049665451,0.010350167751312256,0.15782111883163452,0.1426759958267212
-0.0736202672123909,-0.08555635064840317,-0.09375426173210144,0.025172710418701172,0.1376369595527649,0.11907827854156494
-0.06427758932113647,-0.13908043503761292,0.011208753101527691,0.059575170278549194,0.15520477294921875,0.07966691255569458
-0.055979710072278976,-0.20634952187538147,0.0664181038737297,0.0678490698337555,0.1900961995124817,0.07329654693603516
-0.13840200006961823,-0.22944238781929016,0.050575777888298035,0.053972601890563965,0.18768733739852905,0.10288870334625244
-0.2685830891132355,-0.15446272492408752,0.0027302755042910576,0.029711388051509857,0.15647166967391968,0.11296075582504272
-0.3240019679069519,-0.03908072039484978,-0.02080005407333374,0.02995217591524124,0.13837796449661255,0.08212578296661377
-0.3154003918170929,-0.014770610257983208,-0.010514423251152039,0.044885411858558655,0.14396971464157104,0.044036865234375
-0.2700267732143402,-0.05337565392255783,-0.00447380356490612,0.05147993564605713,0.15739256143569946,0.026807308197021484
-0.2284846007823944,-0.09411370009183884,-0.01110517606139183,0.04649806022644043,0.1481611728668213,0.02992868423461914
-0.19457262754440308,-0.05657245218753815,-0.009726375341415405,0.04693387448787689,0.1256675124168396,0.027915477752685547
-0.13362230360507965,-0.011900415644049644,0.02028603106737137,0.05651320517063141,0.10400474071502686,0.016688287258148193
-0.07591673731803894,0.03938039019703865,0.07820973545312881,0.060635775327682495,0.09588587284088135,0.013452410697937012
-0.08507223427295685,0.13386382162570953,0.11912287026643753,0.05105574429035187,0.10031813383102417,0.02636086940765381
-0.163905069231987,0.17194627225399017,0.10869681090116501,0.031108804047107697,0.10679715871810913,0.044427573680877686
-0.2554795742034912,0.17697793245315552,0.05629165098071098,0.004715733230113983,0.1026158332824707,0.048967063426971436
-0.3052057921886444,0.11188042163848877,0.015382991172373295,-0.004492521286010742,0.1106533408164978,0.05022704601287842
-0.334800124168396,0.01741684600710869,-0.01888389140367508,-0.02476203441619873,0.11499279737472534,0.07310616970062256
-0.4249323904514313,-0.005689803510904312,-0.059598296880722046,-0.032318711280822754,0.11484229564666748,0.10139048099517822
-0.5006141662597656,0.00040429155342280865,-0.08195552974939346,-0.0007393807172775269,0.10398226976394653,0.0724637508392334
-0.4114680886268616,0.03792828693985939,-0.024154335260391235,0.03366163372993469,0.09913361072540283,0.001226663589477539
-0.19073714315891266,0.12692606449127197,-0.008306091651320457,0.017247557640075684,0.1039431095123291,-0.0332452654838562
0.03959888592362404,0.21120452880859375,-0.08024543523788452,-0.020700260996818542,0.11105376482009888,-0.013346552848815918
0.15246282517910004,0.2194269299507141,-0.18959395587444305,-0.04137779772281647,0.10351026058197021,0.03383147716522217
0.13427315652370453,0.20587781071662903,-0.2212764322757721,-0.02230771631002426,0.08189713954925537,0.07240086793899536
0.004211838357150555,0.2139091044664383,-0.13386882841587067,0.0008550584316253662,0.04679584503173828,0.0819588303565979
-0.1570703685283661,0.11372119933366776,-0.009314632043242455,0.016678795218467712,0.015642404556274414,0.044779181480407715
-0.14957000315189362,0.006833937950432301,0.05163879320025444,0.010921478271484375,0.004906296730041504,-0.04201585054397583
0.07741323113441467,-0.05140091851353645,0.03498652204871178,0.0013593435287475586,0.008884668350219727,-0.0970909595489502
0.3054825961589813,-0.03718160465359688,-0.023989379405975342,-0.017071187496185303,-0.0026997923851013184,-0.06543982028961182
0.3138478696346283,0.09316421300172806,-0.04414942115545273,-0.04175245761871338,-0.049986958503723145,0.012743353843688965
