rotation_x,rotation_y,rotation_z,acceleration_x,acceleration_y,acceleration_z
-0.18289819359779358,0.1868031919002533,-0.03538511320948601,-0.06239902973175049,0.05371594429016113,0.17863613367080688
-0.5734409689903259,0.39558419585227966,-0.10095182806253433,-0.08602350950241089,-0.006058454513549805,0.2568114995956421
-0.634859561920166,0.3840959072113037,0.048951249569654465,-0.009045518934726715,-0.007343888282775879,0.1832948923110962
-0.5246344208717346,0.1728094518184662,0.2655169665813446,0.058226652443408966,0.02187061309814453,0.10330283641815186
-0.37085995078086853,-0.032704830169677734,0.41007283329963684,0.08127358555793762,0.06386029720306396,0.07691776752471924
-0.3075679540634155,0.0010147533612325788,0.43025997281074524,0.046504393219947815,0.08877056837081909,0.11692023277282715
-0.3309599757194519,0.1631634384393692,0.38749396800994873,-0.001384235918521881,0.07158708572387695,0.16641688346862793
-0.3320596516132355,0.3298390507698059,0.3462202847003937,-0.010666422545909882,0.07900524139404297,0.18161171674728394
-0.2696895897388458,0.4121186435222626,0.38307246565818787,0.011915676295757294,0.1085624098777771,0.16751575469970703
-0.22239704430103302,0.3673957288265228,0.5109906196594238,0.035139769315719604,0.12420862913131714,0.15912187099456787
-0.17699722945690155,0.3675490617752075,0.5639632344245911,0.02502615749835968,0.15326911211013794,0.15569543838500977
-0.14786683022975922,0.44962167739868164,0.48356950283050537,0.005938254296779633,0.22396647930145264,0.16491466760635376
-0.0856718197464943,0.5540193915367126,0.2940502166748047,-0.018544934689998627,0.2588012218475342,0.164703369140625
0.0978020504117012,0.7148975729942322,0.0982886552810669,-0.04921872913837433,0.2637622356414795,0.1329261064529419
0.31624796986579895,0.828876793384552,-0.03450746834278107,-0.06538936495780945,0.2630752921104431,0.09845715761184692
0.3893505930900574,0.7217701077461243,-0.04397309571504593,-0.03070952743291855,0.2717127203941345,0.10528665781021118
0.3512084186077118,0.5176191926002502,-0.013367027044296265,-0.005095887929201126,0.2611593008041382,0.12618231773376465
0.2700825035572052,0.2972762882709503,0.04674043133854866,0.01854589208960533,0.2526872754096985,0.13302946090698242
0.21327859163284302,0.1369718313217163,0.12496598809957504,0.04178188741207123,0.23768389225006104,0.13595640659332275
0.14963433146476746,0.1441761702299118,0.23449181020259857,0.06054811179637909,0.21303731203079224,0.13941240310668945
0.082776740193367,0.23211951553821564,0.3954083025455475,0.07622189819812775,0.17724066972732544,0.14150846004486084
-0.011634504422545433,0.2718004286289215,0.6023533940315247,0.08129417896270752,0.1297803521156311,0.1112450361251831
-0.17994625866413116,0.29512012004852295,0.7551246881484985,0.09364446252584457,0.1136927604675293,0.09850132465362549
-0.2883584499359131,0.40882742404937744,0.7398486733436584,0.05521145462989807,0.08656424283981323,0.06167876720428467
-0.2139669954776764,0.46471160650253296,0.6188763380050659,0.01383352279663086,0.06455743312835693,-0.026158452033996582
-0.025089535862207413,0.43507739901542664,0.456298828125,0.0008061453700065613,0.05419975519180298,-0.10036194324493408
0.16655342280864716,0.4239567816257477,0.3625727891921997,-0.0080733522772789,0.028568804264068604,-0.1398494839668274
0.2161349207162857,0.48137912154197693,0.3691813349723816,0.0009541735053062439,-0.004028737545013428,-0.1296600103378296
0.24740464985370636,0.6222448348999023,0.4386800229549408,-0.003642100840806961,-0.03501611948013306,-0.12092196941375732
0.28232988715171814,0.7477089762687683,0.5108382105827332,-0.03902006894350052,-0.0576171875,-0.15021759271621704
0.2692174017429352,0.6834660768508911,0.518077552318573,-0.059709757566452026,-0.026559293270111084,-0.16798609495162964
0.24564774334430695,0.5900139808654785,0.500016450881958,-0.08250504732131958,0.001617133617401123,-0.17904365062713623
0.19377051293849945,0.373373419046402,0.4835200011730194,-0.08299978077411652,0.012434124946594238,-0.19610971212387085
-0.01395389623939991,0.10912880301475525,0.4202951192855835,-0.0841570645570755,-0.003630697727203369,-0.1610240340232849
-0.18943572044372559,-0.05091582238674164,0.28391075134277344,-0.10201993584632874,-0.048221468925476074,-0.13886940479278564
-0.060184162110090256,-0.014630623161792755,0.20480312407016754,-0.07354604452848434,-0.07863837480545044,-0.1939747929573059
0.2561304271221161,0.13884541392326355,0.27367886900901794,-0.0033325999975204468,-0.056693971157073975,-0.26092278957366943
0.42939692735671997,0.27639538049697876,0.39200010895729065,0.033835820853710175,-0.004220783710479736,-0.23104608058929443
0.4809495806694031,0.33178195357322693,0.5310818552970886,0.0062238797545433044,0.002543210983276367,-0.14946216344833374
0.48265278339385986,0.24324852228164673,0.604202926158905,-0.05144809931516647,-0.010200202465057373,-0.10757488012313843
0.34162309765815735,0.10632416605949402,0.5768064856529236,-0.08466342091560364,-0.005600571632385254,-0.06284439563751221
0.19238024950027466,0.051184479147195816,0.4896528720855713,-0.09247319400310516,0.0018243193626403809,-0.04392963647842407
0.1104743555188179,0.18933844566345215,0.3973709046840668,-0.0795462429523468,0.020147204399108887,-0.05295318365097046
0.15735134482383728,0.3624243438243866,0.36537104845046997,-0.07424454391002655,0.001303553581237793,-0.08542948961257935
0.20090241730213165,0.3730311691761017,0.30768075585365295,-0.08450523018836975,-0.024301111698150635,-0.11309659481048584
0.0951799675822258,0.2571943998336792,0.23659774661064148,-0.10386006534099579,-0.039996325969696045,-0.09151971340179443
-0.060309428721666336,0.05742539465427399,0.2085960954427719,-0.09273489564657211,-0.053982675075531006,-0.06825953722000122
-0.09973005205392838,-0.14649860560894012,0.23102669417858124,-0.06441102176904678,-0.08208256959915161,-0.09692132472991943
-0.03795561566948891,-0.26338624954223633,0.2318127304315567,-0.060704305768013,-0.13525927066802979,-0.1562543511390686
0.07761386036872864,-0.4099634289741516,0.10839517414569855,-0.09581180661916733,-0.18680256605148315,-0.22031569480895996
0.1378200650215149,-0.5927668213844299,-0.10909071564674377,-0.10500588268041611,-0.20221096277236938,-0.2600895166397095
0.12489832192659378,-0.817084014415741,-0.3636077344417572,-0.09930364787578583,-0.25102049112319946,-0.2611199617385864
-0.008510887622833252,-0.6536662578582764,-0.2278420776128769,-0.022516965866088867,-0.30838268995285034,-0.22964096069335938
-0.14563164114952087,-0.13222922384738922,0.5237281322479248,0.1317085325717926,-0.32509899139404297,-0.20898157358169556
-0.12189477682113647,0.3750469386577606,1.3437784910202026,0.10954636335372925,-0.4224986433982849,-0.2392926812171936
-0.05689281225204468,0.5109742879867554,1.5801743268966675,-0.12495854496955872,-0.43641412258148193,-0.2781144976615906
0.03380502015352249,0.22861512005329132,1.1140307188034058,-0.325431764125824,-0.2761474847793579,-0.3314049243927002
0.1646520495414734,-0.2674614489078522,0.16011612117290497,-0.4467777609825134,-0.1333191990852356,-0.36587584018707275
0.3288062810897827,-0.6324222683906555,-0.6802631616592407,-0.4208541512489319,-0.08266884088516235,-0.34137850999832153
0.6113470196723938,-0.7360656261444092,-0.7862535715103149,-0.22268709540367126,-0.10336178541183472,-0.294776976108551
0.8477233052253723,-0.6176973581314087,-0.2878802418708801,0.01094578206539154,-0.10759788751602173,-0.23603922128677368
0.7210350036621094,-0.5607679486274719,-0.12883761525154114,-0.010372981429100037,-0.15757834911346436,-0.08804911375045776
0.22789958119392395,-0.4649486839771271,-0.4472227394580841,-0.15133580565452576,-0.17242884635925293,0.041089534759521484
-0.3739137053489685,-0.04403252154588699,-0.5368626713752747,-0.1576138287782669,-0.19134104251861572,0.09005260467529297
-0.7753994464874268,0.3782064914703369,-0.09850793331861496,-0.014609083533287048,-0.25712454319000244,0.021748244762420654
-0.8726279139518738,0.5847878456115723,0.5778533816337585,0.11449931561946869,-0.2367231845855713,-0.13312143087387085
-0.7684739232063293,0.44880014657974243,0.907981812953949,0.09539146721363068,-0.15036821365356445,-0.2846755385398865
-0.5540313720703125,0.022983605042099953,0.7278951406478882,-0.04497215151786804,-0.08527636528015137,-0.36205703020095825
-0.25879308581352234,-0.26485490798950195,0.40811654925346375,-0.12413394451141357,-0.03034895658493042,-0.3663104772567749
0.05371573567390442,-0.3328712284564972,0.28618207573890686,-0.12234227359294891,-0.046649277210235596,-0.3180725574493408
0.23726576566696167,-0.2066761553287506,0.29581719636917114,-0.08867232501506805,-0.05500370264053345,-0.20598727464675903
0.2521795332431793,-0.009796218015253544,0.2847879230976105,-0.08765150606632233,-0.02375638484954834,-0.07588011026382446
0.14218872785568237,0.12274850904941559,0.19608557224273682,-0.11870649456977844,-0.011440813541412354,0.028860747814178467
-0.045508403331041336,0.12132827937602997,0.06194441393017769,-0.12352617084980011,0.002526521682739258,0.08828061819076538
-0.23834511637687683,0.05370129644870758,0.002787973266094923,-0.09020097553730011,0.004845738410949707,0.09994220733642578
-0.2804403603076935,-0.019734486937522888,0.10611985623836517,-0.028817877173423767,-0.0015565752983093262,0.04950058460235596
-0.21828600764274597,-0.09106314927339554,0.30930566787719727,0.02358672022819519,-0.027250289916992188,-0.014111161231994629
-0.10352988541126251,-0.09064166247844696,0.43405142426490784,0.018311023712158203,-0.04397505521774292,-0.05110979080200195
0.0026314500719308853,-0.08028409630060196,0.3678775727748871,-0.04049012064933777,-0.03642302751541138,-0.06007564067840576
0.12043283879756927,-0.03038138896226883,0.19753247499465942,-0.0986098051071167,-0.03673297166824341,-0.0686349868774414
0.30823177099227905,0.06742390245199203,0.04705663025379181,-0.10430130362510681,-0.021038711071014404,-0.110537588596344
0.4764930009841919,0.1541694849729538,-0.024794530123472214,-0.06984257698059082,0.01819908618927002,-0.1275080442428589
0.543999195098877,0.1913623958826065,-0.027092743664979935,-0.05796501040458679,0.02013331651687622,-0.09859651327133179
0.4934402406215668,0.207368865609169,-0.02060031332075596,-0.07312965393066406,0.018236756324768066,-0.031247496604919434
0.45927661657333374,0.21205578744411469,-0.1019282415509224,-0.10076597332954407,0.03978621959686279,0.031987905502319336
0.6249761581420898,0.29638832807540894,-0.21452099084854126,-0.11353716254234314,0.08907091617584229,0.042342543601989746
0.9189757704734802,0.4166903495788574,-0.3161143660545349,-0.11878284811973572,0.14135479927062988,0.040115952491760254
1.1341521739959717,0.43164464831352234,-0.2681260406970978,-0.06315770745277405,0.17324775457382202,0.04673910140991211
1.1502374410629272,0.23397374153137207,-0.2246544063091278,-0.005338430404663086,0.18841558694839478,0.0455927848815918
0.7197802066802979,0.07704071700572968,-0.2946714162826538,0.022469475865364075,0.27240633964538574,0.1361294984817505
0.13032114505767822,-0.01840471848845482,-0.4882137179374695,-0.024815291166305542,0.24046611785888672,0.2239398956298828
-0.0678136870265007,0.08810491859912872,-0.5370142459869385,-0.042380452156066895,0.17004919052124023,0.17079734802246094
0.007779976818710566,0.17389029264450073,-0.4875921308994293,0.012211591005325317,0.18065965175628662,0.07004517316818237
-0.08026965707540512,0.1184326633810997,-0.47046786546707153,0.03148685395717621,0.18664824962615967,0.056354641914367676
-0.2495945245027542,0.03024890460073948,-0.36210450530052185,0.05624806880950928,0.13381779193878174,0.06641650199890137
-0.26288798451423645,0.010926942341029644,-0.12054266780614853,0.10857035219669342,0.09457594156265259,0.017972052097320557
-0.021334007382392883,-0.004181209020316601,0.1368786245584488,0.1456698477268219,0.12421941757202148,-0.05432748794555664
0.4315834045410156,0.0671568214893341,0.30395007133483887,0.13980858027935028,0.197845458984375,-0.08582007884979248
0.8327627182006836,0.3535398542881012,0.2819821834564209,0.0733974277973175,0.289955735206604,-0.045246422290802
0.775132417678833,0.6543613076210022,0.050738174468278885,-0.023905128240585327,0.3399573564529419,0.07124084234237671
0.4767937958240509,0.3895344138145447,-0.2415647804737091,-0.08345659077167511,0.3390877842903137,0.14113062620162964
0.32506874203681946,-0.24185089766979218,-0.3012157380580902,-0.011601805686950684,0.3493615984916687,0.09323132038116455
0.4027818739414215,-0.7055818438529968,-0.16378360986709595,0.10627786815166473,0.3590847849845886,0.047589898109436035
0.5672203302383423,-0.7810290455818176,0.018687749281525612,0.139290452003479,0.3123559355735779,0.07224392890930176
0.6541620492935181,-0.6341730952262878,0.17382629215717316,0.11097042262554169,0.2553420066833496,0.14824852347373962
0.6256436109542847,-0.40896981954574585,0.20462286472320557,0.03670153021812439,0.17692357301712036,0.22556352615356445
0.4643794596195221,-0.2460157424211502,0.21151335537433624,-0.022876814007759094,0.09634745121002197,0.27132222056388855
0.2597079575061798,-0.20997890830039978,0.3297283947467804,0.02720615267753601,0.04715156555175781,0.2759562134742737
0.11817630380392075,-0.09058813005685806,0.5113874673843384,0.09187193214893341,0.027763962745666504,0.23688027262687683
0.023574406281113625,0.07881651073694229,0.5976971983909607,0.09911324083805084,0.004322350025177002,0.18760615587234497
-0.1337507665157318,0.1783665418624878,0.4553462266921997,0.03612831234931946,0.020292460918426514,0.15700125694274902
-0.29482290148735046,0.1631610095500946,0.1890300214290619,-0.04060372710227966,0.04331779479980469,0.11473894119262695
-0.4335317611694336,0.012764775194227695,-0.0002193334512412548,-0.03749869763851166,0.07530087232589722,0.060230374336242676
-0.4862082898616791,-0.2390774041414261,-0.06266867369413376,0.004572778940200806,0.06405574083328247,0.013249576091766357
-0.3944561779499054,-0.3576803207397461,0.008367114700376987,0.04940822720527649,0.05349111557006836,-0.022669315338134766
-0.26570868492126465,-0.35131382942199707,0.17574690282344818,0.08507497608661652,0.04326134920120239,-0.018066883087158203
-0.2259523570537567,-0.21231777966022491,0.2962178885936737,0.07860028743743896,0.039590537548065186,0.02892017364501953
-0.25676149129867554,-0.03305746242403984,0.28095543384552,0.023907095193862915,0.04586213827133179,0.07014709711074829
-0.2608099579811096,0.06505372375249863,0.14711607992649078,-0.04194757342338562,0.05240941047668457,0.07490259408950806
-0.25112003087997437,0.029893171042203903,-0.02862747386097908,-0.06508699059486389,0.07948869466781616,0.07329404354095459
-0.2211330235004425,-0.07827993482351303,-0.21124117076396942,-0.06461593508720398,0.10832923650741577,0.08510881662368774
-0.17669403553009033,-0.1396106779575348,-0.30842989683151245,-0.035126447677612305,0.12320280075073242,0.11302930116653442
-0.20330758392810822,-0.13407158851623535,-0.25051945447921753,0.028321385383605957,0.12633079290390015,0.16710400581359863
-0.3442125618457794,-0.008900652639567852,-0.14001566171646118,0.06783320009708405,0.1326095461845398,0.2244253158569336
-0.4774440824985504,0.16040174663066864,-0.1064348816871643,0.06696364283561707,0.15025657415390015,0.25124770402908325
-0.4543306529521942,0.27052485942840576,-0.1529262363910675,0.0473770946264267,0.19072121381759644,0.21221965551376343
-0.30947941541671753,0.3111337721347809,-0.21598120033740997,0.06089174747467041,0.24983185529708862,0.16026020050048828
-0.27848586440086365,0.24903829395771027,-0.2867935001850128,0.07938213646411896,0.30172544717788696,0.17519915103912354
-0.35531654953956604,0.17697690427303314,-0.2990533709526062,0.07879051566123962,0.3010508418083191,0.2235516905784607
-0.4005374312400818,0.1406242400407791,-0.22338135540485382,0.07760246098041534,0.2770611047744751,0.23237985372543335
-0.30823469161987305,0.11868955194950104,-0.14604757726192474,0.0689830482006073,0.23920077085494995,0.18293768167495728
-0.08090488612651825,0.16224952042102814,-0.11553925275802612,0.07387974858283997,0.25589436292648315,0.11263453960418701
0.15092375874519348,0.20826072990894318,-0.19045022130012512,0.07910686731338501,0.29219555854797363,0.0764991044998169
0.2549157738685608,0.2774760127067566,-0.2691687047481537,0.0650835633277893,0.2707962989807129,0.08322024345397949
0.24788327515125275,0.4012763202190399,-0.22335170209407806,0.07699123024940491,0.22778570652008057,0.10119366645812988
0.16352620720863342,0.4489116668701172,-0.08494959771633148,0.08524347841739655,0.18374931812286377,0.0952308177947998
0.03174266964197159,0.3491138517856598,0.0979013442993164,0.08989575505256653,0.14864259958267212,0.07113766670227051
-0.1542205810546875,0.24945078790187836,0.2622923254966736,0.07857261598110199,0.13787305355072021,0.05019962787628174
-0.2681716978549957,0.15912891924381256,0.33392152190208435,0.04943600296974182,0.14392739534378052,0.01561129093170166
-0.2422412782907486,0.12099282443523407,0.3338150978088379,0.019049793481826782,0.1540374755859375,-0.029344916343688965
-0.05695038661360741,0.15679875016212463,0.29298892617225647,-0.013802200555801392,0.14100074768066406,-0.0777328610420227
0.1251184493303299,0.23340827226638794,0.2743140161037445,-0.02640870213508606,0.12772560119628906,-0.09234917163848877
0.19708283245563507,0.27576732635498047,0.20404545962810516,-0.051752179861068726,0.11390703916549683,-0.06083768606185913
0.2014198899269104,0.34185850620269775,0.09038539975881577,-0.08850985765457153,0.10707312822341919,-0.03174185752868652
0.12504619359970093,0.37072446942329407,-0.025848200544714928,-0.11246488988399506,0.08165448904037476,-0.004047214984893799
0.04206991568207741,0.38821110129356384,-0.1384323537349701,-0.11039435863494873,0.02497321367263794,0.002089381217956543
-0.009526348672807217,0.38135892152786255,-0.20849481225013733,-0.07903937995433807,-0.05014479160308838,-0.027904391288757324
-0.03367998078465462,0.3714965581893921,-0.07531967759132385,0.0026150494813919067,-0.12881219387054443,-0.07077169418334961
0.0020251721143722534,0.27798259258270264,0.24804282188415527,0.07761868834495544,-0.19245141744613647,-0.12615150213241577
0.17314378917217255,0.2478158175945282,0.5714289546012878,0.08339735865592957,-0.22360146045684814,-0.1881694197654724
0.4122239351272583,0.23623940348625183,0.6583366394042969,-0.03233829140663147,-0.19474142789840698,-0.22746145725250244
0.535789430141449,0.11151766031980515,0.5194014310836792,-0.14559541642665863,-0.11849778890609741,-0.1955350637435913
0.5247151255607605,-0.12705208361148834,0.29634296894073486,-0.17573592066764832,-0.04561847448348999,-0.13794291019439697
0.5023661851882935,-0.3009815812110901,0.1947539895772934,-0.1251087784767151,-0.0022620558738708496,-0.0777021050453186
0.44231802225112915,-0.26298627257347107,0.2423044741153717,-0.07937589287757874,0.014129281044006348,-0.004370629787445068
0.31117090582847595,-0.04551360011100769,0.31875181198120117,-0.10085801780223846,-0.01635664701461792,0.047521114349365234
0.11639980226755142,0.1064920723438263,0.2997409999370575,-0.13883979618549347,-0.026460886001586914,0.07239484786987305
-0.027824969962239265,0.04609081521630287,0.1592145562171936,-0.14316873252391815,0.010404348373413086,0.04699796438217163
-0.05266757309436798,-0.16030432283878326,0.04127464070916176,-0.1177385002374649,0.01989591121673584,-0.003063678741455078
-0.11196758598089218,-0.2296074628829956,0.046687111258506775,-0.06752899289131165,-0.009469032287597656,-0.005892515182495117
-0.29990696907043457,-0.21160253882408142,0.09887783229351044,-0.019036203622817993,-0.06085580587387085,0.026526808738708496
-0.5441731810569763,-0.10724212229251862,0.21055424213409424,0.026568621397018433,-0.12257450819015503,0.034215450286865234
-0.5716413259506226,0.1889576017856598,0.38597291707992554,0.016714930534362793,-0.20611220598220825,-0.048859357833862305
-0.36844635009765625,0.42035651206970215,0.4796896278858185,-0.029424473643302917,-0.22960716485977173,-0.19220000505447388
-0.17024579644203186,0.23183739185333252,0.3379887342453003,-0.10807377099990845,-0.197157621383667,-0.29361462593078613
-0.04959693178534508,-0.21644659340381622,0.09065911918878555,-0.1880652904510498,-0.19372379779815674,-0.32589995861053467
-0.02579673007130623,-0.5846010446548462,-0.061768606305122375,-0.2080424427986145,-0.23816221952438354,-0.3121090531349182
-0.1565091609954834,-0.6818234920501709,-0.1746533364057541,-0.21577733755111694,-0.31852084398269653,-0.2509857416152954
-0.26265424489974976,-0.3811158239841461,-0.308104544878006,-0.21422657370567322,-0.37792134284973145,-0.22474336624145508
-0.26573416590690613,0.12418253719806671,-0.4463302493095398,-0.19508008658885956,-0.4227737784385681,-0.26161426305770874
-0.17222969233989716,0.4777645468711853,-0.4710787236690521,-0.1424122154712677,-0.4646644592285156,-0.32005149126052856
-0.11396323144435883,0.5212469696998596,-0.24644885957241058,-0.04954694211483002,-0.5032684803009033,-0.3746281862258911
-0.1927984207868576,0.3358382284641266,0.09487912803888321,0.011303141713142395,-0.5158563256263733,-0.38875865936279297
-0.29006537795066833,0.14971297979354858,0.3466893434524536,-0.008837759494781494,-0.5001534819602966,-0.3926609754562378
-0.2147044837474823,0.00928464811295271,0.38851720094680786,-0.07849699258804321,-0.44756776094436646,-0.4308009743690491
0.002159831114113331,-0.11254055798053741,0.20698410272598267,-0.14253100752830505,-0.32660794258117676,-0.44495779275894165
0.2147703468799591,-0.1903136670589447,-0.04357602074742317,-0.16657792031764984,-0.2034243941307068,-0.37962597608566284
0.405971497297287,-0.15093523263931274,-0.19077834486961365,-0.13285209238529205,-0.1348884105682373,-0.2920883297920227
0.4570697546005249,-0.052928220480680466,-0.19209448993206024,-0.07826057076454163,-0.08834463357925415,-0.1873576045036316
0.2805871367454529,0.09218085557222366,-0.14451414346694946,-0.0585707426071167,-0.08469623327255249,-0.07180255651473999
0.006171942222863436,0.23369207978248596,-0.14644116163253784,-0.06016892194747925,-0.08104979991912842,0.003981173038482666
-0.19581295549869537,0.36357420682907104,-0.15578283369541168,-0.06194506585597992,-0.09116607904434204,0.009486198425292969
-0.2601085901260376,0.41179001331329346,-0.0666036307811737,-0.018580511212348938,-0.08654868602752686,-0.03857237100601196
-0.23173439502716064,0.3658351004123688,0.07311371713876724,0.01262618601322174,-0.07887369394302368,-0.09004724025726318
-0.1438625454902649,0.2945970892906189,0.19881436228752136,0.007564634084701538,-0.06265020370483398,-0.1221933364868164
-0.07496609538793564,0.22635167837142944,0.17493128776550293,-0.0321374386548996,-0.0136260986328125,-0.11100894212722778
-0.08494007587432861,0.07873307168483734,0.002512628212571144,-0.08748404681682587,0.03808802366256714,-0.06269550323486328
-0.12490098178386688,0.048145752400159836,-0.17217931151390076,-0.1217801570892334,0.055769920349121094,-0.0116729736328125
-0.17864076793193817,0.00222221203148365,-0.3180657625198364,-0.12664279341697693,0.06473267078399658,0.017947793006896973
-0.1915557086467743,-0.01953107863664627,-0.3815353214740753,-0.10576032102108002,0.04538226127624512,0.026356041431427002
-0.1947074681520462,0.049183689057826996,-0.3313606083393097,-0.061147406697273254,0.034253597259521484,0.00514984130859375
-0.17629989981651306,0.0983140766620636,-0.2186327874660492,-0.014268830418586731,0.021875500679016113,-0.01730966567993164
-0.12746354937553406,0.15089471638202667,-0.16347913444042206,-0.008892878890037537,0.011144697666168213,-0.03961181640625
-0.06194525957107544,0.17264635860919952,-0.18412449955940247,-0.03321965038776398,0.02097022533416748,-0.04472494125366211
0.03229757398366928,0.14595168828964233,-0.19317205250263214,-0.0508381724357605,0.02906060218811035,-0.053133368492126465
0.06306187063455582,0.004071065224707127,-0.1621789187192917,-0.039641812443733215,0.05940943956375122,-0.03772610425949097
0.024766825139522552,-0.25469088554382324,-0.14029283821582794,-0.051675945520401,0.0662493109703064,-0.001025378704071045
-0.06926269829273224,-0.5248856544494629,-0.1442772001028061,-0.07610394060611725,0.0683254599571228,0.035482704639434814
-0.15952810645103455,-0.7171545028686523,-0.1472378373146057,-0.06962686777114868,0.0980297327041626,0.048660457134246826
-0.24371542036533356,-0.8007157444953918,-0.16596120595932007,-0.02567562460899353,0.15135008096694946,0.06042814254760742
-0.24215686321258545,-0.6805946230888367,-0.23918895423412323,-0.0368182510137558,0.14345604181289673,0.07215112447738647
-0.1295343041419983,-0.40192317962646484,-0.3400663137435913,-0.06226933002471924,0.11511790752410889,0.05652761459350586
0.013911658897995949,-0.15041720867156982,-0.431568443775177,-0.046309009194374084,0.12230545282363892,0.03163248300552368
0.0780274048447609,-0.01187840849161148,-0.46528464555740356,0.0073015689849853516,0.12256675958633423,0.020807385444641113
0.16000132262706757,0.06989932805299759,-0.38824787735939026,0.059653475880622864,0.11791932582855225,0.0014314055442810059
0.18702760338783264,0.11389368772506714,-0.25019386410713196,0.09540073573589325,0.12230509519577026,0.001355588436126709
0.12238538265228271,0.09638075530529022,-0.14803138375282288,0.09123502671718597,0.11266303062438965,0.026655495166778564
0.017421726137399673,0.05490977317094803,-0.10617446899414062,0.07758891582489014,0.12482523918151855,0.04227793216705322
0.028768230229616165,-0.0745057612657547,-0.03989943116903305,0.0768526941537857,0.13210797309875488,0.011959195137023926
0.17253835499286652,-0.188052698969841,0.03376146778464317,0.08650332689285278,0.1646454930305481,-0.024827301502227783
0.37071555852890015,-0.2690929174423218,-0.00544316228479147,0.0555761456489563,0.19018882513046265,-0.02579057216644287
0.48213323950767517,-0.29484349489212036,-0.16897553205490112,0.011518910527229309,0.210196852684021,0.01030641794204712
0.48889341950416565,-0.3305230140686035,-0.3684825897216797,-0.011658251285552979,0.2229517698287964,0.0723881721496582
0.4647011160850525,-0.3090721666812897,-0.4651963412761688,0.00019291043281555176,0.2272028923034668,0.11493551731109619
0.349308043718338,-0.3225861191749573,-0.43118050694465637,0.028304323554039,0.2229878306388855,0.14599281549453735
0.12482349574565887,-0.365783154964447,-0.3195941150188446,0.07300436496734619,0.1852550506591797,0.1613609790802002
-0.0688168853521347,-0.34258726239204407,-0.17124143242835999,0.09926360845565796,0.16021877527236938,0.13371717929840088
-0.16221797466278076,-0.24417316913604736,-0.06493614614009857,0.11140212416648865,0.16460967063903809,0.09272480010986328
-0.12293297797441483,-0.09077595919370651,-0.015342672355473042,0.10552884638309479,0.16874831914901733,0.05271029472351074
-0.03543897718191147,0.10142790526151657,0.017092406749725342,0.09013602137565613,0.17173290252685547,0.028224289417266846
0.07766615599393845,0.1370287984609604,0.06059502810239792,0.08466136455535889,0.16300886869430542,0.01939260959625244
0.2025165557861328,0.07541447877883911,0.14629781246185303,0.07591170072555542,0.15052664279937744,0.02880239486694336
0.31321001052856445,-0.07799968868494034,0.23255985975265503,0.0434143990278244,0.13505655527114868,0.052834272384643555
0.31573182344436646,-0.21317416429519653,0.23215390741825104,0.007945120334625244,0.13172894716262817,0.10756999254226685
0.2319493442773819,-0.24079599976539612,0.2131280153989792,-0.009884446859359741,0.13107895851135254,0.1511843204498291
0.15414363145828247,-0.2130102664232254,0.1761830896139145,-0.025028184056282043,0.10568523406982422,0.1648082733154297
0.12478559464216232,-0.13376764953136444,0.1796114593744278,-0.03207653760910034,0.07313692569732666,0.16085821390151978
0.13867618143558502,0.013991763815283775,0.2732107937335968,-0.041267529129981995,0.040111005306243896,0.1609094738960266
0.08748389035463333,0.20790623128414154,0.39494672417640686,-0.07018454372882843,0.025519907474517822,0.1775832176208496
-0.07132517546415329,0.31684720516204834,0.3961274325847626,-0.12019528448581696,0.02786928415298462,0.1739601492881775
-0.21128281950950623,0.30162492394447327,0.28108158707618713,-0.15507946908473969,0.03089308738708496,0.11373269557952881
-0.20740441977977753,0.2588561773300171,0.08040235936641693,-0.169558584690094,0.03644847869873047,0.033640265464782715
-0.10616994649171829,0.18676839768886566,-0.09268420189619064,-0.15366201102733612,0.03771054744720459,-0.025842905044555664
-0.05774439498782158,0.05720452964305878,-0.17819198966026306,-0.11239685118198395,0.018306314945220947,-0.03433096408843994
-0.10494470596313477,-0.025096140801906586,-0.18909761309623718,-0.062980517745018,0.01751178503036499,-0.02924644947052002
-0.1807519644498825,0.017214570194482803,-0.18607982993125916,-0.03429324924945831,0.02341139316558838,-0.04560685157775879
-0.1752052903175354,0.06785111129283905,-0.1741282343864441,-0.01129893958568573,0.015538454055786133,-0.09278976917266846
-0.02231444977223873,0.036113839596509933,-0.12228929996490479,0.017707020044326782,0.03239643573760986,-0.12642580270767212
0.17876216769218445,-0.04416007548570633,-0.09848024696111679,0.015087217092514038,0.043924570083618164,-0.10178661346435547
0.2824457585811615,-0.09739775955677032,-0.10224537551403046,0.004775255918502808,0.04541289806365967,-0.02140641212463379
0.2599785029888153,-0.13242173194885254,-0.10668031871318817,0.002317473292350769,0.05656599998474121,0.05463153123855591
0.14932191371917725,-0.1527847796678543,-0.08760792016983032,0.007825687527656555,0.07443487644195557,0.10161322355270386
0.054731763899326324,-0.1633152812719345,-0.06558338552713394,0.0016828924417495728,0.07716304063796997,0.10753315687179565
0.0746404379606247,-0.1767752766609192,-0.04804106056690216,0.00516076385974884,0.08452475070953369,0.0771072506904602
0.18655812740325928,-0.22641940414905548,-0.020038656890392303,0.030338913202285767,0.1300310492515564,0.05938601493835449
0.2891222834587097,-0.2500388026237488,-0.04426777362823486,0.05392007529735565,0.2201886773109436,0.102791428565979
0.2337116003036499,-0.2055298537015915,-0.1333281397819519,0.04415091872215271,0.24357885122299194,0.17409217357635498
0.13552045822143555,-0.04612252861261368,-0.23954357206821442,0.03333708643913269,0.209272563457489,0.1860877275466919
0.13351306319236755,0.0353257916867733,-0.2589416205883026,0.07340194284915924,0.22686141729354858,0.15190589427947998
0.18623003363609314,0.014020642265677452,-0.20458213984966278,0.11576834321022034,0.271117627620697,0.1304476261138916
0.24994349479675293,-0.07801812887191772,-0.16276030242443085,0.11846327781677246,0.29050135612487793,0.13968396186828613
0.2546814978122711,-0.14429017901420593,-0.1328807920217514,0.09568646550178528,0.2986900806427002,0.18105292320251465
0.20411479473114014,-0.17626741528511047,-0.12730048596858978,0.06992471218109131,0.2899084687232971,0.22448301315307617
0.0953599214553833,-0.19350963830947876,-0.12871436774730682,0.060013800859451294,0.27584999799728394,0.24807590246200562
-0.026653911918401718,-0.14037472009658813,-0.11287253350019455,0.06747335195541382,0.2523021697998047,0.24080675840377808
-0.1000460684299469,0.05195160582661629,-0.043794892728328705,0.07961155474185944,0.23714137077331543,0.21031814813613892
-0.09663007408380508,0.2871335744857788,0.043570376932621,0.0673699676990509,0.22610896825790405,0.17029637098312378
-0.04764050245285034,0.4586291015148163,0.048200979828834534,0.03980223834514618,0.23305946588516235,0.14234226942062378
-0.0719618871808052,0.5214492678642273,0.005637149792164564,0.028920888900756836,0.2343025803565979,0.14519906044006348
-0.188587948679924,0.4804621934890747,-0.003292289562523365,0.0288761705160141,0.199840247631073,0.14818280935287476
-0.29077884554862976,0.4129433035850525,0.074323870241642,0.03524169325828552,0.16366362571716309,0.11807632446289062
-0.34499427676200867,0.32362544536590576,0.15298928320407867,0.02622373402118683,0.140916645526886,0.0842888355255127
-0.37034401297569275,0.25229889154434204,0.16624142229557037,-0.0012860000133514404,0.1270650029182434,0.0633234977722168
-0.33499276638031006,0.290446400642395,0.08818871527910233,-0.04545864462852478,0.11403685808181763,0.05120086669921875
-0.2871053218841553,0.39894434809684753,-0.02958182990550995,-0.061377331614494324,0.09132850170135498,0.04507648944854736
-0.257173627614975,0.46188637614250183,-0.09761977940797806,-0.047194018959999084,0.06712430715560913,0.04392576217651367
-0.30274006724357605,0.48163914680480957,-0.07444912195205688,-0.03512926399707794,0.02899867296218872,0.05345809459686279
-0.4158417880535126,0.5030913949012756,-0.04117102175951004,-0.04552586376667023,0.0049980878829956055,0.046409547328948975
-0.4541703164577484,0.46393701434135437,-0.08240511268377304,-0.057687386870384216,-0.008369684219360352,-0.023774385452270508
-0.3143109977245331,0.3296787738800049,-0.20422349870204926,-0.0554942786693573,0.011239886283874512,-0.10348808765411377
-0.11268657445907593,0.2040201872587204,-0.36373916268348694,-0.03281519562005997,0.03440666198730469,-0.11573284864425659
-0.05963132902979851,0.04417780041694641,-0.41942697763442993,-0.007686585187911987,0.014788568019866943,-0.049590349197387695
-0.17552903294563293,-0.03675664961338043,-0.319374144077301,-0.014894336462020874,-0.08624142408370972,-0.004426777362823486
-0.3192867636680603,0.0004298468120396137,-0.16072969138622284,-0.039869993925094604,-0.1786726713180542,-0.014154314994812012
-0.29792147874832153,0.12391385436058044,-0.03562027961015701,-0.05634745955467224,-0.17024916410446167,-0.05599772930145264
-0.14284373819828033,0.2288188934326172,0.003950240556150675,-0.05965104699134827,-0.08327406644821167,-0.08107340335845947
-0.08207907527685165,0.17238683998584747,0.008153926581144333,-0.04877573251724243,-0.03149479627609253,-0.055298686027526855
-0.22741279006004333,0.0060327788814902306,-0.007617530878633261,-0.05454772710800171,-0.059992432594299316,-0.008228540420532227
-0.36734476685523987,-0.13578128814697266,0.007270540576428175,-0.03626271337270737,-0.10820168256759644,-0.023751378059387207
-0.3288957476615906,-0.029233792796730995,0.18202225863933563,0.04033699631690979,-0.13190561532974243,-0.07206499576568604
-0.14690059423446655,0.32545730471611023,0.49767282605171204,0.11085253953933716,-0.12271469831466675,-0.10391855239868164
-0.019464028999209404,0.7200129628181458,0.7830075621604919,0.09243641793727875,-0.11448729038238525,-0.09218692779541016
-0.12566782534122467,0.8850611448287964,0.7367864847183228,-0.0174950510263443,-0.13524949550628662,-0.07118546962738037
-0.34276095032691956,0.7354488372802734,0.41396215558052063,-0.11961312592029572,-0.16156160831451416,-0.09624511003494263
-0.4285942018032074,0.5481178164482117,0.14929205179214478,-0.13585099577903748,-0.204897940158844,-0.20220696926116943
-0.27048149704933167,0.33174145221710205,0.052809905260801315,-0.08210347592830658,-0.1863963007926941,-0.2982115149497986
-0.10004423558712006,0.19509543478488922,-0.019260291010141373,-0.07566682994365692,-0.18036693334579468,-0.2978733777999878
0.03164044767618179,0.21419979631900787,-0.15097591280937195,-0.10858376324176788,-0.21605020761489868,-0.2630809545516968
0.11963235586881638,0.2967982888221741,-0.23255331814289093,-0.08662933111190796,-0.28549855947494507,-0.25670164823532104
0.14040593802928925,0.3176073431968689,-0.16482269763946533,-0.050233736634254456,-0.37326115369796753,-0.28880536556243896
0.1434382051229477,0.2887977957725525,0.04234752804040909,-0.016686316579580307,-0.446990430355072,-0.3375704884529114
0.13839110732078552,0.19671525061130524,0.28093117475509644,-0.010483711957931519,-0.4513106346130371,-0.3873504400253296
0.2172139286994934,0.1512104719877243,0.4185279607772827,-0.08581304550170898,-0.43651044368743896,-0.4022344946861267
0.1211795061826706,0.25256866216659546,0.33115696907043457,-0.2046680450439453,-0.4296550154685974,-0.3443049192428589
-0.19351859390735626,0.3241443634033203,-0.008082667365670204,-0.22311051189899445,-0.4037814140319824,-0.3434132933616638
-0.2591930329799652,0.2356017529964447,-0.24416474997997284,-0.12537002563476562,-0.40121424198150635,-0.46714890003204346
0.11895743012428284,-0.00445846002548933,-0.14168070256710052,-0.002406895160675049,-0.43392395973205566,-0.5965151786804199
0.5124160647392273,-0.23549877107143402,0.2248862236738205,0.0837823748588562,-0.36699628829956055,-0.5277433395385742
0.5806754231452942,-0.3371802568435669,0.5213900804519653,0.0324837751686573,-0.2597716450691223,-0.33747249841690063
0.3792032301425934,-0.3308383524417877,0.3939181864261627,-0.10718779265880585,-0.19648104906082153,-0.17578279972076416
0.1242271140217781,-0.2598496079444885,0.010175911709666252,-0.16666845977306366,-0.18403786420822144,-0.12139081954956055
0.0639931857585907,-0.1118505597114563,-0.1723775565624237,-0.0529276579618454,-0.17104756832122803,-0.18809735774993896
0.19511613249778748,-0.022578777745366096,0.0021503539755940437,0.08384960889816284,-0.1600654125213623,-0.24619102478027344
0.25388506054878235,0.05688278749585152,0.36863982677459717,0.1303083896636963,-0.15246647596359253,-0.19655972719192505
0.12407459318637848,0.2919469475746155,0.7229747176170349,0.10201264917850494,-0.12343573570251465,-0.10129570960998535
-0.1487056016921997,0.339908242225647,0.8253166079521179,0.01650191843509674,-0.08529382944107056,-0.051996588706970215
-0.24521340429782867,0.10136379301548004,0.6691808700561523,-0.08832776546478271,-0.09922420978546143,-0.12813901901245117
-0.017975948750972748,-0.11962740868330002,0.41782063245773315,-0.1098460853099823,-0.045734286308288574,-0.2168077826499939
0.26255878806114197,-0.23193565011024475,0.20717549324035645,-0.07092712074518204,0.017768561840057373,-0.19904905557632446
0.40217041969299316,-0.13060294091701508,0.07352355122566223,-0.06699052453041077,0.022995412349700928,-0.12483590841293335
0.43056878447532654,0.12379445135593414,0.014037594199180603,-0.07453028857707977,0.02639484405517578,-0.057624757289886475
0.3940504193305969,0.23191013932228088,-0.03565823659300804,-0.08211524784564972,0.048367857933044434,-0.013751566410064697
0.3311188817024231,0.14181968569755554,-0.11232553422451019,-0.09599991887807846,0.0568157434463501,0.006312072277069092
0.2861120402812958,0.017031725496053696,-0.17740774154663086,-0.09723584353923798,0.04625535011291504,0.0036945343017578125
0.19378146529197693,-0.06313233822584152,-0.18377520143985748,-0.06627470254898071,0.03726738691329956,0.015268683433532715
0.044771939516067505,-0.06771720200777054,-0.1164073795080185,-0.03193415701389313,0.020424246788024902,0.010789990425109863
-0.06787873804569244,-0.058415062725543976,-0.0629948154091835,-0.014352306723594666,0.02907663583755493,-0.012938499450683594
-0.055788252502679825,-0.039750829339027405,-0.06982795149087906,-0.014524906873703003,0.04357278347015381,-0.03537780046463013
0.07094403356313705,-0.014894191175699234,-0.08204711973667145,-0.018518298864364624,0.04967987537384033,-0.050695836544036865
0.16553662717342377,-0.07189886271953583,-0.0671972930431366,-0.01733028143644333,0.05990368127822876,-0.02735680341720581
0.12717849016189575,-0.20346689224243164,-0.05944186449050903,-0.020540565252304077,0.08421468734741211,0.01725149154663086
-0.001244568033143878,-0.2584780156612396,-0.05949690192937851,-0.01722738891839981,0.11465013027191162,0.05243104696273804
-0.10687247663736343,-0.24349206686019897,-0.10634928196668625,-0.018381208181381226,0.12634021043777466,0.06828582286834717
-0.0712774395942688,-0.19590845704078674,-0.22401107847690582,-0.009687229990959167,0.14699476957321167,0.07084506750106812
0.03291779011487961,-0.09863492101430893,-0.3286052942276001,0.02671065926551819,0.18389934301376343,0.0841783881187439
0.11083085834980011,-0.02367597259581089,-0.3630368709564209,0.06563099473714828,0.19144189357757568,0.11355525255203247
0.0852019265294075,0.020370496436953545,-0.26600998640060425,0.0780428946018219,0.16720616817474365,0.14917659759521484
-0.04254741594195366,0.03921890631318092,-0.1619448959827423,0.047408267855644226,0.14059579372406006,0.1593475341796875
-0.19082863628864288,-0.05692555755376816,-0.16046011447906494,0.009663477540016174,0.12474393844604492,0.12812787294387817
-0.2831714451313019,-0.18830282986164093,-0.20887522399425507,0.010591208934783936,0.12169575691223145,0.06959497928619385
-0.23083341121673584,-0.3429342806339264,-0.20281367003917694,0.06236828863620758,0.142727792263031,0.004589438438415527
-0.05515468120574951,-0.4365946650505066,-0.06737818568944931,0.10819780081510544,0.1452198028564453,-0.019903361797332764
0.13207286596298218,-0.4576069414615631,0.13425450026988983,0.11449431627988815,0.1443014144897461,-0.0016390681266784668
0.2654317617416382,-0.4189920425415039,0.2486153095960617,0.08448576927185059,0.1520591378211975,0.02098405361175537
0.34901517629623413,-0.3948856294155121,0.22321122884750366,0.05781472474336624,0.18203121423721313,0.04336267709732056
0.43810001015663147,-0.3960287868976593,0.12845902144908905,0.05546807497739792,0.2238590121269226,0.061190783977508545
0.5706242918968201,-0.40670448541641235,0.04918568953871727,0.060554057359695435,0.257293164730072,0.07923275232315063
0.7613828778266907,-0.36090120673179626,0.024190779775381088,0.06574824452400208,0.296794056892395,0.1016191840171814
0.8202634453773499,-0.29380002617836,0.031928420066833496,0.06138886511325836,0.3362775444984436,0.1540626883506775
0.6664341688156128,-0.3604465126991272,0.06887565553188324,0.04899075627326965,0.3368993401527405,0.19741833209991455
0.4362950921058655,-0.4805757999420166,0.21477338671684265,0.05346144735813141,0.32897162437438965,0.20835137367248535
0.2613678276538849,-0.5348424911499023,0.34716615080833435,0.020055532455444336,0.30974042415618896,0.2014833688735962
0.20801480114459991,-0.5126245617866516,0.26545897126197815,-0.04424189031124115,0.2734299898147583,0.18246319890022278
0.2647928297519684,-0.3925432860851288,0.11123087257146835,-0.06304489076137543,0.22765934467315674,0.17588737607002258
0.26989027857780457,-0.28991803526878357,0.04381078481674194,-0.061694443225860596,0.14107561111450195,0.19897955656051636
0.13606959581375122,-0.2494657039642334,0.08815102279186249,-0.05494333803653717,0.07048565149307251,0.224888414144516
-0.07626806199550629,-0.2508765459060669,0.16699287295341492,-0.058325931429862976,0.03755885362625122,0.22982919216156006
-0.3159307539463043,-0.2604547142982483,0.13481882214546204,-0.0932704508304596,0.01181948184967041,0.21131780743598938
-0.42774340510368347,-0.19298012554645538,-0.0963386744260788,-0.1340743899345398,-0.0033040642738342285,0.16231828927993774
-0.4283154308795929,-0.06938575208187103,-0.37736421823501587,-0.12683917582035065,-0.030234873294830322,0.11404132843017578
-0.3712681531906128,0.02867112308740616,-0.5443105697631836,-0.058498457074165344,-0.03286820650100708,0.07076454162597656
-0.2982814908027649,0.09132363647222519,-0.5447235107421875,0.007181614637374878,-0.027664124965667725,0.03033655881881714
-0.28463298082351685,0.0937894955277443,-0.4239508807659149,0.056444600224494934,-0.0269433856010437,-0.012936949729919434
-0.28379499912261963,0.035889193415641785,-0.3051803708076477,0.09082992374897003,-0.002142786979675293,-0.05556941032409668
-0.22939753532409668,0.03571875020861626,-0.15621937811374664,0.0978994220495224,-3.993511199951172e-06,-0.08445262908935547
-0.1091153621673584,0.09527970850467682,0.01730354316532612,0.060605570673942566,-0.03666108846664429,-0.09216266870498657
0.012587000615894794,0.20328493416309357,0.12601172924041748,0.015939518809318542,-0.02317368984222412,-0.07804840803146362
0.06963782012462616,0.24927286803722382,0.11115580797195435,-0.026445120573043823,-0.0043874382972717285,-0.05548769235610962
0.08881396055221558,0.2095525860786438,0.013629784807562828,-0.03959760069847107,0.017070889472961426,-0.040005624294281006
0.115331269800663,0.15509551763534546,-0.08020375669002533,-0.03366483747959137,0.0312345027923584,-0.024496793746948242
0.08412028104066849,0.08302740007638931,-0.15438435971736908,-0.01729424297809601,0.03314083814620972,0.012777268886566162
0.05582485720515251,0.01711646467447281,-0.1647120714187622,-0.004201605916023254,0.028916478157043457,0.036385416984558105
0.04537085443735123,0.012466395273804665,-0.11545262485742569,0.0075157880783081055,0.03591662645339966,0.05853879451751709
0.020467907190322876,-0.03297317400574684,-0.07373275607824326,0.011795133352279663,0.051732420921325684,0.07750552892684937
-0.0004573145415633917,-0.014662588015198708,-0.06831423193216324,-0.0031691789627075195,0.08248782157897949,0.09576177597045898
-0.06658712774515152,0.0016172757605090737,-0.12398399412631989,-0.00744609534740448,0.10850369930267334,0.11346399784088135
-0.09457894414663315,0.015577655285596848,-0.16968467831611633,-0.003202870488166809,0.12631404399871826,0.1135251522064209
-0.05355210229754448,0.05352924391627312,-0.17281682789325714,0.006354615092277527,0.14318209886550903,0.1083877682685852
0.004849936813116074,0.0718100517988205,-0.15407609939575195,0.009394705295562744,0.17903244495391846,0.12813228368759155
0.04252050444483757,0.03711121156811714,-0.1642172485589981,0.00012398511171340942,0.21886909008026123,0.15975075960159302
0.05131131410598755,0.02273234911262989,-0.23046065866947174,-0.005620121955871582,0.25162529945373535,0.18841135501861572
0.037671685218811035,-0.0373971126973629,-0.3185221254825592,0.00705835223197937,0.2579747438430786,0.20004326105117798
0.06754867732524872,-0.13000673055648804,-0.34260430932044983,0.04389043152332306,0.24949657917022705,0.18156176805496216
0.10394211113452911,-0.21155999600887299,-0.26570984721183777,0.08731937408447266,0.24924612045288086,0.18703502416610718
0.030874498188495636,-0.20778508484363556,-0.15959587693214417,0.09353190660476685,0.23758339881896973,0.2121424674987793
-0.08464927226305008,-0.03722274303436279,-0.10473944991827011,0.05354823172092438,0.2185935378074646,0.21203583478927612
-0.17085279524326324,0.2383556216955185,-0.17531868815422058,0.010069414973258972,0.21875381469726562,0.1819865107536316
-0.21404491364955902,0.44133082032203674,-0.31647416949272156,-0.008625835180282593,0.21502506732940674,0.1400240659713745
-0.267788827419281,0.4764629602432251,-0.4246932566165924,0.003108106553554535,0.17120689153671265,0.10258549451828003
-0.28226444125175476,0.3802328407764435,-0.34626635909080505,0.04457560181617737,0.1139141321182251,0.04602259397506714
-0.2080359011888504,0.3107796311378479,-0.1366575062274933,0.09476486593484879,0.10002589225769043,-0.001250147819519043
-0.15477797389030457,0.2107887864112854,0.12554103136062622,0.12486648559570312,0.11297261714935303,-0.0008730888366699219
-0.2151203453540802,0.07158583402633667,0.31383562088012695,0.1109645813703537,0.11885076761245728,0.024557769298553467
-0.2692806124687195,-0.0393788143992424,0.41464513540267944,0.0736599713563919,0.11190861463546753,0.021815001964569092
-0.22866494953632355,-0.09683684259653091,0.4610893726348877,0.037018999457359314,0.10288006067276001,0.016978442668914795
-0.13598403334617615,-0.08834945410490036,0.4774535894393921,0.011422492563724518,0.09336221218109131,0.02167963981628418
-0.06774342060089111,-0.08684739470481873,0.46048688888549805,-0.009273059666156769,0.08914154767990112,0.045159757137298584
-0.004001890309154987,-0.049246951937675476,0.4294079840183258,-0.02132299542427063,0.06310427188873291,0.052060723304748535
0.09316146373748779,0.08197759836912155,0.38771992921829224,-0.046084001660346985,0.035576581954956055,0.05611962080001831
0.15178516507148743,0.24016185104846954,0.3333488702774048,-0.053644053637981415,0.005665898323059082,0.04852104187011719
0.12563003599643707,0.32971620559692383,0.2821202874183655,-0.05212290585041046,-0.01319819688796997,0.03656876087188721
0.012611601501703262,0.326884001493454,0.22031104564666748,-0.05359359085559845,-0.01497793197631836,0.03662300109863281
-0.12819825112819672,0.2636488378047943,0.14447754621505737,-0.06733681261539459,-0.03556835651397705,0.022360920906066895
-0.17785204946994781,0.17017768323421478,0.11383972316980362,-0.05457749962806702,-0.03501927852630615,-0.006354570388793945
-0.14187754690647125,0.13062484562397003,0.10026039928197861,-0.04923785477876663,-0.035296499729156494,-0.021474778652191162
-0.1076805591583252,0.13458123803138733,0.030414624139666557,-0.06603632122278214,-0.02749544382095337,-0.007472693920135498
-0.12208086997270584,0.1504879742860794,-0.08067604899406433,-0.0632600262761116,-0.028613150119781494,0.005212128162384033
-0.14666852355003357,0.09408817440271378,-0.1863320916891098,-0.04504819214344025,-0.026946306228637695,0.008355796337127686
-0.12305659055709839,0.012104147113859653,-0.31984955072402954,-0.0469694584608078,-0.027958035469055176,0.026858031749725342
-0.14572301506996155,-0.049298226833343506,-0.4303547739982605,-0.046594828367233276,-0.030407071113586426,0.0516013503074646
-0.2834146022796631,-0.05230922996997833,-0.4111899137496948,-0.016883164644241333,-0.052861690521240234,0.11161351203918457
-0.4274545907974243,0.00017786561511456966,-0.1665632128715515,0.06485792249441147,-0.0941309928894043,0.1164860725402832
-0.37121984362602234,0.2426348775625229,0.14750885963439941,0.12060076743364334,-0.15276187658309937,0.02589702606201172
-0.1845693588256836,0.5843952894210815,0.320878803730011,0.08772473782300949,-0.13430529832839966,-0.08003020286560059
-0.1661088913679123,0.8467928171157837,0.2898012399673462,0.01641654223203659,-0.07467830181121826,-0.11136656999588013
-0.34691572189331055,0.8069811463356018,0.1640656441450119,-0.04603217542171478,-0.04190385341644287,-0.11122262477874756
-0.38029786944389343,0.4884631037712097,0.09957697987556458,-0.04822199046611786,-0.04507488012313843,-0.182600736618042
-0.14469102025032043,0.12387987971305847,0.1962329000234604,0.0043151527643203735,-0.05682075023651123,-0.29713451862335205
0.12254627794027328,0.0066991038620471954,0.263766884803772,-0.0010851621627807617,-0.08758556842803955,-0.3288179636001587
0.2338200956583023,0.1307923048734665,0.12894387543201447,-0.061882153153419495,-0.10523021221160889,-0.2561982274055481
0.2677867114543915,0.3673306107521057,-0.198680117726326,-0.12170162051916122,-0.1233254075050354,-0.17673778533935547
0.2900589108467102,0.5419681668281555,-0.5873614549636841,-0.12771636247634888,-0.13744819164276123,-0.13178163766860962
0.2594561278820038,0.658822238445282,-0.7793675661087036,-0.0929441750049591,-0.16831183433532715,-0.07930004596710205
0.1321871429681778,0.7689356803894043,-0.6354157328605652,-0.021397829055786133,-0.22372543811798096,-0.03902781009674072
-0.06971943378448486,0.6822997331619263,-0.3019692897796631,0.07107460498809814,-0.28088974952697754,-0.05932116508483887
-0.3968554139137268,0.6892056465148926,0.0692874863743782,0.1194511353969574,-0.3044162392616272,-0.11032098531723022
-0.7791246771812439,0.7220841646194458,0.4009850323200226,0.07927206158638,-0.4013323187828064,-0.2016352415084839
-0.9739539623260498,0.47847071290016174,0.6496517062187195,0.04150378704071045,-0.4320782423019409,-0.36625826358795166
-0.9642625451087952,0.03893963247537613,0.7166063785552979,-0.02117326855659485,-0.39775413274765015,-0.5095627903938293
-0.7694242596626282,-0.4234144389629364,0.5718353390693665,-0.11926078796386719,-0.37333279848098755,-0.6136424541473389
-0.3252491056919098,-0.6230320334434509,0.3949655592441559,-0.1527818739414215,-0.3489815592765808,-0.6870719194412231
0.06288974732160568,-0.49471792578697205,0.20030631124973297,-0.16050221025943756,-0.3267934322357178,-0.6602011919021606
0.28345751762390137,-0.1422005444765091,-0.06908142566680908,-0.20569702982902527,-0.3404279947280884,-0.5244567394256592
0.40274542570114136,0.14913523197174072,-0.290934294462204,-0.21986602246761322,-0.34038597345352173,-0.41377460956573486
0.39367052912712097,0.1353899985551834,-0.42565006017684937,-0.17099696397781372,-0.31993138790130615,-0.3316625952720642
0.3506178557872772,0.010084104724228382,-0.3549395799636841,-0.07529610395431519,-0.2993749976158142,-0.26752954721450806
0.23292136192321777,-0.13494664430618286,-0.18422378599643707,-0.002312777563929558,-0.2775110602378845,-0.18130457401275635
0.12903131544589996,-0.21084141731262207,0.005085050594061613,0.03472965955734253,-0.23362421989440918,-0.11951667070388794
0.11736340075731277,-0.22259628772735596,0.10881645977497101,0.028496503829956055,-0.18940573930740356,-0.11435997486114502
0.14050595462322235,-0.21503640711307526,0.09936323761940002,-0.010025650262832642,-0.14144515991210938,-0.11138111352920532
0.17350828647613525,-0.24363765120506287,0.022224949672818184,-0.028893079608678818,-0.08931994438171387,-0.09816217422485352
0.19000394642353058,-0.22374844551086426,-0.04611310735344887,-0.0263344906270504,-0.0521697998046875,-0.07275432348251343
0.1613267958164215,-0.05873282626271248,-0.027354540303349495,-0.019328385591506958,-0.05111187696456909,-0.0306546688079834
0.15620633959770203,0.1574958711862564,0.006741911172866821,-0.01923811435699463,-0.044901371002197266,-0.009847283363342285
0.16202899813652039,0.2574625611305237,-0.01000269316136837,-0.03242307901382446,-0.01620662212371826,-0.017071127891540527
0.17845112085342407,0.16957734525203705,-0.08447512984275818,-0.04284915328025818,0.0068558454513549805,-0.042896151542663574
0.20183907449245453,-0.007914937101304531,-0.12374020367860794,-0.030317991971969604,0.025098145008087158,-0.05713450908660889
0.21963059902191162,-0.10350438952445984,-0.0967872142791748,-0.010115263983607292,0.024198532104492188,-0.05288761854171753
0.1768067181110382,-0.025518573820590973,-0.0141960009932518,-0.007629454135894775,0.01085585355758667,-0.02340322732925415
0.06843817979097366,0.008413911797106266,0.10784747451543808,-0.003946810960769653,0.006513833999633789,0.010976910591125488
0.015332849696278572,-0.10627327859401703,0.14819830656051636,-0.014308273792266846,0.028687238693237305,0.005535781383514404
0.046397604048252106,-0.28737351298332214,0.06630296260118484,-0.029128432273864746,0.06626051664352417,-0.010269701480865479
0.13713324069976807,-0.3786040246486664,-0.07228157669305801,-0.0313076376914978,0.11134427785873413,-0.0011174678802490234
0.20526453852653503,-0.33668801188468933,-0.1493903249502182,-0.021766778081655502,0.12242984771728516,0.028250038623809814
0.15998224914073944,-0.13916689157485962,-0.1257249414920807,-0.0019707828760147095,0.10512751340866089,0.08281958103179932
0.0785435363650322,0.0677541121840477,-0.03530394658446312,-0.0023854076862335205,0.08814489841461182,0.11073637008666992
-0.044795550405979156,0.11482159048318863,0.012832975946366787,-0.006215691566467285,0.10378766059875488,0.10370111465454102
-0.27698421478271484,0.012578636407852173,-0.03802076727151871,-0.028226226568222046,0.12343859672546387,0.10158097743988037
-0.48484233021736145,-0.24510961771011353,-0.06057555228471756,-0.014844130724668503,0.12321138381958008,0.0737229585647583
-0.5478756427764893,-0.4489399790763855,0.03229334205389023,0.021018624305725098,0.12159830331802368,0.024287641048431396
-0.43405595421791077,-0.5853721499443054,0.18430832028388977,0.03904835879802704,0.08391439914703369,-0.031237125396728516
-0.12970183789730072,-0.6172851324081421,0.19618260860443115,0.02381712943315506,0.08498543500900269,-0.08738607168197632
0.21394015848636627,-0.5940537452697754,0.10097601264715195,0.021612942218780518,0.11593824625015259,-0.10482096672058105
0.39331766963005066,-0.4623260200023651,-0.034076027572155,0.024573974311351776,0.1627005934715271,-0.04075711965560913
0.40040454268455505,-0.2777908444404602,-0.16242079436779022,0.02507498860359192,0.17641526460647583,0.05115675926208496
0.36268821358680725,-0.24639907479286194,-0.25803080201148987,0.006458736956119537,0.14953464269638062,0.10001969337463379
0.3652002215385437,-0.3390539288520813,-0.18802495300769806,0.05101672559976578,0.15192919969558716,0.10245054960250854
0.32868850231170654,-0.39647066593170166,-0.022677071392536163,0.09363152086734772,0.1665852665901184,0.10915279388427734
0.2751186788082123,-0.40404537320137024,0.11059046536684036,0.10459992289543152,0.17005687952041626,0.1275242567062378
0.24766233563423157,-0.30523741245269775,0.1283920258283615,0.08311600983142853,0.17657554149627686,0.1302914023399353
0.2556709349155426,-0.2457750290632248,0.08685024827718735,0.0648004338145256,0.19125908613204956,0.11583840847015381
0.3158539831638336,-0.27443939447402954,0.11146999895572662,0.07117956131696701,0.21642428636550903,0.08587074279785156
0.4389035701751709,-0.38621044158935547,0.15138603746891022,0.0842907577753067,0.2222658395767212,0.05331200361251831
0.587044894695282,-0.4940212070941925,0.11402686685323715,0.09243941307067871,0.24353259801864624,0.036161184310913086
0.6660719513893127,-0.5437647700309753,0.012701012194156647,0.08784303069114685,0.26414334774017334,0.07198697328567505
0.712755024433136,-0.4839639663696289,-0.013827534392476082,0.08647659420967102,0.24134141206741333,0.12492012977600098
0.7099631428718567,-0.3671066462993622,0.08010997623205185,0.09610188007354736,0.2179642915725708,0.1670222282409668
0.6462655067443848,-0.2569250166416168,0.18565380573272705,0.09648047387599945,0.20633643865585327,0.21073603630065918
0.5731450319290161,-0.19973202049732208,0.18918181955814362,0.05324189364910126,0.1701527237892151,0.2347310185432434
0.49374422430992126,-0.14516142010688782,0.16186875104904175,0.0340060293674469,0.15073370933532715,0.24197569489479065
0.39212173223495483,-0.0752447247505188,0.1711444854736328,0.024863392114639282,0.1168937087059021,0.2462785243988037
0.23001447319984436,0.03733339533209801,0.19451722502708435,0.005039587616920471,0.07361716032028198,0.24593913555145264
0.05147905275225639,0.12432277947664261,0.1989390105009079,-0.010906681418418884,0.05005389451980591,0.23293054103851318
-0.0731128379702568,0.17772643268108368,0.15383188426494598,-0.022038787603378296,0.05370885133743286,0.19718962907791138
-0.16042430698871613,0.18306376039981842,0.09251885116100311,-0.02614136040210724,0.05503469705581665,0.1590169072151184
-0.21940219402313232,0.18027591705322266,0.04168245568871498,-0.04358653724193573,0.025045812129974365,0.13196027278900146
-0.2417759895324707,0.2022002786397934,0.020861944183707237,-0.05157439410686493,-0.0005249977111816406,0.0975942313671112
-0.2594895362854004,0.22740720212459564,0.022015701979398727,-0.04699307680130005,-0.0048029422760009766,0.07376497983932495
-0.23230701684951782,0.24910782277584076,0.057926591485738754,-0.037979856133461,-0.018223464488983154,0.034271568059921265
-0.17672431468963623,0.20048418641090393,0.12353459000587463,-0.01591937243938446,-0.011829853057861328,-0.006318330764770508
-0.15441609919071198,0.12370701879262924,0.13887852430343628,-0.025503739714622498,-0.01945054531097412,-0.02652108669281006
-0.1680612415075302,0.06810969859361649,0.10353250801563263,-0.045362502336502075,-0.01982128620147705,-0.03886035084724426
-0.19879122078418732,0.0381183996796608,0.0013114707544445992,-0.06143048405647278,-0.0047591328620910645,-0.042716383934020996
-0.1469554454088211,0.0503707192838192,-0.0790199264883995,-0.06363913416862488,-0.0035993456840515137,-0.06877744197845459
-0.0324765145778656,0.03233838453888893,-0.11063624173402786,-0.03551468253135681,0.010588586330413818,-0.0922805666923523
0.060543205589056015,-0.008580002933740616,-0.1259477734565735,-0.010093659162521362,0.025366544723510742,-0.08295530080795288
0.08399230241775513,-0.02928956039249897,-0.10351947695016861,0.00761568546295166,0.034608662128448486,-0.03825920820236206
0.0656011626124382,-0.042903393507003784,-0.07486482709646225,0.01730579137802124,0.029720723628997803,0.006252288818359375
-0.0012254116591066122,-0.047634758055210114,-0.05190427601337433,0.01409195363521576,0.03096860647201538,0.045062899589538574
-0.04826279729604721,-0.09310679882764816,-0.04800405725836754,0.01327502727508545,0.02894425392150879,0.06244516372680664
-0.02604098618030548,-0.12729202210903168,-0.04624446853995323,0.016743168234825134,0.041020750999450684,0.05464833974838257
-0.006120380479842424,-0.13058216869831085,-0.04138330742716789,0.020271092653274536,0.058041930198669434,0.05899763107299805
-0.02475326880812645,-0.06349833309650421,-0.028823286294937134,0.01716853678226471,0.07189643383026123,0.08635962009429932
-0.07490288466215134,0.015054772607982159,-0.0475662425160408,0.0023919343948364258,0.06983870267868042,0.1136314868927002
-0.10811955481767654,0.07220425456762314,-0.08500439673662186,-0.009635582566261292,0.061860501766204834,0.12119144201278687
-0.11301854997873306,0.07850416004657745,-0.09350510686635971,0.007568612694740295,0.09128469228744507,0.11509519815444946
-0.07344266772270203,0.029483342543244362,-0.05531677231192589,0.025137722492218018,0.09721559286117554,0.10318690538406372
-0.0055835675448179245,0.0014044013805687428,-0.017072955146431923,0.03783828020095825,0.12715250253677368,0.10307466983795166
-0.01744850166141987,0.040158793330192566,-0.07555297762155533,0.031882256269454956,0.18591022491455078,0.15034115314483643
-0.09953226894140244,0.10027569532394409,-0.16873890161514282,0.006821960210800171,0.2031422257423401,0.2051754593849182
-0.18325459957122803,0.14742068946361542,-0.22533105313777924,0.004034906625747681,0.20765578746795654,0.22864854335784912
-0.21194927394390106,0.08617084473371506,-0.2066587209701538,0.024583935737609863,0.21874511241912842,0.21559464931488037
-0.11330395936965942,-0.13712866604328156,-0.15771394968032837,0.05337062478065491,0.23133933544158936,0.15933817625045776
-0.03395230323076248,-0.3465113639831543,-0.13384199142456055,0.07413250207901001,0.27641820907592773,0.13952791690826416
-0.08151020854711533,-0.48402971029281616,-0.18182723224163055,0.07656468451023102,0.30938494205474854,0.17606109380722046
-0.1646244376897812,-0.43008702993392944,-0.23414646089076996,0.05285261571407318,0.26594430208206177,0.21160900592803955
-0.16389624774456024,-0.14239217340946198,-0.21970249712467194,0.051045194268226624,0.21013802289962769,0.21418136358261108
-0.10438897460699081,0.25459015369415283,-0.17448727786540985,0.04298372566699982,0.2001320719718933,0.19891923666000366
-0.16409939527511597,0.39591866731643677,-0.0556160993874073,0.07509768009185791,0.22196447849273682,0.20957458019256592
-0.24945005774497986,0.3181149661540985,0.07838959246873856,0.09389003366231918,0.21754807233810425,0.20998835563659668
-0.32041069865226746,0.2178904116153717,0.22501403093338013,0.09790155291557312,0.22372692823410034,0.2072569727897644
-0.4749563932418823,0.05407356470823288,0.3742935359477997,0.07248727977275848,0.19494223594665527,0.2284623384475708
-0.6555238366127014,-0.08875634521245956,0.49940821528434753,0.04168032109737396,0.1487257480621338,0.23341530561447144
-0.7741648554801941,-0.060800328850746155,0.5273613929748535,0.008732900023460388,0.11795389652252197,0.19803768396377563
-0.8142757415771484,0.006479973904788494,0.505096435546875,-0.021241873502731323,0.08588671684265137,0.13553988933563232
-0.7118245959281921,0.07751339673995972,0.44689056277275085,0.0031996071338653564,0.09159022569656372,0.04381358623504639
-0.5141178965568542,0.19215506315231323,0.29405710101127625,0.002022296190261841,0.12085515260696411,-0.010125815868377686
-0.27995985746383667,0.34752756357192993,0.09388308227062225,-0.05050092935562134,0.06967473030090332,-0.023080289363861084
-0.048915568739175797,0.44202372431755066,-0.08592379838228226,-0.08574965596199036,0.03349566459655762,-0.03416407108306885
-0.0507112592458725,0.4253789186477661,-0.23149187862873077,-0.08722375333309174,0.01894855499267578,-0.004823803901672363
-0.1602395921945572,0.27469202876091003,-0.288723349571228,-0.05979345738887787,-0.019532859325408936,0.007122635841369629
-0.12503983080387115,0.09099754691123962,-0.20612387359142303,0.002736300230026245,-0.04537254571914673,-0.039652347564697266
0.03829987347126007,0.035086844116449356,-0.08198574930429459,0.05846981704235077,-0.029965639114379883,-0.08276164531707764
0.06594909727573395,0.20677275955677032,-0.11360678821802139,0.031548574566841125,0.004050612449645996,-0.04215836524963379
-0.14003226161003113,0.3151140809059143,-0.13191604614257812,-0.024640798568725586,-0.021127939224243164,0.022620201110839844
-0.4809475243091583,0.11075828969478607,0.08053544908761978,-0.017744489014148712,-0.07246118783950806,0.035521090030670166
-0.6770539283752441,-0.32982373237609863,0.431549072265625,0.013216838240623474,-0.08783721923828125,-0.030618011951446533
-0.6016756892204285,-0.5128653049468994,0.46006107330322266,-0.046100422739982605,-0.05912500619888306,-0.11058789491653442
-0.2859150469303131,-0.2521933615207672,0.010679231956601143,-0.16607056558132172,-0.0410427451133728,-0.14496707916259766
0.004088900983333588,0.21381866931915283,-0.5983061194419861,-0.19842694699764252,-0.013192594051361084,-0.1379278302192688
0.07769212871789932,0.5123661160469055,-0.8222639560699463,-0.13656584918498993,-0.09073030948638916,-0.12169486284255981
-0.002996893133968115,0.44893571734428406,-0.47895580530166626,-0.00731910765171051,-0.1818305253982544,-0.1446678638458252
-0.13201728463172913,0.15052756667137146,0.011343013495206833,0.061864033341407776,-0.18735194206237793,-0.15209579467773438
-0.16897712647914886,-0.1689508855342865,0.1079750657081604,0.01954054832458496,-0.12150120735168457,-0.16621416807174683
-0.22507663071155548,-0.2131052166223526,-0.11371231079101562,-0.06779933720827103,-0.07917314767837524,-0.15485996007919312
-0.2952177822589874,0.014562388882040977,-0.2849825620651245,-0.07522290199995041,-0.1354084610939026,-0.13683009147644043
-0.0863705649971962,0.42132505774497986,-0.13828666508197784,0.04163920879364014,-0.1860637068748474,-0.20367586612701416
0.426592618227005,0.8740779161453247,0.2710382640361786,0.19009073078632355,-0.22119182348251343,-0.32989901304244995
0.8619275093078613,1.0963248014450073,0.7888277769088745,0.26442262530326843,-0.23592537641525269,-0.3839470148086548
0.7707675695419312,0.7963333129882812,1.1556169986724854,0.19366681575775146,-0.25023841857910156,-0.2780734896659851
0.17669856548309326,0.31158673763275146,1.2768189907073975,0.0408024936914444,-0.22389298677444458,-0.1136326789855957
-0.6513985991477966,-0.01761293038725853,1.3021821975708008,-0.07921330630779266,-0.1804358959197998,-0.025877058506011963
-1.2221931219100952,-0.1030932068824768,1.2249624729156494,-0.16217172145843506,-0.1862061619758606,-0.06257271766662598
-1.1510587930679321,-0.0656316727399826,1.0028666257858276,-0.23067034780979156,-0.22171610593795776,-0.2229626178741455
-0.6637686491012573,0.05662139132618904,0.5598655343055725,-0.2695651054382324,-0.22616219520568848,-0.38200968503952026
-0.20315690338611603,0.28803080320358276,0.0006430121138691902,-0.32169798016548157,-0.29295480251312256,-0.4216868281364441
0.09051039814949036,0.5028321146965027,-0.42182475328445435,-0.33647429943084717,-0.37034010887145996,-0.39158880710601807
0.31841716170310974,0.46898484230041504,-0.5706537365913391,-0.24855774641036987,-0.3880154490470886,-0.3924659490585327
0.5201847553253174,0.15297859907150269,-0.5668448209762573,-0.15110823512077332,-0.3682965040206909,-0.4165307283401489
