rotation_x,rotation_y,rotation_z,acceleration_x,acceleration_y,acceleration_z
0.7353052496910095,-1.4040493965148926,-1.5063731670379639,0.055422842502593994,0.17497751116752625,0.07176536321640015
0.744389533996582,-1.6969749927520752,-1.1780834197998047,0.09385758638381958,0.16541829705238342,0.21308428049087524
0.35324981808662415,-1.702260971069336,-1.2595895528793335,-0.020421281456947327,0.1388435959815979,0.3377983570098877
-0.163710355758667,-1.349118709564209,-1.577085018157959,-0.15932846069335938,0.042791396379470825,0.31710684299468994
-0.49976328015327454,-0.973484456539154,-1.7777535915374756,-0.17377835512161255,0.06023809313774109,0.25978797674179077
-0.47873038053512573,-0.9210217595100403,-1.755515694618225,-0.08796405047178268,0.09875929355621338,0.18662792444229126
-0.251497358083725,-0.9002682566642761,-1.4945613145828247,0.008044980466365814,0.1195954978466034,0.11167865991592407
-0.047398343682289124,-1.1748517751693726,-1.1781765222549438,0.006952293217182159,0.16479310393333435,0.1857684850692749
0.20171700417995453,-1.6880711317062378,-0.9974022507667542,-0.021437283605337143,0.1463966965675354,0.21609914302825928
0.39614731073379517,-2.3710196018218994,-0.7655490040779114,-0.0359732061624527,0.15181028842926025,0.27617430686950684
0.6286407113075256,-3.109736680984497,-0.38480305671691895,0.05559876188635826,0.1832619607448578,0.33527612686157227
0.8191877007484436,-3.756033182144165,0.15709726512432098,0.14181432127952576,0.25205281376838684,0.3940470814704895
0.7401177287101746,-4.377243518829346,0.828220546245575,0.2648918330669403,0.3233107924461365,0.5248479247093201
0.1212969720363617,-4.914088249206543,1.4111146926879883,0.2684938311576843,0.3238760828971863,0.6973353028297424
-1.1432476043701172,-5.048720836639404,1.989580512046814,0.28327253460884094,0.29118070006370544,0.8589658141136169
-2.2869253158569336,-5.085543632507324,2.3211183547973633,0.2069896161556244,0.28862494230270386,0.8592602014541626
-1.902129888534546,-5.144289970397949,2.323786735534668,0.1122475266456604,0.33944132924079895,0.45151621103286743
-0.5650458931922913,-4.596951961517334,1.9834476709365845,-0.07099199295043945,0.3299899101257324,-0.30373966693878174
-0.7408655881881714,-3.2685396671295166,1.660038948059082,-0.09931647777557373,0.2653347849845886,-0.32189542055130005
-2.852710485458374,-0.8834736347198486,1.73030686378479,-0.021047353744506836,0.23100222647190094,0.22854840755462646
-5.376291275024414,1.4842445850372314,1.6634762287139893,-0.1146816611289978,0.270532488822937,0.37825262546539307
-6.299124717712402,2.285210371017456,1.2791786193847656,-0.3644512891769409,0.3086177408695221,-0.05715304613113403
-4.330999851226807,1.4989904165267944,0.3216370940208435,-0.8831512331962585,0.23531730473041534,-1.269925832748413
-1.7735711336135864,0.4678797721862793,-0.2893355190753937,-1.0483713150024414,0.10829544067382812,-2.0203540325164795
-0.7755277752876282,0.2803950905799866,-0.04906058311462402,-0.5835007429122925,0.027383416891098022,-1.6185259819030762
-0.8563015460968018,0.8366029858589172,0.05362733080983162,-0.3143160939216614,-0.1219833493232727,-1.052753210067749
-1.0754523277282715,1.6789571046829224,-0.2828786075115204,-0.36984682083129883,-0.3711269795894623,-0.7686557173728943
-0.8267596960067749,1.996154546737671,-0.6682913303375244,-0.3367850184440613,-0.4428457021713257,-0.7060645818710327
-0.5181295871734619,1.468798279762268,-0.7093504667282104,-0.16176766157150269,-0.4056681990623474,-0.5404435396194458
-0.2492261379957199,0.6184705495834351,-0.4838089942932129,-0.01059633493423462,-0.3886730670928955,-0.44616156816482544
0.45936042070388794,0.22436194121837616,-0.1888209581375122,0.03545576333999634,-0.3348778486251831,-0.7103452682495117
1.44772207736969,0.38031119108200073,-0.2257072627544403,0.0010922551155090332,-0.26235416531562805,-1.0672965049743652
1.7718470096588135,1.0328704118728638,-0.5540193319320679,-0.13200008869171143,-0.2152176946401596,-1.0218631029129028
1.5061414241790771,1.6426533460617065,-0.9679141044616699,-0.23115915060043335,-0.22071468830108643,-0.7433258891105652
1.4842389822006226,2.057710647583008,-1.3501750230789185,-0.25849831104278564,-0.14435461163520813,-0.6548716425895691
1.7138782739639282,2.391057014465332,-1.614699363708496,-0.2507275938987732,0.03306089714169502,-0.6666927933692932
1.9578193426132202,2.5544016361236572,-1.6203744411468506,-0.1440621018409729,0.20814116299152374,-0.534845769405365
2.1128509044647217,2.7509021759033203,-1.4847067594528198,-0.04406100511550903,0.3348405957221985,-0.44457048177719116
2.2414700984954834,2.679516315460205,-1.5302951335906982,-0.0657513439655304,0.3775150775909424,-0.30026715993881226
2.5020949840545654,2.6251869201660156,-1.6827499866485596,-0.13643741607666016,0.39559733867645264,-0.23967576026916504
2.4003748893737793,2.9644904136657715,-1.389547348022461,-0.06794309616088867,0.514559268951416,-0.04287451505661011
2.266709804534912,3.0852127075195312,-0.8567370176315308,0.09109453856945038,0.5615609288215637,0.13012397289276123
2.144712209701538,2.8960375785827637,-0.4766669273376465,0.046502649784088135,0.5187312364578247,0.21914738416671753
2.1009302139282227,2.134140968322754,-0.31819242238998413,-0.04136153310537338,0.424224853515625,0.3839139938354492
2.3355712890625,1.071109652519226,-0.3714297115802765,-0.09331077337265015,0.3415304720401764,0.434268057346344
2.3049709796905518,0.6284076571464539,-0.36292701959609985,-0.09285545349121094,0.3423433005809784,0.3877078890800476
1.400104284286499,1.0008033514022827,-0.1946375072002411,-0.026433899998664856,0.3403005599975586,0.4731985926628113
0.6064748167991638,1.717459797859192,-0.11623509973287582,-0.01414642482995987,0.23974362015724182,0.5127969980239868
0.7095652222633362,1.5702918767929077,-0.3101891279220581,-0.20597167313098907,0.19568026065826416,0.24484539031982422
1.1302111148834229,0.7741504907608032,-0.2539121210575104,-0.1150837391614914,0.2048683762550354,0.11794376373291016
1.2276066541671753,-0.06706276535987854,0.08055105805397034,0.011177681386470795,0.22866833209991455,0.22080129384994507
1.044319987297058,-0.32984116673469543,0.3521759510040283,0.05495662987232208,0.22134536504745483,0.2927675247192383
0.7884399890899658,-0.0551595464348793,0.3619057536125183,0.0006110966205596924,0.17568117380142212,0.20761024951934814
0.37020471692085266,0.3946534991264343,0.18409095704555511,-0.0846569687128067,0.1106606125831604,0.17216426134109497
-0.06927801668643951,0.5878474712371826,0.09518006443977356,-0.06250947713851929,0.05422335863113403,0.21913743019104004
-0.3430081009864807,0.3467138707637787,0.15366080403327942,0.007180340588092804,0.04643005132675171,0.23581689596176147
-0.3513457477092743,-0.1739720106124878,0.3072899281978607,0.04516252875328064,0.07342863082885742,0.17050182819366455
-0.1940135359764099,-0.30724576115608215,0.4163391590118408,0.025820337235927582,0.09520840644836426,-0.0008642077445983887
0.08539516478776932,-0.0800601914525032,0.5455960035324097,-0.007002122700214386,0.14878302812576294,-0.14978647232055664
0.47661641240119934,0.19086644053459167,0.7548105716705322,0.03442360460758209,0.18496590852737427,-0.17184770107269287
0.5943166017532349,0.5004750490188599,0.7807334661483765,0.04459467530250549,0.14403057098388672,-0.09000122547149658
0.5022902488708496,0.6640439629554749,0.6826601624488831,0.029326587915420532,0.01762479543685913,0.04291623830795288
0.3482257127761841,0.5626023411750793,0.6488659977912903,0.09000346064567566,-0.08383423089981079,0.13746464252471924
0.2741936147212982,0.1955542266368866,0.8136853575706482,0.20906135439872742,-0.11747735738754272,0.15924692153930664
0.28601381182670593,-0.2359020709991455,0.9768075942993164,0.2612469792366028,-0.17486751079559326,0.07257622480392456
0.34112346172332764,-0.4608582854270935,1.0114331245422363,0.20400086045265198,-0.2546176314353943,-0.05898100137710571
0.49053946137428284,-0.42468464374542236,0.9904375076293945,0.13311439752578735,-0.24374788999557495,-0.20423775911331177
0.7879183292388916,-0.07287828624248505,0.9932029247283936,0.08815469592809677,-0.162958562374115,-0.3514469265937805
0.9479880332946777,0.48989495635032654,1.0165069103240967,0.061149682849645615,-0.08575063943862915,-0.3565543293952942
1.0291922092437744,0.7536699175834656,0.9655550122261047,0.05452395975589752,-0.08246451616287231,-0.2810543179512024
1.1037802696228027,0.6905000805854797,0.935062825679779,0.07745763659477234,-0.07086443901062012,-0.1830674409866333
1.2498362064361572,0.5887558460235596,0.9576430320739746,0.12272065132856369,-0.01424187421798706,-0.14707648754119873
1.4854347705841064,0.6892355680465698,1.04372239112854,0.14035828411579132,0.07603698968887329,-0.18948817253112793
1.6050432920455933,0.8966434001922607,1.1257696151733398,0.15185537934303284,0.12644189596176147,-0.1742478609085083
1.5284656286239624,1.0686817169189453,1.1415315866470337,0.16647320985794067,0.1042708158493042,-0.10194957256317139
1.4227970838546753,1.1716878414154053,1.1565114259719849,0.14502757787704468,0.12650138139724731,-0.0409509539604187
1.3848727941513062,1.148207664489746,1.1900452375411987,0.14511652290821075,0.16566944122314453,0.012321054935455322
1.3368228673934937,1.0168460607528687,1.238911747932434,0.14682471752166748,0.18530601263046265,0.07816886901855469
1.0677520036697388,0.8702453374862671,1.2587729692459106,0.1291469782590866,0.1772097945213318,0.1864454746246338
0.7365237474441528,0.8867793083190918,1.3133031129837036,0.15308821201324463,0.09332478046417236,0.22643637657165527
0.43771737813949585,0.9900458455085754,1.098746418952942,0.0499374158680439,0.035472989082336426,0.1968650221824646
0.2033846378326416,1.1468309164047241,0.8633638620376587,0.03492353856563568,-0.04828554391860962,0.14809590578079224
-0.05164313316345215,1.3333662748336792,0.7225730419158936,0.08179140836000443,-0.07221078872680664,0.13418960571289062
-0.20756161212921143,1.349673867225647,0.6708618998527527,0.17723017930984497,-0.08558672666549683,0.12412631511688232
-0.24228079617023468,1.1709150075912476,0.824499785900116,0.35268130898475647,-0.12496799230575562,0.05574774742126465
-0.08941161632537842,0.6247382164001465,0.9811661243438721,0.3459184765815735,-0.06920015811920166,0.09250015020370483
0.39643675088882446,-0.00654022628441453,1.1406028270721436,0.30254167318344116,0.0018946528434753418,0.04197800159454346
0.3160647749900818,-0.4549863934516907,0.8452897667884827,0.164194718003273,0.0002541542053222656,0.09400045871734619
-0.5856508612632751,-0.5436502695083618,0.1388934999704361,-0.08566632866859436,0.006834566593170166,0.28620386123657227
-1.443623423576355,-0.3591857850551605,-0.32868802547454834,-0.13503491878509521,0.07802826166152954,0.2860737442970276
-1.5283890962600708,-0.09215223789215088,-0.25972217321395874,-0.016130365431308746,0.31326764822006226,0.09808027744293213
-1.6737141609191895,-0.20575106143951416,-0.26453685760498047,-0.06143192946910858,0.5141366124153137,0.0107651948928833
-2.1321725845336914,-0.29762741923332214,-0.3735530972480774,-0.06756778061389923,0.5455322861671448,0.05291098356246948
-2.1952643394470215,-0.16611866652965546,-0.40359368920326233,-0.0804360955953598,0.5893226265907288,-0.0976606011390686
-1.564782738685608,0.05647650361061096,-0.25218042731285095,-0.06748635321855545,0.6562584638595581,-0.3313944935798645
-0.8092349171638489,0.06865762919187546,0.1501084864139557,0.0009700283408164978,0.6763314008712769,-0.3997807502746582
-0.36855238676071167,-0.23055467009544373,0.5428609251976013,0.07221633940935135,0.6453514695167542,-0.25415903329849243
-0.26532864570617676,-0.5308377742767334,0.6314933896064758,0.014335408806800842,0.573990523815155,-0.11304521560668945
-0.25850680470466614,-0.5189172625541687,0.5698539018630981,-0.005063176155090332,0.4876188039779663,-0.0887066125869751
-0.21655884385108948,-0.023590028285980225,0.7080214023590088,-0.0006886422634124756,0.4639005661010742,-0.14194661378860474
0.09955588728189468,0.44958919286727905,0.8849816918373108,0.03237426280975342,0.4600905179977417,-0.20169639587402344
0.5042611956596375,0.7015814781188965,0.9797850847244263,0.03237892687320709,0.4130213260650635,-0.17066669464111328
0.7246409058570862,0.7056944370269775,0.9699795246124268,0.040776193141937256,0.37439411878585815,-0.022712528705596924
0.6452072262763977,0.5822637677192688,0.9287285804748535,0.10029327869415283,0.3241349458694458,0.1528836488723755
0.4103492498397827,0.4952114522457123,0.8259426355361938,0.12950800359249115,0.276811420917511,0.29703670740127563
0.2563941180706024,0.5807628631591797,0.8357800245285034,0.10597604513168335,0.27850812673568726,0.2950870990753174
0.24254611134529114,0.652103841304779,0.907035768032074,0.1181420236825943,0.3126513957977295,0.284704327583313
0.41881752014160156,0.7395915985107422,0.8940699696540833,0.07174769043922424,0.33035993576049805,0.2424393892288208
0.5421705842018127,0.6983540058135986,0.9255369901657104,0.07720568776130676,0.33528733253479004,0.275065541267395
0.5101077556610107,0.3823172450065613,0.896423876285553,0.11969360709190369,0.29556167125701904,0.3986639380455017
0.3124963343143463,0.003688759170472622,0.8361089825630188,0.09552393853664398,0.29424816370010376,0.48471683263778687
-0.05672889202833176,-0.1418333500623703,0.7207185626029968,0.0870734453201294,0.3334040641784668,0.5144263505935669
-0.31765392422676086,0.19455654919147491,0.42819371819496155,-0.03868681192398071,0.34963566064834595,0.3738011121749878
-0.48883894085884094,0.5466619729995728,0.3790726363658905,-0.06579859554767609,0.37001270055770874,0.24397283792495728
-0.44076135754585266,0.36051422357559204,0.5221800208091736,0.05321325361728668,0.3059505820274353,0.21831876039505005
-0.16222693026065826,-0.05177055671811104,0.6792934536933899,0.04199835658073425,0.25945359468460083,0.15577220916748047
-0.08618861436843872,-0.2719109058380127,0.6210448145866394,-0.06628485023975372,0.27153676748275757,0.1492050290107727
-0.405356764793396,-0.025117112323641777,0.3137218654155731,-0.17696236073970795,0.22895503044128418,0.2264142632484436
-0.9638426303863525,0.348258912563324,0.18178050220012665,-0.18866342306137085,0.22664284706115723,0.27877748012542725
-1.122328281402588,0.39190220832824707,0.26606613397598267,-0.08047616481781006,0.21645504236221313,0.19905978441238403
-0.845073401927948,0.0741097629070282,0.4692000448703766,-0.055714696645736694,0.25079286098480225,-0.0021730661392211914
-0.632307767868042,-0.2526073157787323,0.6263381242752075,-0.07348524034023285,0.2517924904823303,-0.062071025371551514
-0.812450110912323,-0.3411666750907898,0.7157613039016724,-0.1269904375076294,0.21633964776992798,0.007783472537994385
-1.133833646774292,-0.2910628020763397,0.7195460200309753,-0.15643084049224854,0.12236756086349487,0.023310303688049316
-1.2335658073425293,-0.39261341094970703,0.8356276750564575,-0.16639190912246704,0.05203920602798462,-0.0979771614074707
-1.0446460247039795,-0.6605825424194336,1.1018775701522827,-0.12577658891677856,0.03593730926513672,-0.2593998908996582
-0.7591068148612976,-0.7232163548469543,1.2067337036132812,-0.19231033325195312,-0.05273595452308655,-0.447513222694397
-0.7449613809585571,-0.5707564949989319,1.1173372268676758,-0.2755342125892639,-0.1750820279121399,-0.5102956891059875
-0.8613358736038208,-0.3276152014732361,0.900555431842804,-0.3594857156276703,-0.2847912311553955,-0.5270562767982483
-0.7983731627464294,-0.26014748215675354,0.7092595100402832,-0.40133604407310486,-0.370682954788208,-0.6236702799797058
-0.5876286625862122,-0.4011598229408264,0.6752060651779175,-0.3713807761669159,-0.4053499698638916,-0.7095498442649841
-0.48273351788520813,-0.4858260452747345,0.5372045040130615,-0.39069104194641113,-0.41501596570014954,-0.7384101748466492
-0.5977857708930969,-0.3435203731060028,0.33749598264694214,-0.4129214584827423,-0.4063597321510315,-0.724861204624176
-0.6824138164520264,-0.11543398350477219,0.2189403921365738,-0.40159744024276733,-0.37290799617767334,-0.728518545627594
-0.5556963682174683,-0.10957012325525284,0.2422085553407669,-0.36735373735427856,-0.3310798704624176,-0.8233374357223511
-0.2897108495235443,-0.09370043873786926,0.2966320812702179,-0.33727312088012695,-0.3307763338088989,-0.8972617387771606
-0.0172404982149601,0.00972684845328331,0.387199342250824,-0.34558695554733276,-0.32480573654174805,-0.9568874835968018
0.20121563971042633,0.09158105403184891,0.46480005979537964,-0.3354073166847229,-0.3293607234954834,-0.9062530994415283
0.43311282992362976,0.07304444909095764,0.4638579785823822,-0.33412259817123413,-0.3557603657245636,-0.8610981702804565
0.5183615684509277,0.0676860436797142,0.32521170377731323,-0.37816184759140015,-0.38377612829208374,-0.7850755453109741
0.5254055261611938,0.11782258749008179,0.23839296400547028,-0.3887416124343872,-0.38806623220443726,-0.7013062834739685
0.6633085608482361,0.16208107769489288,0.21416057646274567,-0.3503287732601166,-0.3367752432823181,-0.6706981658935547
0.9169729948043823,0.13125728070735931,0.1838400810956955,-0.3338427245616913,-0.2825450599193573,-0.6573486328125
1.0412858724594116,0.013979229144752026,0.16986285150051117,-0.2807297110557556,-0.23332756757736206,-0.5529426336288452
1.0419257879257202,0.02662688121199608,0.08534634113311768,-0.25780099630355835,-0.20930954813957214,-0.43918609619140625
1.0113723278045654,0.11108808219432831,-0.01278646383434534,-0.2671694755554199,-0.16886836290359497,-0.3787332773208618
0.9832327961921692,0.02488434500992298,-0.07486402243375778,-0.22244560718536377,-0.14528301358222961,-0.2932329773902893
1.0018203258514404,-0.08327991515398026,-0.11533273756504059,-0.19407227635383606,-0.09711438417434692,-0.24916982650756836
1.0327074527740479,-0.17705269157886505,-0.0745764821767807,-0.15859133005142212,-0.03856566548347473,-0.22142857313156128
1.139648675918579,-0.21411961317062378,-0.009817078709602356,-0.11322468519210815,-0.0022372007369995117,-0.2103334665298462
1.2624857425689697,-0.21981918811798096,0.03892246633768082,-0.09152054786682129,0.01590055227279663,-0.1911005973815918
1.3368784189224243,-0.20286895334720612,-0.034547336399555206,-0.09623003005981445,0.013723313808441162,-0.13770931959152222
1.2727346420288086,-0.1052735298871994,-0.12325552105903625,-0.07707768678665161,0.01558011770248413,-0.060446977615356445
1.12006413936615,-0.015010098926723003,-0.21257171034812927,-0.031702637672424316,0.01109933853149414,0.025767087936401367
0.9843634963035583,0.03678605705499649,-0.23789049685001373,0.010476768016815186,0.014217376708984375,0.06639307737350464
0.9361371397972107,-0.08024801313877106,-0.2796919345855713,0.04899114370346069,0.029585540294647217,0.08220237493515015
0.9309917092323303,-0.17088623344898224,-0.40369516611099243,0.04419755935668945,0.05145430564880371,0.07987570762634277
0.8347563147544861,-0.10367091745138168,-0.5183937549591064,0.04865747690200806,0.08172625303268433,0.08484596014022827
0.712286114692688,-0.026613591238856316,-0.5807561874389648,0.09106791019439697,0.11908280849456787,0.11568909883499146
0.755276083946228,-1.4172401279211044e-06,-0.5772490501403809,0.12220427393913269,0.15224844217300415,0.09098678827285767
0.9534526467323303,-0.11831532418727875,-0.5207399725914001,0.1583884060382843,0.19419533014297485,0.05377602577209473
1.1641600131988525,-0.242445707321167,-0.5319209694862366,0.14808326959609985,0.2465844750404358,0.05102419853210449
1.2516496181488037,-0.2881154417991638,-0.5711715221405029,0.11118388175964355,0.3019290566444397,0.0762978196144104
1.195464015007019,-0.21723206341266632,-0.6582340002059937,0.11607587337493896,0.35859620571136475,0.12131214141845703
1.1016944646835327,-0.09585536271333694,-0.7388988733291626,0.1033327579498291,0.40784525871276855,0.14299142360687256
1.059104084968567,-0.014142032712697983,-0.7937126159667969,0.11343225836753845,0.45960545539855957,0.1418222188949585
1.0566680431365967,0.08672042936086655,-0.9095574617385864,0.10541427135467529,0.5082072615623474,0.1404152512550354
0.9934759140014648,0.29271557927131653,-1.034117579460144,0.08520510792732239,0.5631681680679321,0.16260498762130737
0.8330807089805603,0.5466126203536987,-1.1445438861846924,0.1019265353679657,0.6081628799438477,0.23300385475158691
0.6263275742530823,0.829713761806488,-1.1403470039367676,0.13215067982673645,0.6370264291763306,0.2970482110977173
0.4348495304584503,1.0305672883987427,-1.0193872451782227,0.18213963508605957,0.6464359164237976,0.3577691614627838
0.2928014099597931,1.0877578258514404,-0.8423444032669067,0.22275975346565247,0.6120855212211609,0.4065331816673279
0.21790680289268494,1.0645767450332642,-0.6779451370239258,0.21432630717754364,0.5765151977539062,0.4369838237762451
0.15075066685676575,0.900958776473999,-0.5179988145828247,0.2095482498407364,0.5222570896148682,0.49103987216949463
0.06259458512067795,0.6377089023590088,-0.254751980304718,0.23557493090629578,0.5003045797348022,0.5296123623847961
-0.08414297550916672,0.3235006034374237,0.00339722353965044,0.24469532072544098,0.4746008515357971,0.5784695744514465
-0.27238190174102783,0.08558186143636703,0.24527107179164886,0.22951145470142365,0.46073079109191895,0.5897483825683594
-0.4340965449810028,-0.05708930641412735,0.43767011165618896,0.20044346153736115,0.45150989294052124,0.5613076686859131
-0.4933941066265106,-0.2132156640291214,0.602651059627533,0.1746918261051178,0.4228445887565613,0.5143330097198486
-0.48012614250183105,-0.4010770618915558,0.7255176305770874,0.13983279466629028,0.4087023138999939,0.4692341685295105
-0.44714197516441345,-0.594886064529419,0.8452112078666687,0.13611075282096863,0.37620896100997925,0.4227800965309143
-0.44466885924339294,-0.7360128164291382,0.9408324360847473,0.13881759345531464,0.3297168016433716,0.39658647775650024
-0.40850764513015747,-0.8367926478385925,0.978591799736023,0.12753474712371826,0.3159971237182617,0.34600454568862915
-0.4018908739089966,-0.8198568224906921,0.8616228103637695,0.0642310082912445,0.3236072063446045,0.29286080598831177
-0.47583186626434326,-0.5460304617881775,0.664844810962677,0.02108973264694214,0.3317904472351074,0.2567373514175415
-0.5198330879211426,-0.314926415681839,0.5103402733802795,0.009214997291564941,0.3512575030326843,0.2051735520362854
-0.5250471234321594,-0.2535352408885956,0.39533093571662903,0.028028875589370728,0.37371814250946045,0.1984594464302063
-0.6202127933502197,-0.16389130055904388,0.2753431797027588,0.04821211099624634,0.3734392523765564,0.21309590339660645
-0.7930943965911865,0.005823639687150717,0.15291815996170044,0.05917370319366455,0.38005971908569336,0.2279602289199829
-0.9558623433113098,0.17052766680717468,0.12251783162355423,0.09214174747467041,0.38887810707092285,0.2286723256111145
-0.9768214225769043,0.32154011726379395,0.1158909797668457,0.12667787075042725,0.3795812129974365,0.19556152820587158
-0.9080689549446106,0.27408698201179504,0.1661616861820221,0.12876033782958984,0.3825404644012451,0.14820009469985962
-0.9844442009925842,0.08071480691432953,0.2114047408103943,0.14148268103599548,0.36972713470458984,0.2032967209815979
-1.2404112815856934,-0.040670327842235565,0.19912365078926086,0.10447466373443604,0.34879815578460693,0.23597264289855957
-1.6112879514694214,-0.1008632481098175,0.18446926772594452,0.04743683338165283,0.3219195604324341,0.21659886837005615
-1.8401000499725342,-0.10575082153081894,0.24083472788333893,-0.0034387707710266113,0.3010164499282837,0.10328954458236694
-1.7619049549102783,-0.06475256383419037,0.5584161877632141,0.0001723170280456543,0.2969673275947571,-0.1073918342590332
-1.4727362394332886,-0.056056588888168335,0.8983548283576965,0.04669100046157837,0.23059499263763428,-0.3107343912124634
-1.3043919801712036,-0.20578865706920624,1.0699541568756104,-0.056452929973602295,0.14920473098754883,-0.37781286239624023
-1.3023203611373901,-0.5764264464378357,1.1985620260238647,-0.11788535118103027,0.06009179353713989,-0.32689744234085083
-1.2917125225067139,-1.0347614288330078,1.2098450660705566,-0.20491471886634827,-0.03359144926071167,-0.34946274757385254
-1.321650743484497,-1.0266742706298828,0.9848536252975464,-0.3765336275100708,-0.15310558676719666,-0.48774588108062744
-1.4589502811431885,-0.5713368654251099,0.8213011622428894,-0.48108068108558655,-0.25910934805870056,-0.6301140189170837
-1.3497755527496338,-0.18458019196987152,0.8028957843780518,-0.4586367607116699,-0.29457926750183105,-0.7515988349914551
-0.9795767068862915,-0.19950763881206512,0.7554771900177002,-0.4179666042327881,-0.3057980537414551,-0.8392611742019653
-0.7697128653526306,-0.30540090799331665,0.6298397779464722,-0.39038926362991333,-0.3470483422279358,-0.7852668762207031
-0.8607853651046753,-0.25710487365722656,0.5260465741157532,-0.3614981174468994,-0.3648308515548706,-0.6746333241462708
-0.9615581631660461,-0.25299832224845886,0.40176212787628174,-0.3447134494781494,-0.37660011649131775,-0.6164486408233643
-0.8949437737464905,-0.20916186273097992,0.3336644470691681,-0.37228691577911377,-0.39068055152893066,-0.6947016716003418
-0.7101627588272095,-0.23020939528942108,0.3678054213523865,-0.371873676776886,-0.38497820496559143,-0.7749907374382019
-0.45974263548851013,-0.27827388048171997,0.39170920848846436,-0.38495010137557983,-0.4038267433643341,-0.8360973000526428
-0.20132504403591156,-0.285793274641037,0.3499164581298828,-0.4290297031402588,-0.44863390922546387,-0.8751888871192932
0.0949038416147232,-0.21917998790740967,0.23273210227489471,-0.47467637062072754,-0.4851255714893341,-0.8912850618362427
0.32583045959472656,0.057093437761068344,0.06965575367212296,-0.5143935084342957,-0.505419135093689,-0.90888512134552
0.3920062780380249,0.36383846402168274,-0.049175288528203964,-0.4835866689682007,-0.4799017608165741,-0.805697500705719
0.5366657376289368,0.4741605818271637,-0.1706700325012207,-0.43601709604263306,-0.4538785517215729,-0.726433515548706
0.6741414666175842,0.45438456535339355,-0.25729623436927795,-0.3763265609741211,-0.4068729281425476,-0.6381653547286987
0.7557162642478943,0.4034697413444519,-0.30829620361328125,-0.2974036931991577,-0.353326678276062,-0.5331151485443115
0.7816691398620605,0.35184192657470703,-0.3393309414386749,-0.24271923303604126,-0.3034200370311737,-0.4569453001022339
0.8022848963737488,0.29988160729408264,-0.3405044376850128,-0.18473362922668457,-0.25593239068984985,-0.3899587392807007
0.8829793334007263,0.28103122115135193,-0.3307936191558838,-0.1447305679321289,-0.2072104811668396,-0.3764880299568176
0.9811848998069763,0.18543319404125214,-0.3097341060638428,-0.10483315587043762,-0.16428497433662415,-0.35164159536361694
1.027784824371338,0.15421710908412933,-0.27103227376937866,-0.06653457880020142,-0.1235136091709137,-0.30841755867004395
1.0810130834579468,0.25467461347579956,-0.2835618853569031,-0.054791778326034546,-0.07857447862625122,-0.29366135597229004
1.1211621761322021,0.3818611204624176,-0.28967058658599854,-0.03855457901954651,-0.0541195273399353,-0.25814008712768555
1.1190953254699707,0.5544264316558838,-0.2738126814365387,0.01691192388534546,-0.02404305338859558,-0.19153326749801636
1.1198804378509521,0.6325231194496155,-0.2502957582473755,0.051289886236190796,-0.008205324411392212,-0.13251960277557373
1.1568297147750854,0.6047510504722595,-0.24274936318397522,0.08269470930099487,0.004014253616333008,-0.07296669483184814
1.179394245147705,0.5470668077468872,-0.272170752286911,0.09678566455841064,0.015967607498168945,-0.03502780199050903
1.24649977684021,0.5928033590316772,-0.3004879355430603,0.11595767736434937,0.003040790557861328,-0.010712981224060059
1.32179594039917,0.6503881812095642,-0.2521136999130249,0.1600918173789978,0.0025728344917297363,-0.004847168922424316
1.2817327976226807,0.5110083222389221,-0.26213338971138,0.1818399727344513,0.0014977455139160156,0.06725150346755981
1.1144542694091797,0.26359114050865173,-0.41975152492523193,0.1795247495174408,-0.03909707069396973,0.11865401268005371
1.0178039073944092,0.14845353364944458,-0.5876537561416626,0.1590174436569214,-0.03078758716583252,0.07241499423980713
1.0964351892471313,0.12616951763629913,-0.7092047333717346,0.156428724527359,0.04182898998260498,-0.06435143947601318
1.3167284727096558,0.24667996168136597,-0.8433571457862854,0.1401607096195221,0.11909216642379761,-0.19973933696746826
1.5915632247924805,0.502754271030426,-1.0242290496826172,0.0973629355430603,0.22377604246139526,-0.3338174819946289
1.7304471731185913,0.7853177785873413,-1.228367567062378,0.07088589668273926,0.3177862763404846,-0.36297887563705444
1.7600762844085693,1.1030198335647583,-1.4307873249053955,0.0333380401134491,0.42990243434906006,-0.3437126874923706
1.7391875982284546,1.4469590187072754,-1.5803256034851074,0.029512852430343628,0.5428622364997864,-0.3308253288269043
1.6831523180007935,1.8119451999664307,-1.6742984056472778,0.017490997910499573,0.6524624824523926,-0.29037177562713623
1.605629563331604,2.192317008972168,-1.6917641162872314,0.015630722045898438,0.7696943283081055,-0.2318856120109558
1.4656647443771362,2.5649845600128174,-1.7365635633468628,0.003456898033618927,0.8591145873069763,-0.14176660776138306
1.1617751121520996,3.0700783729553223,-1.6894910335540771,0.01427304744720459,0.8690840601921082,-0.013813316822052002
0.8301147222518921,3.6037228107452393,-1.3492380380630493,0.13583827018737793,0.7666609883308411,0.1300528347492218
0.7827416062355042,3.7256622314453125,-0.945198118686676,0.20116716623306274,0.6852229833602905,0.21151268482208252
0.8056800365447998,3.3873684406280518,-0.5960165858268738,0.1940259486436844,0.5813127160072327,0.3215410113334656
0.53522789478302,2.8018639087677,-0.27813196182250977,0.2361443042755127,0.4846985936164856,0.47853875160217285
0.02818361669778824,2.339555025100708,-0.04682367295026779,0.2762780487537384,0.3660181164741516,0.5489323139190674
-0.3858254849910736,2.2220258712768555,0.10017231106758118,0.22018519043922424,0.30556154251098633,0.4015428423881531
-0.557522177696228,2.3409903049468994,0.38943690061569214,0.17376373708248138,0.2938389182090759,0.16108420491218567
-0.3715793490409851,2.3640220165252686,0.8740294575691223,0.17685626447200775,0.3091312646865845,-0.04664251208305359
0.07087845355272293,2.1776371002197266,1.3411918878555298,0.12829533219337463,0.3282163143157959,-0.19934707880020142
0.3953818380832672,2.0185694694519043,1.5518571138381958,0.012861579656600952,0.30914175510406494,-0.22325670719146729
0.36496701836586,2.0437052249908447,1.4596655368804932,-0.1504097580909729,0.26347559690475464,-0.16189777851104736
0.14155758917331696,2.2010343074798584,1.2283744812011719,-0.25821828842163086,0.1901121735572815,-0.12394452095031738
-0.10920906066894531,2.262455940246582,1.1496992111206055,-0.24798846244812012,0.19551515579223633,-0.12573421001434326
-0.24773003160953522,2.1371240615844727,1.189955234527588,-0.21104270219802856,0.23630952835083008,-0.16637974977493286
-0.10161886364221573,2.050398588180542,1.2570897340774536,-0.1890673190355301,0.2594480514526367,-0.3192524015903473
0.30672141909599304,2.181307554244995,1.339529037475586,-0.19859687983989716,0.26836681365966797,-0.5066312551498413
0.6619792580604553,2.445199728012085,1.5527496337890625,-0.1680556982755661,0.3023771047592163,-0.5785394906997681
0.7879239916801453,2.6314690113067627,1.6888196468353271,-0.17519839107990265,0.34786415100097656,-0.5050805807113647
0.6882178783416748,2.711998701095581,1.7498334646224976,-0.19359749555587769,0.34188413619995117,-0.39550909399986267
0.4767916202545166,2.6842732429504395,1.7493009567260742,-0.18187403678894043,0.320814847946167,-0.33466970920562744
0.2229817807674408,2.7035903930664062,1.7264080047607422,-0.14435851573944092,0.28595632314682007,-0.32483571767807007
0.1705458015203476,2.7567126750946045,1.8079524040222168,-0.11367163062095642,0.29158085584640503,-0.39289391040802
0.4059102237224579,2.571831464767456,2.0655152797698975,-0.03546387329697609,0.3372320532798767,-0.4543570280075073
0.7783235311508179,2.199944257736206,2.3622095584869385,-0.011005997657775879,0.39631688594818115,-0.43769460916519165
1.0497320890426636,1.8281277418136597,2.5256712436676025,-0.023159176111221313,0.4736945629119873,-0.353177547454834
1.0471558570861816,1.4910529851913452,2.4504637718200684,-0.07295877486467361,0.4977802634239197,-0.20688167214393616
0.8827444911003113,1.1028045415878296,2.541599988937378,-0.07301837205886841,0.5059467554092407,-0.08660745620727539
0.8595892190933228,0.8625637292861938,2.931164026260376,0.023641198873519897,0.5636190176010132,-0.08004945516586304
1.1401982307434082,0.7705201506614685,3.2537858486175537,-0.015937834978103638,0.5310642123222351,-0.18167442083358765
1.440000295639038,0.6994286179542542,3.256014108657837,-0.18233683705329895,0.4240209460258484,-0.1939239501953125
1.4388197660446167,0.8641824722290039,2.8999621868133545,-0.3464326858520508,0.30575186014175415,-0.09888356924057007
0.8828988075256348,1.413527250289917,2.2557406425476074,-0.499822735786438,0.1423134207725525,0.037654876708984375
0.045393023639917374,2.039403200149536,1.6375259160995483,-0.5379953384399414,0.011080443859100342,0.20523019134998322
-0.44601011276245117,2.361173152923584,1.221022367477417,-0.47144418954849243,-0.039850473403930664,0.25225508213043213
-0.38552919030189514,2.1796936988830566,1.0052324533462524,-0.34234797954559326,-0.03195244073867798,0.19173894822597504
-0.12488344311714172,1.7447479963302612,0.7133212685585022,-0.30214959383010864,-0.047296106815338135,0.17319726943969727
-0.18429891765117645,1.5433566570281982,0.3858434557914734,-0.30807313323020935,-0.06820553541183472,0.23830197751522064
-0.46903687715530396,1.5473406314849854,0.13223117589950562,-0.25095999240875244,-0.039523422718048096,0.3299296498298645
-0.7125754952430725,1.6088136434555054,-0.05917784571647644,-0.16713771224021912,0.0003134012222290039,0.316317081451416
-0.8613119125366211,1.6675403118133545,-0.1964811384677887,-0.10972857475280762,0.06056869029998779,0.27844902873039246
-0.8915573358535767,1.6870383024215698,-0.22733832895755768,-0.01862025260925293,0.13581633567810059,0.23419427871704102
-0.7065960764884949,1.5515249967575073,-0.16243748366832733,0.07126182317733765,0.20925122499465942,0.17906272411346436
-0.34850743412971497,1.2740631103515625,-0.09889767318964005,0.11000555753707886,0.24863678216934204,0.1340000331401825
-0.13395313918590546,1.0364285707473755,0.027874572202563286,0.15232506394386292,0.2871423363685608,0.1737341284751892
-0.15529264509677887,0.807416558265686,0.11510496586561203,0.16942167282104492,0.30834829807281494,0.25981518626213074
-0.3415588438510895,0.677168607711792,0.08875025063753128,0.13799503445625305,0.31624317169189453,0.31501638889312744
-0.49626630544662476,0.7542046904563904,0.053401391953229904,0.1180906593799591,0.3270472288131714,0.2707656919956207
-0.43280094861984253,0.7988720536231995,0.11346419155597687,0.14985889196395874,0.37637895345687866,0.20367497205734253
-0.3746373653411865,0.6474618315696716,0.13200066983699799,0.16873213648796082,0.39116978645324707,0.19767546653747559
-0.49158334732055664,0.400966614484787,0.0019857187289744616,0.1175667941570282,0.3219229578971863,0.24216502904891968
-0.7288925051689148,0.2729766070842743,-0.15452225506305695,0.0752495527267456,0.26016712188720703,0.24360722303390503
-0.8441011905670166,0.5110136866569519,-0.26589494943618774,0.030559301376342773,0.24256360530853271,0.1330893337726593
-0.8129540085792542,0.8965131640434265,-0.3261502683162689,-0.013643622398376465,0.24712783098220825,0.03397023677825928
-0.8823172450065613,0.9348660707473755,-0.2735770344734192,0.009209632873535156,0.23031723499298096,0.10564294457435608
-1.0713800191879272,0.6092595458030701,-0.17815163731575012,0.055207401514053345,0.1642661690711975,0.2432209849357605
-1.3436845541000366,0.11065223813056946,-0.1590777337551117,0.03807660937309265,0.11185050010681152,0.2769790291786194
-1.7381271123886108,-0.22230468690395355,-0.13997597992420197,0.02426201105117798,0.08058881759643555,0.23173189163208008
-2.0078320503234863,-0.20738066732883453,-0.08731061220169067,-0.005872786045074463,0.09419041872024536,0.03683745861053467
-1.8973026275634766,-0.02075938880443573,0.19424499571323395,0.016629904508590698,0.15803927183151245,-0.23227667808532715
-1.5539733171463013,0.04368697106838226,0.7709839344024658,0.1428249478340149,0.23593521118164062,-0.4203326106071472
-1.274725317955017,-0.20041534304618835,1.1771703958511353,0.24946969747543335,0.23900163173675537,-0.4254181385040283
-1.3000279664993286,-0.5085859298706055,0.8937380909919739,0.030368059873580933,0.045845866203308105,-0.40924370288848877
-1.492147445678711,-0.5931752920150757,0.7687270045280457,-0.0904705822467804,-0.08660537004470825,-0.4006350040435791
-1.2791061401367188,-0.28374525904655457,0.8161425590515137,-0.18102160096168518,-0.09719622135162354,-0.654352068901062
-1.1309747695922852,0.34877899289131165,0.8931243419647217,-0.26885122060775757,-0.1301310658454895,-0.8045846223831177
-1.3443607091903687,0.8887923359870911,0.8031712174415588,-0.39969542622566223,-0.2992629408836365,-0.7085264325141907
-1.3670687675476074,0.9362454414367676,0.5147501230239868,-0.5315612554550171,-0.4612492322921753,-0.6680824756622314
-1.2446316480636597,0.6277570128440857,0.26503390073776245,-0.5701389908790588,-0.5461989641189575,-0.6769634485244751
-1.209270715713501,0.38987788558006287,0.1225406602025032,-0.51853346824646,-0.5729424953460693,-0.6360006332397461
-1.143577218055725,0.3627409338951111,0.0016064444789662957,-0.5452871322631836,-0.5916858911514282,-0.6913266181945801
-0.9826256036758423,0.4341777563095093,-0.11749574542045593,-0.5745936036109924,-0.6113957762718201,-0.8056761026382446
-0.7582988739013672,0.46572983264923096,-0.10031744837760925,-0.5660789012908936,-0.6112850308418274,-0.8973496556282043
-0.3454858660697937,0.4021007716655731,-0.0929541140794754,-0.5595493912696838,-0.6405702829360962,-0.9647040367126465
0.05675118416547775,0.3609532117843628,-0.14411747455596924,-0.5904626250267029,-0.636658251285553,-0.9629911184310913
0.3243255317211151,0.4643493890762329,-0.19806413352489471,-0.564462423324585,-0.6062055826187134,-0.863706111907959
0.5027735233306885,0.4837310314178467,-0.2714172899723053,-0.5737613439559937,-0.576094388961792,-0.7261974811553955
0.694516122341156,0.309753954410553,-0.4635556638240814,-0.5718324780464172,-0.5635591149330139,-0.6078554391860962
0.6957575082778931,0.2643100619316101,-0.9242903590202332,-0.6429331302642822,-0.5688169598579407,-0.4842612147331238
0.5329880118370056,0.29970353841781616,-1.516149878501892,-0.6674209833145142,-0.5576163530349731,-0.33575183153152466
0.25553420186042786,0.5589590072631836,-1.951367735862732,-0.595891535282135,-0.4739725887775421,-0.22590422630310059
0.13671675324440002,0.6391727328300476,-2.244076728820801,-0.4761384129524231,-0.33057135343551636,-0.1292428970336914
0.09697902947664261,0.46633660793304443,-2.5824694633483887,-0.3753166198730469,-0.22130531072616577,-0.06678605079650879
0.008042325265705585,0.5441486835479736,-3.0277273654937744,-0.3352814018726349,-0.1438124179840088,-0.06327235698699951
-0.21772311627864838,0.9662091732025146,-3.3497962951660156,-0.3218075633049011,-0.0018122196197509766,-0.018297970294952393
-0.31724685430526733,0.9761782288551331,-3.3993358612060547,-0.2127581238746643,0.15785646438598633,0.11957377195358276
-0.20434843003749847,0.6091687679290771,-3.369123697280884,-0.10540549457073212,0.2475563883781433,0.24243003129959106
0.0384388342499733,-0.1547381579875946,-3.283620595932007,-0.025840574875473976,0.31522178649902344,0.29947930574417114
0.3441771864891052,-1.1674057245254517,-3.1346452236175537,0.07167403399944305,0.3343469500541687,0.3236619234085083
0.638251006603241,-1.7180145978927612,-2.8294105529785156,0.16562537848949432,0.4083362817764282,0.21195542812347412
0.7993650436401367,-1.595375657081604,-2.5567924976348877,0.16002655029296875,0.4405940771102905,0.11026448011398315
0.5687091946601868,-1.1946884393692017,-2.4696826934814453,0.0733971819281578,0.4051278233528137,0.1324622631072998
0.20271138846874237,-1.0011299848556519,-2.4245314598083496,0.01777546852827072,0.3716309070587158,0.1987571120262146
0.11348035931587219,-1.0520868301391602,-2.1490330696105957,0.05879039317369461,0.3860734701156616,0.2188376784324646
0.33295974135398865,-1.2689809799194336,-1.6002240180969238,0.14371082186698914,0.427146852016449,0.20449507236480713
0.7107732892036438,-1.4749789237976074,-1.0013467073440552,0.20365114510059357,0.45475834608078003,0.18468767404556274
0.9125593900680542,-0.7668360471725464,-0.9113751649856567,-0.017913401126861572,0.3632109761238098,0.08777815103530884
0.5847938656806946,0.2980620265007019,-1.0093907117843628,-0.16681917011737823,0.3463655114173889,0.14293742179870605
0.14814968407154083,0.7313880324363708,-1.0124130249023438,-0.11752159893512726,0.33120566606521606,0.24262326955795288
0.3838489353656769,0.3275672495365143,-0.670098066329956,0.09565769135951996,0.3628801107406616,0.21905583143234253
1.1046463251113892,-0.42278602719306946,-0.23533618450164795,0.20080088078975677,0.4268401861190796,0.14816594123840332
1.5985428094863892,-1.19484543800354,-0.1391991823911667,0.16822385787963867,0.3901827931404114,0.1971997618675232
1.639042615890503,-1.6571245193481445,-0.28309619426727295,0.08524244278669357,0.3127121925354004,0.3093309998512268
1.2372726202011108,-1.4799269437789917,-0.37601765990257263,0.0626550018787384,0.26148998737335205,0.3701514005661011
0.7471057772636414,-1.321359634399414,-0.26195624470710754,0.11916191875934601,0.22526389360427856,0.3692854642868042
0.4782008230686188,-1.7012444734573364,-0.11360704153776169,0.1707572638988495,0.18231946229934692,0.3298368453979492
0.40522903203964233,-2.257650375366211,0.19485583901405334,0.2029379904270172,0.13652050495147705,0.26034843921661377
0.5401944518089294,-2.642819404602051,0.7531205415725708,0.275086909532547,0.13868391513824463,0.25408273935317993
0.35692188143730164,-2.863311767578125,0.9812358021736145,0.19614142179489136,0.03544759750366211,0.2573758363723755
-0.5914976596832275,-2.0693442821502686,1.1029199361801147,0.05423016846179962,-0.0679674744606018,0.28058260679244995
-1.6127033233642578,-1.194612741470337,0.7750366926193237,-0.07200327515602112,-0.18714743852615356,0.17420178651809692
-1.688187599182129,-0.520090639591217,0.24846740067005157,-0.2868611812591553,-0.1816577911376953,-0.045568645000457764
-1.1724812984466553,-0.5195364952087402,-0.16297487914562225,-0.26938962936401367,-0.2617132067680359,-0.19082504510879517
-0.5101118087768555,-1.4302217960357666,-0.42681488394737244,-0.16275613009929657,-0.2091665267944336,-0.16965287923812866
0.12972649931907654,-2.468667984008789,-0.9267431497573853,-0.09086431562900543,-0.12311333417892456,-0.16759508848190308
0.5848649144172668,-2.729947328567505,-1.3021302223205566,-0.17593076825141907,-0.06358635425567627,-0.23187410831451416
0.8566079139709473,-2.584555149078369,-1.4107365608215332,-0.06744825839996338,-0.17836731672286987,-0.2657053470611572
0.7666480541229248,-2.6867666244506836,-1.4539934396743774,-0.12980514764785767,-0.20909392833709717,-0.2744925618171692
0.6169396042823792,-2.365612506866455,-1.7987552881240845,-0.24421173334121704,0.14390331506729126,-0.11617010831832886
0.48550593852996826,-3.055753707885742,-1.698336124420166,-0.017117083072662354,0.08941501379013062,-0.07831788063049316
0.30671584606170654,-3.86999249458313,-1.6043987274169922,0.04852283000946045,0.16866302490234375,-0.10833799839019775
0.03969486430287361,-4.253920555114746,-1.8598326444625854,-0.006577849388122559,0.16541606187820435,-0.08002066612243652
-0.22395965456962585,-4.0145344734191895,-2.653489351272583,-0.1282322108745575,0.16945409774780273,-0.09086012840270996
-0.24597421288490295,-3.4283688068389893,-3.4628734588623047,-0.22791945934295654,0.132360577583313,-0.202104389667511
0.1552235186100006,-3.5659842491149902,-3.816483974456787,-0.09696859121322632,0.1823926568031311,-0.38189399242401123
0.6950892806053162,-4.325254917144775,-3.856945514678955,-0.027345597743988037,0.36488378047943115,-0.28725478053092957
1.0907407999038696,-5.572067737579346,-4.152284145355225,-0.014975517988204956,0.40779805183410645,-0.30968374013900757
1.1165814399719238,-6.331861972808838,-4.777328014373779,-0.08516848087310791,0.3664218783378601,-0.2525368332862854
1.1192625761032104,-6.5084147453308105,-5.319873809814453,-0.12618520855903625,0.38274693489074707,-0.31873583793640137
1.2879964113235474,-6.622453212738037,-5.5933403968811035,-0.05791975557804108,0.44523096084594727,-0.35436469316482544
1.4785759449005127,-6.4901604652404785,-5.591730117797852,-0.024528488516807556,0.4502760171890259,-0.4075772762298584
1.4978541135787964,-6.439506530761719,-5.322292327880859,-0.009794885292649269,0.4442775249481201,-0.36558496952056885
1.395525336265564,-6.105209827423096,-4.922729969024658,-0.018993549048900604,0.4536295533180237,-0.2525870203971863
1.3847451210021973,-5.19678258895874,-4.227382659912109,0.1148422509431839,0.4234843850135803,-0.2589302659034729
1.445504903793335,-4.086616039276123,-3.357478618621826,0.20867249369621277,0.4129122495651245,-0.20617341995239258
1.417937159538269,-2.7935869693756104,-2.607496976852417,0.16246673464775085,0.34773749113082886,-0.11776207387447357
1.2423114776611328,-1.5402131080627441,-1.9573991298675537,0.07251676917076111,0.3548945188522339,-0.04763901233673096
0.923937201499939,-0.888541579246521,-1.3940600156784058,0.005297750234603882,0.3957277536392212,0.013229742646217346
0.45876508951187134,-0.8376396298408508,-1.042893648147583,-0.04736790060997009,0.4145798683166504,0.09086012840270996
-0.04725426435470581,-0.9154528379440308,-0.9054971933364868,-0.06703919172286987,0.4393562078475952,0.141961932182312
-0.3614702522754669,-0.8270571827888489,-0.9133880138397217,-0.14340674877166748,0.42434632778167725,0.12080825865268707
-0.42066919803619385,-0.5310259461402893,-0.8037592172622681,-0.18327894806861877,0.41203486919403076,0.08591999113559723
-0.3039766252040863,-0.32838308811187744,-0.6159319877624512,-0.12285685539245605,0.39405351877212524,0.0701330304145813
-0.13160540163516998,-0.3850550651550293,-0.49130189418792725,-0.10820695757865906,0.3353728652000427,0.10650557279586792
0.08374614268541336,-0.45368993282318115,-0.4220444858074188,-0.1032819151878357,0.3156130909919739,0.041594043374061584
0.25967422127723694,-0.49818170070648193,-0.24423649907112122,-0.12075427174568176,0.2785319685935974,0.0017483234405517578
0.3185640275478363,-0.41248583793640137,-0.047715216875076294,-0.0690222978591919,0.2210688591003418,0.00237274169921875
0.1355762779712677,-0.051336947828531265,0.08908242732286453,-0.038293153047561646,0.16388189792633057,0.08592963218688965
-0.14907516539096832,0.18220949172973633,0.13699162006378174,-0.010499000549316406,0.11024385690689087,0.14495225250720978
-0.25662142038345337,0.20027565956115723,0.16160525381565094,0.029476016759872437,0.07822960615158081,0.08229745924472809
-0.13193665444850922,0.16279931366443634,0.2798379957675934,0.03947749733924866,0.026795625686645508,-0.027698323130607605
0.09771820902824402,0.071747787296772,0.4220065772533417,0.028581082820892334,-0.012481391429901123,-0.10778188705444336
0.1164361909031868,0.08228123188018799,0.4061022996902466,0.010548681020736694,-0.06055271625518799,-0.013379529118537903
-0.001925307558849454,0.0343688428401947,0.2925819456577301,-0.044322580099105835,-0.046122848987579346,0.12439084053039551
-0.020608656108379364,-0.11247164011001587,0.1990748941898346,-0.05168265104293823,-0.011385679244995117,0.08766438066959381
0.178793266415596,-0.30586177110671997,0.0772937536239624,-0.04892998933792114,-0.018080592155456543,-0.040319234132766724
0.45045706629753113,-0.4028702974319458,0.015504113398492336,-0.010533064603805542,-0.04127907752990723,-0.17026735842227936
0.6299203634262085,-0.399873286485672,0.02792639099061489,0.03740629553794861,-0.07169163227081299,-0.19098633527755737
0.634170651435852,-0.3671919107437134,0.08377539366483688,0.07658517360687256,-0.11096179485321045,-0.14800721406936646
0.5500826239585876,-0.2832929491996765,0.16702648997306824,0.11256784200668335,-0.16116803884506226,-0.10210411250591278
0.5313613414764404,-0.1125442162156105,0.24367111921310425,0.10917463898658752,-0.18975478410720825,-0.1521378606557846
0.6572648286819458,0.042185042053461075,0.4044213593006134,0.12171787023544312,-0.24719268083572388,-0.21361231803894043
0.8227380514144897,0.09948698431253433,0.4598102569580078,0.15227404236793518,-0.3442413806915283,-0.18762606382369995
0.8636845350265503,0.025686515495181084,0.4633154273033142,0.18138974905014038,-0.43599259853363037,-0.11986058950424194
0.823632001876831,-0.012338578701019287,0.44721055030822754,0.2137991487979889,-0.49671393632888794,-0.08223623037338257
0.735086977481842,-0.017096050083637238,0.4144938886165619,0.196611225605011,-0.5629076957702637,-0.0526890754699707
0.593458890914917,-0.10890568792819977,0.3050667345523834,0.20109575986862183,-0.6085473895072937,0.016671299934387207
0.5412379503250122,-0.10415877401828766,0.27541592717170715,0.17151153087615967,-0.6624442934989929,0.04642445221543312
0.5705665946006775,-0.05330117419362068,0.32220110297203064,0.19484156370162964,-0.6714167594909668,0.04010659083724022
0.49558505415916443,-0.1470320224761963,0.22062063217163086,0.19594398140907288,-0.6984807848930359,0.1438506841659546
0.25157076120376587,-0.27227094769477844,0.08577622473239899,0.1802321970462799,-0.6766716241836548,0.2325722575187683
0.028261471539735794,-0.23735228180885315,-0.014433430507779121,0.17295867204666138,-0.6189491152763367,0.17034852504730225
-0.07005491852760315,-0.09859313815832138,-0.09173129498958588,0.1415019929409027,-0.5600012540817261,0.060412466526031494
-0.06894007325172424,-0.06482431292533875,-0.18675829470157623,0.12520623207092285,-0.47680944204330444,-0.03239941596984863
-0.011123263277113438,-0.10259106755256653,-0.2384692281484604,0.11818256974220276,-0.41069120168685913,-0.08298158645629883
0.01308353804051876,-0.14209862053394318,-0.23560164868831635,0.09513738751411438,-0.3304162621498108,-0.07281500101089478
0.026061158627271652,-0.19755160808563232,-0.232868492603302,0.07777658104896545,-0.26707780361175537,-0.058341026306152344
0.09472135454416275,-0.09925521910190582,-0.14109523594379425,0.031926751136779785,-0.1960107684135437,-0.0948987603187561
0.19931107759475708,0.040260784327983856,-0.003886702237650752,0.03329670429229736,-0.17396700382232666,-0.1272689700126648
0.33850038051605225,0.17893236875534058,0.14346849918365479,0.037190258502960205,-0.14967405796051025,-0.1479550004005432
0.4110617935657501,0.24954022467136383,0.14790916442871094,-0.03280791640281677,-0.11969423294067383,-0.08461993932723999
0.3788398802280426,0.18510007858276367,0.10816466063261032,-0.027250289916992188,-0.11372411251068115,-0.013850212097167969
0.35516172647476196,0.17402999103069305,0.02921905368566513,-0.0280514657497406,-0.08692985773086548,0.015759112313389778
0.3372114896774292,0.23072905838489532,0.037356190383434296,-0.07202723622322083,-0.02507263422012329,0.03221273422241211
0.3082801103591919,0.4803353250026703,0.19143161177635193,-0.08645156025886536,0.06539374589920044,0.03159773349761963
0.2954683303833008,0.7539111375808716,0.3180827498435974,-0.10116064548492432,0.1287335753440857,-0.015747547149658203
0.35747307538986206,0.7715310454368591,0.2806260883808136,-0.0891304612159729,0.15756821632385254,-0.06859207153320312
0.5659153461456299,0.5886638760566711,0.14310240745544434,-0.0757194459438324,0.15147322416305542,-0.10946416854858398
0.8006172776222229,0.4034093916416168,0.130237877368927,-0.06759697198867798,0.16797035932540894,-0.04724133014678955
0.8284030556678772,0.5065732002258301,0.2133145034313202,-0.09420672059059143,0.19267314672470093,0.053471796214580536
0.6334592700004578,0.7530343532562256,0.3064292371273041,-0.14991605281829834,0.20471125841140747,0.10856986045837402
0.462974488735199,0.8640173077583313,0.2310785949230194,-0.21521717309951782,0.2362791895866394,0.09860526025295258
0.43723708391189575,0.7695505619049072,0.049648236483335495,-0.20570871233940125,0.23544931411743164,0.057396650314331055
0.46932944655418396,0.6237927675247192,-0.10168379545211792,-0.14964541792869568,0.2569853663444519,0.01944410800933838
0.43205708265304565,0.552743136882782,-0.1684594452381134,-0.09706345200538635,0.2878945469856262,0.014431461691856384
0.2937963306903839,0.5012941360473633,-0.20243552327156067,-0.053420692682266235,0.3252354860305786,0.04959799349308014
0.09807001054286957,0.39622652530670166,-0.2219633311033249,-0.03210186958312988,0.3701046109199524,0.06328189373016357
-0.05779540538787842,0.3552071750164032,-0.1965748816728592,-0.024484366178512573,0.3945266604423523,0.028845548629760742
-0.1931723952293396,0.2993496060371399,-0.21752430498600006,-0.01804739236831665,0.3903921842575073,-0.056313008069992065
-0.28643521666526794,0.19555920362472534,-0.2827151119709015,-0.022969454526901245,0.3622279763221741,-0.10549567639827728
-0.2637060880661011,0.20205047726631165,-0.2511473596096039,-0.0293731689453125,0.328721284866333,-0.1696930229663849
-0.1605030745267868,0.09315191209316254,-0.2171148657798767,-0.042308300733566284,0.28687065839767456,-0.22692300379276276
-0.0643031895160675,-0.18383082747459412,-0.21305091679096222,-0.0031852126121520996,0.20162832736968994,-0.21192705631256104
0.05683452636003494,-0.1802583783864975,-0.19329851865768433,-0.005938023328781128,0.08414530754089355,-0.18660388886928558
0.10104433447122574,-0.0596720390021801,-0.10296621918678284,0.011470705270767212,-0.008915603160858154,-0.14924179017543793
0.07898250967264175,-0.07155951857566833,-0.04805032163858414,-0.00012406706809997559,-0.05294239521026611,-0.04534877836704254
0.0068556442856788635,-0.12273861467838287,-0.00272693345323205,0.004167109727859497,-0.05948019027709961,0.049108490347862244
-0.09222562611103058,-0.13874457776546478,0.029789693653583527,-0.004035353660583496,-0.040913522243499756,0.07844197750091553
-0.163736030459404,-0.21443027257919312,0.034460075199604034,-0.017080336809158325,-0.010936737060546875,0.06402705609798431
-0.14649485051631927,-0.27852514386177063,0.039538607001304626,-0.017791569232940674,0.008003056049346924,0.0003905296325683594
-0.14329519867897034,-0.38774508237838745,0.034060604870319366,0.0012041032314300537,-0.014580905437469482,-0.04844735562801361
-0.1769116371870041,-0.3889656364917755,0.06509103626012802,0.055696308612823486,-0.014346063137054443,-0.05549512803554535
-0.15580865740776062,-0.19114886224269867,0.10976990312337875,0.02194148302078247,-0.03574258089065552,-0.09709382057189941
-0.09758901596069336,-0.11844813823699951,0.14475539326667786,0.02797725796699524,-0.035050272941589355,-0.11447308957576752
-0.05851808190345764,-0.1464269608259201,0.10009767860174179,0.018414437770843506,-0.038902461528778076,-0.08561815321445465
-0.06886904686689377,-0.14668451249599457,0.04529758542776108,-0.0036115050315856934,-0.02324676513671875,-0.058762580156326294
-0.08450063318014145,-0.16235925257205963,-0.009557409211993217,-0.017896920442581177,-0.013695597648620605,-0.06513462960720062
-0.07408440113067627,-0.21635611355304718,-0.06705894321203232,-0.002222806215286255,-0.010187625885009766,-0.07098628580570221
-0.04540146887302399,-0.1509736180305481,-0.0634395107626915,-0.010409623384475708,0.0022743940353393555,-0.07282009720802307
-0.05439738184213638,-0.07124099880456924,-0.01244998350739479,0.0021560490131378174,0.02495354413986206,-0.07965826988220215
-0.09265408664941788,0.018815647810697556,0.011913906782865524,-0.015717893838882446,0.04963409900665283,-0.0685499906539917
-0.09161829203367233,-0.026250362396240234,-0.047008831053972244,-0.04863333702087402,0.07778304815292358,-0.08810555934906006
0.0017235474660992622,-0.1161249652504921,-0.13458243012428284,-0.073880136013031,0.08912485837936401,-0.11894132196903229
0.12643824517726898,-0.2174733728170395,-0.1702461540699005,-0.07209700345993042,0.0989500880241394,-0.12793876230716705
0.16815833747386932,-0.2797660827636719,-0.18646053969860077,-0.05782204866409302,0.10243499279022217,-0.10014331340789795
0.13798022270202637,-0.26616984605789185,-0.18807780742645264,-0.05456298589706421,0.10599333047866821,-0.07760117948055267
0.09487847983837128,-0.17164260149002075,-0.1367335170507431,-0.058213263750076294,0.1154748797416687,-0.06685949862003326
0.04992077872157097,-0.08838707953691483,-0.05641763284802437,-0.053876131772994995,0.13120585680007935,-0.05492185056209564
0.03541899472475052,-0.025964263826608658,-0.010640745982527733,-0.07192569971084595,0.1533576250076294,-0.055856600403785706
0.011471804231405258,-0.022973421961069107,0.009928827174007893,-0.0879703164100647,0.17341357469558716,-0.029435500502586365
-0.033224500715732574,-0.0534556619822979,0.012411385774612427,-0.09326392412185669,0.19494646787643433,-0.0035736560821533203
-0.056896112859249115,0.024798043072223663,0.024065380915999413,-0.13748320937156677,0.21989458799362183,-0.01309514045715332
-0.04104180634021759,0.22586187720298767,0.07036162167787552,-0.17374423146247864,0.2549077272415161,-0.06078769266605377
-0.005948255304247141,0.51364666223526,0.14904451370239258,-0.2112531065940857,0.28830456733703613,-0.0946211963891983
-0.07558935135602951,0.8340569138526917,0.18174688518047333,-0.25476837158203125,0.29978805780410767,-0.05334734916687012
-0.3162204325199127,1.0133411884307861,0.05962907522916794,-0.2978789210319519,0.3015906810760498,0.06511390209197998
-0.5685829520225525,0.6633545756340027,-0.17412976920604706,-0.3099854290485382,0.32732975482940674,0.126990407705307
-0.5740309357643127,-0.010711172595620155,-0.4140797555446625,-0.2746797502040863,0.3833804726600647,0.07836461067199707
-0.305062860250473,-0.31233811378479004,-0.6050691604614258,-0.3086720407009125,0.3893548250198364,0.01707327365875244
-0.015518104657530785,-0.29596367478370667,-0.5021660327911377,-0.22699791193008423,0.4051681160926819,-0.01785874366760254
0.11959022283554077,-0.17166349291801453,-0.2220912128686905,-0.13666626811027527,0.4132748246192932,-0.0012873485684394836
0.041917040944099426,0.05463239550590515,0.11413098126649857,-0.07366943359375,0.38779181241989136,0.01746082305908203
-0.16198493540287018,0.10414056479930878,0.3609035313129425,-0.027682721614837646,0.35785967111587524,-0.041769951581954956
-0.2244635671377182,0.3088148236274719,0.5407137274742126,-0.008901923894882202,0.31315070390701294,-0.15901780128479004
-0.02101084031164646,0.5628029108047485,0.7457275986671448,-0.013552814722061157,0.28845053911209106,-0.2677725553512573
0.22420351207256317,0.6024165153503418,0.868012547492981,-0.046493709087371826,0.2734217047691345,-0.24575911462306976
0.2822863757610321,0.5168620944023132,0.8979999423027039,-0.04282724857330322,0.23269057273864746,-0.14505517482757568
0.22417998313903809,0.633009135723114,0.9166850447654724,-0.058303236961364746,0.17262428998947144,-0.13807833194732666
0.38769111037254333,0.7880054712295532,0.8468532562255859,-0.08511161804199219,0.08616751432418823,-0.22785162925720215
0.6702674627304077,0.5413861870765686,0.5927557349205017,-0.1165701150894165,-0.05514246225357056,-0.13589908182621002
0.7594273686408997,0.26266908645629883,0.32375508546829224,-0.02529996633529663,-0.17506706714630127,0.1348576694726944
0.7121379375457764,0.17479455471038818,0.3422050476074219,0.03793129324913025,-0.22003865242004395,0.32156825065612793
0.6409413814544678,0.3464083671569824,0.5026729106903076,0.141139417886734,-0.3222556710243225,0.28854629397392273
0.6596434712409973,0.365777850151062,0.7519290447235107,0.24559640884399414,-0.40834635496139526,0.1337214708328247
0.7385962009429932,0.5073729157447815,0.8204119205474854,0.28226733207702637,-0.5776187777519226,0.07246172428131104
0.7092570066452026,0.43500763177871704,0.7135692238807678,0.2250206619501114,-0.6890280246734619,0.20664966106414795
0.5248688459396362,0.13379915058612823,0.5140138864517212,0.14130638539791107,-0.7010916471481323,0.3578542172908783
0.3405132293701172,-0.06603141874074936,0.28423330187797546,0.0929153561592102,-0.7046090960502625,0.38809242844581604
0.28427740931510925,-0.05970757082104683,0.15536263585090637,0.06989732384681702,-0.6878198385238647,0.24869519472122192
0.27501165866851807,0.054140716791152954,0.07469960302114487,0.09446896612644196,-0.6556409597396851,0.12254640460014343
0.2018182873725891,0.07694100588560104,0.016361385583877563,0.11764489114284515,-0.6602259278297424,0.09972426295280457
0.19757118821144104,-0.0036031268537044525,-0.06388349831104279,0.1358632743358612,-0.6570829153060913,0.08748799562454224
0.25962695479393005,0.013738321140408516,-0.01765337958931923,0.10258513689041138,-0.6536524295806885,0.0958096981048584
0.25681638717651367,-0.05366133525967598,0.05169384926557541,0.09881632030010223,-0.658122181892395,0.1809089481830597
0.2138056606054306,0.0579325333237648,0.14195111393928528,0.040993496775627136,-0.6725344061851501,0.2325083315372467
0.02124287374317646,0.10367844998836517,0.09084905683994293,-0.018921837210655212,-0.6568822264671326,0.2824055254459381
-0.1779664009809494,0.03675026074051857,-0.07773718982934952,-0.05675561726093292,-0.6191462874412537,0.3215560019016266
-0.2516099512577057,-0.045003555715084076,-0.22011594474315643,-0.06326527893543243,-0.5603041052818298,0.2772786319255829
-0.2775995433330536,-0.1774705946445465,-0.32377463579177856,-0.06273935735225677,-0.49174052476882935,0.2358618676662445
-0.287605881690979,-0.2420705258846283,-0.3566046953201294,-0.015496328473091125,-0.43950343132019043,0.17186257243156433
-0.301361083984375,-0.21340519189834595,-0.32546746730804443,0.02670322358608246,-0.3880482316017151,0.12218359112739563
-0.3125482201576233,-0.2568056583404541,-0.28699225187301636,0.07642334699630737,-0.3376415967941284,0.10514459013938904
-0.283026784658432,-0.24817714095115662,-0.2394494265317917,0.09270027279853821,-0.29886746406555176,0.10725840926170349
-0.2724822759628296,-0.2704958915710449,-0.1931854486465454,0.08708655834197998,-0.23046499490737915,0.09105482697486877
-0.27803274989128113,-0.3454728126525879,-0.16798919439315796,0.07020606100559235,-0.17101919651031494,0.07181122899055481
-0.2758690118789673,-0.34069788455963135,-0.1585070937871933,0.04228292405605316,-0.12911325693130493,0.05011048913002014
-0.25749486684799194,-0.3565714359283447,-0.19378656148910522,0.020477741956710815,-0.11158359050750732,0.02429184317588806
-0.19842451810836792,-0.3886485695838928,-0.22996553778648376,-0.00210726261138916,-0.0849037766456604,0.0027812421321868896
-0.17331691086292267,-0.3958844244480133,-0.19679658114910126,0.008779197931289673,-0.054273366928100586,-0.020231306552886963
-0.19098177552223206,-0.35848990082740784,-0.18076743185520172,-0.0038082897663116455,-0.017823994159698486,-0.020068079233169556
-0.2539977431297302,-0.29644620418548584,-0.1893339455127716,-0.025323107838630676,0.030700385570526123,-0.013727903366088867
-0.27784863114356995,-0.2702641487121582,-0.21822315454483032,-0.039336130023002625,0.08580708503723145,-0.04016640782356262
-0.2531604468822479,-0.3412109911441803,-0.2686006426811218,-0.05393795669078827,0.14309769868850708,-0.06402528285980225
-0.24152210354804993,-0.37394583225250244,-0.32816532254219055,-0.09398722648620605,0.19534265995025635,-0.06418132781982422
-0.3061089515686035,-0.3762488067150116,-0.38470569252967834,-0.11719349026679993,0.23297303915023804,-0.045259326696395874
-0.37731674313545227,-0.40143081545829773,-0.4558279514312744,-0.12749069929122925,0.2715786099433899,-0.03489556908607483
-0.4180876910686493,-0.3193228244781494,-0.48903337121009827,-0.169203519821167,0.31326955556869507,0.0034549981355667114
-0.4727085530757904,-0.22028766572475433,-0.47306933999061584,-0.1651419699192047,0.35183441638946533,0.009583607316017151
-0.5227802395820618,-0.08971003443002701,-0.43850499391555786,-0.15967503190040588,0.3761945962905884,0.016169875860214233
-0.5825045704841614,-0.21282871067523956,-0.4931797981262207,-0.16023635864257812,0.38713520765304565,0.012752160429954529
-0.6092269420623779,-0.3536745011806488,-0.568518877029419,-0.16090470552444458,0.3819379210472107,0.062202319502830505
-0.590248703956604,-0.42835545539855957,-0.5599871873855591,-0.17873117327690125,0.40713655948638916,0.06742477416992188
-0.5222070813179016,-0.4268330931663513,-0.5072510838508606,-0.1791301667690277,0.41854941844940186,0.024741165339946747
-0.5097895264625549,-0.4249568283557892,-0.46042776107788086,-0.19530367851257324,0.4348710775375366,0.040222883224487305
-0.5187737941741943,-0.5328388214111328,-0.45508459210395813,-0.17954185605049133,0.43961429595947266,0.0072106048464775085
-0.4572748839855194,-0.6637705564498901,-0.4708731472492218,-0.16365590691566467,0.4219541549682617,-0.011193521320819855
-0.3358806073665619,-0.8506780862808228,-0.5107659101486206,-0.12358781695365906,0.3774886131286621,-0.05910111218690872
-0.08714601397514343,-0.967589795589447,-0.5068420171737671,-0.06976115703582764,0.31813621520996094,-0.14333653450012207
0.189553901553154,-1.0211679935455322,-0.37511277198791504,-0.01969081163406372,0.25494956970214844,-0.15924787521362305
0.3076053261756897,-0.8905967473983765,-0.1309438794851303,0.03920355439186096,0.190643310546875,-0.09184467792510986
0.19499972462654114,-0.5787632465362549,0.13729815185070038,0.06568723917007446,0.12152886390686035,-0.0038579702377319336
-0.0566367581486702,-0.2620328366756439,0.3310037851333618,0.050804078578948975,0.08230870962142944,0.05681682005524635
-0.18327759206295013,-0.154131218791008,0.30217620730400085,-0.007047176361083984,0.04590672254562378,0.029376862570643425
-0.14043432474136353,-0.3710983097553253,0.12312279641628265,-0.05737003684043884,0.010499835014343262,-0.017822744324803352
-0.00038179848343133926,-0.6766811609268188,-0.12214874476194382,-0.06592223048210144,-0.008858203887939453,-0.049600958824157715
0.05751735344529152,-0.7926364541053772,-0.21522998809814453,-0.03151595592498779,-0.027291417121887207,-0.04059767723083496
0.022731661796569824,-0.6744377613067627,-0.16309203207492828,0.0017491579055786133,-0.028765439987182617,-0.02837836742401123
-0.0440482497215271,-0.4793010950088501,-0.1007549986243248,0.016824722290039062,-0.029714584350585938,-0.04056018590927124
-0.07383554428815842,-0.32129040360450745,-0.07989247888326645,0.003595411777496338,-0.027908682823181152,-0.07201993465423584
0.029144659638404846,-0.19666056334972382,-0.047310687601566315,-0.009558498859405518,-0.016832590103149414,-0.141734778881073
0.18178358674049377,-0.2370203733444214,-0.07585102319717407,-0.010544627904891968,-0.002021968364715576,-0.17536485195159912
0.2622810900211334,-0.30094000697135925,-0.15679404139518738,-0.04140755534172058,0.014317572116851807,-0.14281123876571655
0.1967640370130539,-0.26418471336364746,-0.15870550274848938,-0.0707889199256897,0.039184391498565674,-0.09298920631408691
0.11043073236942291,-0.1085638478398323,-0.08716534823179245,-0.06778395175933838,0.05868023633956909,-0.05503147840499878
0.0840463936328888,0.12435862421989441,0.08359605073928833,-0.06207874417304993,0.06725353002548218,-0.0672450065612793
0.10592785477638245,0.38713258504867554,0.2915853261947632,-0.05211719870567322,0.08524221181869507,-0.10155332088470459
0.09620483964681625,0.6359552145004272,0.5028797388076782,-0.054488301277160645,0.10156655311584473,-0.11446690559387207
0.025018436834216118,0.8994099497795105,0.6520043015480042,-0.08093950152397156,0.1123538613319397,-0.09719681739807129
-0.05155250430107117,1.1895536184310913,0.7524057030677795,-0.11081358790397644,0.12550389766693115,-0.11221873760223389
-0.15838922560214996,1.6766383647918701,0.8789474368095398,-0.12027421593666077,0.13996928930282593,-0.14132845401763916
-0.43830302357673645,2.1399238109588623,1.0934619903564453,-0.11779019236564636,0.16767996549606323,-0.1266707181930542
-0.654782772064209,2.083496332168579,1.4752569198608398,-0.011756420135498047,0.24709981679916382,-0.1597224473953247
-0.40281957387924194,1.790926218032837,1.655571699142456,0.02652546763420105,0.2876983880996704,-0.24110734462738037
0.01583084464073181,1.8015161752700806,1.6532617807388306,-0.07344117760658264,0.26981544494628906,-0.2753950357437134
0.1838303655385971,1.8100978136062622,1.6766831874847412,-0.10305435955524445,0.3007187843322754,-0.21481084823608398
0.14344647526741028,1.756528615951538,1.5120253562927246,-0.07691778242588043,0.3058941960334778,-0.11685431748628616
0.015589329414069653,1.5613397359848022,1.2625184059143066,-0.11597064137458801,0.27164798974990845,-0.036930449306964874
-0.07932677119970322,1.2440601587295532,1.167336344718933,-0.035030074417591095,0.28523576259613037,-0.009501352906227112
-0.02934964746236801,1.194726824760437,1.210057258605957,0.0011160001158714294,0.264137864112854,-0.0434570387005806
-0.04412325471639633,1.2924085855484009,1.346099615097046,0.0521964505314827,0.2676618695259094,-0.061355121433734894
-0.11644312739372253,1.4172708988189697,1.2967168092727661,0.017695602029561996,0.26492226123809814,-0.04132545739412308
-0.2085738629102707,1.3772701025009155,1.0539050102233887,-0.03200136497616768,0.22747200727462769,0.010457880795001984
-0.2569825351238251,0.9921438097953796,0.7580301761627197,-0.043503597378730774,0.18003398180007935,0.08721279352903366
-0.16956724226474762,0.44067731499671936,0.5137180685997009,-0.012936437502503395,0.1672540307044983,0.12150716036558151
0.008048554882407188,0.24651512503623962,0.3613632619380951,-0.03855631500482559,0.1374986171722412,0.14232812821865082
0.15005342662334442,0.39036932587623596,0.45547136664390564,-0.040343038737773895,0.16417759656906128,0.14305269718170166
0.17352816462516785,0.6943166255950928,0.7004373669624329,-0.002224259078502655,0.18406277894973755,0.0927879810333252
0.03784996271133423,0.9561470746994019,0.873100757598877,-0.0032039135694503784,0.176594078540802,0.05149555951356888
-0.1203555315732956,0.8683441877365112,0.8145878911018372,-0.010701596736907959,0.19122576713562012,0.06137824058532715
-0.04273461550474167,0.5943488478660583,0.5948470830917358,-0.038827553391456604,0.1946660280227661,0.026819705963134766
0.2880416810512543,0.38735994696617126,0.4466686248779297,-0.04193811118602753,0.19425570964813232,-0.036068208515644073
0.6529353857040405,0.4138801097869873,0.581566333770752,-0.007513478398323059,0.21498531103134155,-0.09180402755737305
0.8946660161018372,0.5158507823944092,0.9076746702194214,0.05863085389137268,0.22236794233322144,-0.11642241477966309
0.853417694568634,0.42569398880004883,1.025802731513977,0.10516776144504547,0.17482250928878784,-0.10119963437318802
0.6744739413261414,0.3278893530368805,0.966398298740387,0.142293319106102,0.03562444448471069,-0.06844748556613922
0.6783199310302734,0.25634273886680603,0.975659966468811,0.12785358726978302,-0.06877952814102173,-0.0983361154794693
0.7547561526298523,0.2471497356891632,1.0461456775665283,0.06520113348960876,-0.15870916843414307,-0.08743274211883545
0.5786086916923523,0.4809105396270752,1.0347074270248413,-0.05591394007205963,-0.2737358808517456,0.02683185040950775
0.20942284166812897,0.6985211372375488,1.067325472831726,-0.0880621075630188,-0.3172687292098999,0.08631585538387299
0.1104811429977417,0.5391143560409546,1.0123193264007568,-0.08797046542167664,-0.33558791875839233,0.059584975242614746
0.2596593201160431,0.0015551499091088772,0.8150967955589294,-0.12935194373130798,-0.3803366422653198,0.07538032531738281
0.4063202738761902,-0.29644280672073364,0.5294549465179443,-0.21593618392944336,-0.41366004943847656,0.10691642761230469
0.31667640805244446,-0.1477217823266983,0.34479454159736633,-0.25538355112075806,-0.43496018648147583,0.12146161496639252
0.04897833988070488,0.12220150977373123,0.4030741751194,-0.21379238367080688,-0.48443955183029175,0.13071690499782562
-0.1520112156867981,0.3087191581726074,0.5462650656700134,-0.19817540049552917,-0.4955441951751709,0.15442849695682526
-0.20441044867038727,0.35815340280532837,0.5808936357498169,-0.23468506336212158,-0.5404769778251648,0.13684165477752686
-0.2592802345752716,0.22885289788246155,0.5247222781181335,-0.2741493582725525,-0.540840208530426,0.14904379844665527
-0.2931932806968689,0.24104811251163483,0.4187414348125458,-0.30135223269462585,-0.5540676116943359,0.1403334140777588
-0.2595230042934418,0.3557942509651184,0.34136441349983215,-0.28831756114959717,-0.544426441192627,0.09279966354370117
-0.11794785410165787,0.4394848942756653,0.24552106857299805,-0.3030714690685272,-0.5294055938720703,0.04468177258968353
-0.043826211243867874,0.5229332447052002,0.07009735703468323,-0.34878095984458923,-0.5304115414619446,0.09626984596252441
-0.11674337089061737,0.462665319442749,-0.14506833255290985,-0.365444153547287,-0.5213432312011719,0.16238880157470703
-0.2870993912220001,0.07846014201641083,-0.42751839756965637,-0.36269259452819824,-0.4940488338470459,0.24456928670406342
-0.2745535373687744,-0.11089874058961868,-0.4177987575531006,-0.29020658135414124,-0.4595935344696045,0.23579418659210205
-0.14649787545204163,-0.20536552369594574,-0.39435264468193054,-0.2036004662513733,-0.4351116418838501,0.160987988114357
-0.17972877621650696,-0.24337345361709595,-0.4274994730949402,-0.18148118257522583,-0.4070647358894348,0.18304646015167236
-0.3092135488986969,-0.19582630693912506,-0.3957796096801758,-0.14307042956352234,-0.35327762365341187,0.19445429742336273
-0.3691236674785614,-0.21333546936511993,-0.3206264078617096,-0.10204824805259705,-0.3197351098060608,0.15810488164424896
-0.35353702306747437,-0.32044559717178345,-0.24416223168373108,-0.06507474184036255,-0.2884500026702881,0.1031646877527237
-0.30737635493278503,-0.4195113182067871,-0.21847409009933472,-0.06468549370765686,-0.2581884264945984,0.057794347405433655
-0.26834818720817566,-0.4736487865447998,-0.21342669427394867,-0.08263948559761047,-0.23597854375839233,0.03511025011539459
-0.2507516145706177,-0.48595166206359863,-0.2353234589099884,-0.12078192830085754,-0.20065796375274658,0.03368435800075531
-0.2869567573070526,-0.4437735974788666,-0.34598293900489807,-0.16179239749908447,-0.16228199005126953,0.04745413362979889
-0.382085919380188,-0.27279314398765564,-0.42135897278785706,-0.16733518242835999,-0.11491644382476807,0.04378272593021393
-0.4799214005470276,-0.08688561618328094,-0.44925159215927124,-0.13669812679290771,-0.05751156806945801,0.011066555976867676
-0.5524377822875977,0.015660006552934647,-0.45900124311447144,-0.11118137836456299,0.0050539374351501465,-0.011363983154296875
-0.5854533314704895,0.212602898478508,-0.3989694118499756,-0.06703373789787292,0.06390905380249023,-0.0614781454205513
-0.6319178938865662,0.5523629188537598,-0.25774434208869934,-0.0262812077999115,0.10308176279067993,-0.1002434566617012
-0.7171246409416199,0.9090631008148193,-0.13510853052139282,0.010177642107009888,0.13797497749328613,-0.09238135814666748
-0.8223270177841187,1.2150250673294067,-0.10302234441041946,0.01716703176498413,0.163729727268219,-0.08959591388702393
-0.9166927337646484,1.345290184020996,-0.16377779841423035,0.03611677885055542,0.1834757924079895,-0.0721169114112854
-0.9978674650192261,1.5258421897888184,-0.16846735775470734,0.06012776494026184,0.1888725757598877,-0.04189687594771385
-1.1543865203857422,1.9694534540176392,0.0424954816699028,0.136226087808609,0.17123311758041382,-0.006633587181568146
-1.3902000188827515,2.5890722274780273,0.307267963886261,0.2359359860420227,0.14913302659988403,0.038044221699237823
-1.6088818311691284,3.291578769683838,0.4812805652618408,0.22408869862556458,0.15907931327819824,0.08980454504489899
-1.7599250078201294,3.5332040786743164,0.420302152633667,0.12496429681777954,0.18233853578567505,0.13457739353179932
-1.8208595514297485,3.474219799041748,0.2725105583667755,0.05849859118461609,0.26658719778060913,0.16629871726036072
-1.8160924911499023,3.2658934593200684,0.1067197397351265,0.03392702341079712,0.31892842054367065,0.19563737511634827
-1.7307627201080322,3.379960775375366,0.02393317222595215,0.04380902647972107,0.35080116987228394,0.23087647557258606
-1.5819766521453857,3.6586050987243652,0.051015276461839676,0.06734432280063629,0.4378387928009033,0.23175543546676636
-1.379327654838562,3.957044839859009,0.1863565891981125,0.10795457661151886,0.4823642373085022,0.20118850469589233
-1.2244007587432861,4.11382532119751,0.3783544600009918,0.08078843355178833,0.5077731013298035,0.2044554352760315
-1.2156044244766235,3.6720333099365234,0.3414061367511749,0.07623228430747986,0.5059769153594971,0.21205121278762817
-1.2321851253509521,3.0046114921569824,0.1532912403345108,0.04486948251724243,0.44456666707992554,0.20110565423965454
-0.9521762728691101,2.6273679733276367,0.02599799819290638,0.13105028867721558,0.35439759492874146,0.10919201374053955
-0.5170691609382629,2.3607382774353027,0.21670010685920715,0.19673627614974976,0.27422451972961426,-0.025623738765716553
-0.30208083987236023,1.9640332460403442,0.48960307240486145,0.2489815354347229,0.218794584274292,0.007139265537261963
-0.3937797248363495,1.6848933696746826,0.6078625917434692,0.1348206102848053,0.12306737899780273,0.07965320348739624
-0.5824311375617981,1.6269100904464722,0.5813094973564148,0.051936596632003784,0.0547558069229126,0.07396197319030762
-0.524946391582489,1.6189688444137573,0.5566955208778381,0.007882561534643173,0.027651667594909668,-0.045187413692474365
-0.17874068021774292,1.5604544878005981,0.569730281829834,-0.005047593265771866,0.02232891321182251,-0.1650981903076172
0.25706079602241516,1.2850267887115479,0.5630569458007812,0.008998900651931763,0.014061152935028076,-0.21722376346588135
0.5430948138237,1.0179102420806885,0.42974719405174255,-0.047449856996536255,0.012150585651397705,-0.16342568397521973
0.585451602935791,0.8336682915687561,0.214625746011734,-0.08700829744338989,-0.019280195236206055,-0.06789129972457886
0.3808908462524414,0.8693644404411316,0.07380851358175278,-0.056544072926044464,-0.047511398792266846,0.03973817825317383
0.1615133434534073,1.0105103254318237,0.09936157613992691,0.03103070706129074,-0.042388081550598145,0.06801825761795044
0.043424077332019806,1.1513943672180176,0.21978051960468292,0.09406924247741699,-0.013518095016479492,0.03045743703842163
0.028885716572403908,1.1440238952636719,0.33857831358909607,0.11282383650541306,0.008864223957061768,-0.017962336540222168
0.03181407228112221,1.1099997758865356,0.403251975774765,0.08544351905584335,0.03604859113693237,-0.00522303581237793
0.04102414846420288,1.039734125137329,0.25622865557670593,0.020554542541503906,0.039852142333984375,0.029985785484313965
0.10795733332633972,1.000288963317871,0.0655185878276825,-0.037697672843933105,0.03618741035461426,0.03685653209686279
0.1872919797897339,0.8706731796264648,-0.010256906971335411,0.02137663960456848,0.044028520584106445,0.02143174409866333
0.2440839260816574,0.7369218468666077,0.03653433918952942,0.07300205528736115,0.07600367069244385,0.033319175243377686
0.2894890010356903,0.6343303918838501,0.1336551457643509,0.09922556579113007,0.0958130955696106,0.05295473337173462
0.22133001685142517,0.4598674178123474,0.18789444863796234,0.07524721324443817,0.11431926488876343,0.07809442281723022
0.08574695885181427,0.43961936235427856,0.15884949266910553,0.03630360960960388,0.12591898441314697,0.09376239776611328
-0.16518770158290863,0.48992589116096497,0.15508829057216644,0.012838780879974365,0.12254101037979126,0.1396607756614685
-0.3503098487854004,0.5550981760025024,0.2295975387096405,0.046182140707969666,0.14471650123596191,0.16327083110809326
-0.4505288600921631,0.7359635233879089,0.35704633593559265,0.06260767579078674,0.1678684949874878,0.15245848894119263
-0.4872053265571594,0.8282736539840698,0.47380903363227844,0.06358581781387329,0.18777692317962646,0.12875723838806152
-0.45199960470199585,0.7854957580566406,0.5260140895843506,0.04261162877082825,0.20392656326293945,0.09275531768798828
-0.35828596353530884,0.5801819562911987,0.48912692070007324,-0.004355877637863159,0.20842194557189941,0.09135103225708008
-0.17881184816360474,0.2649401128292084,0.45082953572273254,0.0007051527500152588,0.22892099618911743,0.09325402975082397
0.07206006348133087,0.06497575342655182,0.4583367705345154,0.022481456398963928,0.2657744288444519,0.07449012994766235
0.2422293722629547,0.09542364627122879,0.5147106647491455,0.036911070346832275,0.29164838790893555,0.06934386491775513
0.3312917947769165,0.20745274424552917,0.5505688190460205,0.03289463371038437,0.3336453437805176,0.07052856683731079
0.3158155083656311,0.28923147916793823,0.5396026968955994,0.01805969327688217,0.3518363833427429,0.09879869222640991
0.27704495191574097,0.1337706744670868,0.45957425236701965,-0.004261970520019531,0.36851775646209717,0.10691523551940918
0.36333945393562317,-0.1957666128873825,0.3019334375858307,-0.03280019760131836,0.3524879217147827,0.08419877290725708
0.5595009326934814,-0.5673605799674988,0.1807595044374466,0.012169644236564636,0.34725362062454224,0.032239675521850586
0.7417665719985962,-0.42314058542251587,0.28166624903678894,0.07282531261444092,0.367936909198761,-0.014183104038238525
0.6016080975532532,0.58866286277771,0.4777613878250122,0.04766922444105148,0.4089234471321106,-0.03573235869407654
0.1643332988023758,1.6908267736434937,0.6084553003311157,-0.018861353397369385,0.41670358180999756,0.0055751800537109375
-0.28923583030700684,2.428317070007324,0.5838328003883362,-0.010586149990558624,0.357271671295166,0.09432217478752136
-0.4257255494594574,2.5261223316192627,0.6003816723823547,0.04100998491048813,0.31442028284072876,0.12098833918571472
-0.2870296537876129,2.2727208137512207,0.6310998201370239,0.08136123418807983,0.2607578635215759,0.09599637985229492
-0.1267530471086502,1.796839952468872,0.6961119174957275,0.11517632007598877,0.184548020362854,0.09758591651916504
-0.06122436374425888,1.3382744789123535,0.834752082824707,0.11655661463737488,0.1645718812942505,0.0839850902557373
-0.2604539394378662,1.0612066984176636,0.8248308897018433,0.02620026469230652,0.11441624164581299,0.07010865211486816
-0.5095863938331604,0.8777030110359192,0.6966137290000916,-0.07802469283342361,0.05803924798965454,0.03028962016105652
-0.4334309995174408,0.9339495897293091,0.6540451645851135,-0.14382199943065643,0.10672718286514282,-0.08823806047439575
-0.26307767629623413,0.8538336753845215,0.7440546154975891,-0.09429804980754852,0.15199077129364014,-0.09976381063461304
-0.17107895016670227,0.49322083592414856,0.8174203038215637,-0.013294197618961334,0.08061450719833374,0.008818119764328003
-0.3824775516986847,-0.03283797949552536,0.7453177571296692,0.06526133418083191,-0.09345030784606934,0.16193586587905884
-0.8140299320220947,-0.37251153588294983,0.6695187091827393,0.07794686406850815,-0.2592374086380005,0.20752286911010742
-1.1518573760986328,-0.2383480817079544,0.6720496416091919,0.01383015513420105,-0.2938309907913208,0.0763426423072815
-1.3103607892990112,0.1742759495973587,0.7721071243286133,-0.04945957660675049,-0.26880747079849243,-0.08554458618164062
-1.229853630065918,0.2863796055316925,0.8468494415283203,-0.08021160960197449,-0.220647394657135,-0.18544822931289673
-0.9958280920982361,-0.13722887635231018,0.8529144525527954,-0.12535911798477173,-0.24943268299102783,-0.2162603735923767
-1.0332139730453491,-0.4647190570831299,0.8054026961326599,-0.10968536138534546,-0.307353138923645,-0.1425865888595581
-1.1504364013671875,-0.30545279383659363,0.6948292851448059,-0.1588573455810547,-0.3050035834312439,-0.13612568378448486
-1.2490990161895752,0.05955240875482559,0.6592927575111389,-0.1609497368335724,-0.30560559034347534,-0.20989346504211426
-1.3015673160552979,0.4325987994670868,0.7082788348197937,-0.12727832794189453,-0.29543471336364746,-0.2431647777557373
-1.1709479093551636,0.4727979004383087,0.7003406286239624,-0.10731565952301025,-0.3227168917655945,-0.3473559021949768
-0.9426233768463135,0.02455851435661316,0.6790297031402588,-0.08351081609725952,-0.3756946325302124,-0.39471912384033203
-0.6471523642539978,-0.5289468169212341,0.5002292394638062,-0.10776814818382263,-0.44932305812835693,-0.4709632992744446
-0.542561411857605,-0.5871415138244629,0.35432735085487366,-0.153253972530365,-0.49140238761901855,-0.5655006766319275
-0.5661596655845642,-0.25789690017700195,0.2607324421405792,-0.15331199765205383,-0.5149618983268738,-0.6200595498085022
-0.48734045028686523,0.08638069033622742,0.10030806809663773,-0.19146102666854858,-0.52848881483078,-0.7270419001579285
-0.25472790002822876,0.20177116990089417,-0.10835763812065125,-0.20080795884132385,-0.5383193492889404,-0.7968637347221375
-0.025567449629306793,0.3200807273387909,-0.2345491647720337,-0.17220044136047363,-0.519757091999054,-0.7938243746757507
0.13291552662849426,0.43601810932159424,-0.328301340341568,-0.12226668000221252,-0.46852952241897583,-0.6898225545883179
0.18143506348133087,0.48784977197647095,-0.41418635845184326,-0.06833979487419128,-0.4259681701660156,-0.5527577996253967
0.19154313206672668,0.4879017770290375,-0.49301642179489136,-0.03469878435134888,-0.38586264848709106,-0.43746960163116455
0.2223956286907196,0.4585034251213074,-0.5415008068084717,0.0015830695629119873,-0.33330047130584717,-0.3439676761627197
0.26016491651535034,0.3794422447681427,-0.5705974102020264,0.025531798601150513,-0.27678704261779785,-0.2759232521057129
0.29310107231140137,0.39145517349243164,-0.5246813297271729,0.04633435606956482,-0.24054032564163208,-0.2412317991256714
0.2760257422924042,0.4699050486087799,-0.44734519720077515,0.09369486570358276,-0.17636197805404663,-0.20412451028823853
0.27300122380256653,0.5128875374794006,-0.41538286209106445,0.08273118734359741,-0.152229905128479,-0.1776667833328247
0.2670134902000427,0.4429621398448944,-0.3166152238845825,0.11071023344993591,-0.14262664318084717,-0.12847888469696045
0.3022646903991699,0.3463957607746124,-0.23273061215877533,0.126723051071167,-0.12349557876586914,-0.10787820816040039
0.308862566947937,0.24821221828460693,-0.17609190940856934,0.12115812301635742,-0.12094712257385254,-0.07151150703430176
0.32915255427360535,0.24862141907215118,-0.13502904772758484,0.11288800835609436,-0.08835607767105103,-0.0665777325630188
0.285383403301239,0.3955762982368469,-0.09485393762588501,0.10175108909606934,-0.07320863008499146,-0.06394451856613159
0.14833615720272064,0.6331061720848083,-0.020022833719849586,0.11308365315198898,-0.042164623737335205,-0.03508913516998291
0.08385641872882843,0.7228668332099915,0.03069562464952469,0.12405898422002792,-0.021367669105529785,-0.005252420902252197
0.16888399422168732,0.7763532400131226,0.14022991061210632,0.12185035645961761,0.029559016227722168,-0.046105265617370605
0.27598583698272705,0.7587307095527649,0.2693081200122833,0.11987704038619995,0.07767856121063232,-0.045069217681884766
0.3740042448043823,0.6964362263679504,0.4243851900100708,0.11475792527198792,0.1026754379272461,-0.006465494632720947
0.502513587474823,0.5382908582687378,0.5574156045913696,0.08871299773454666,0.12998372316360474,0.027659356594085693
0.6510475277900696,0.27647170424461365,0.6268290877342224,0.04562191665172577,0.13140320777893066,0.0487898588180542
0.8227982521057129,0.09102954715490341,0.6052858233451843,-0.027744218707084656,0.14516818523406982,0.0515328049659729
1.0111151933670044,0.10081314295530319,0.5726268887519836,-0.08304864913225174,0.19774466753005981,0.020956575870513916
1.2150458097457886,0.2886141538619995,0.5532570481300354,-0.12868651747703552,0.2682536840438843,-0.016195058822631836
1.3122608661651611,0.4999404847621918,0.5653910040855408,-0.13065996766090393,0.3278120160102844,0.0010009407997131348
1.3407167196273804,0.5949733257293701,0.5920968651771545,-0.10884085297584534,0.3685374855995178,0.06537514925003052
1.3510706424713135,0.587376594543457,0.6161090135574341,-0.09396237879991531,0.39959341287612915,0.11785072088241577
1.372408390045166,0.47453075647354126,0.5841496586799622,-0.0907839834690094,0.42496931552886963,0.15705609321594238
1.3963242769241333,0.35804224014282227,0.5144156813621521,-0.11295311897993088,0.4285116195678711,0.16741341352462769
1.3126202821731567,0.3160437047481537,0.4828256368637085,-0.09400538355112076,0.42339563369750977,0.17825427651405334
1.145455002784729,0.2970065474510193,0.4689491093158722,-0.0780881941318512,0.41787660121917725,0.2085910439491272
0.9719752669334412,0.3343116343021393,0.421184241771698,-0.0904691219329834,0.3954044580459595,0.21908724308013916
0.786557137966156,0.3622797131538391,0.37441715598106384,-0.09472188353538513,0.38371598720550537,0.2383497953414917
0.6358513236045837,0.3129791021347046,0.33612924814224243,-0.07559198141098022,0.36001038551330566,0.2592555284500122
0.48325034976005554,0.13909214735031128,0.2976575493812561,-0.048726558685302734,0.31066107749938965,0.2943068742752075
0.3354837894439697,-0.08587679266929626,0.28752368688583374,-0.0300348699092865,0.2513066530227661,0.31049710512161255
0.17432717978954315,-0.2647073268890381,0.24895216524600983,-0.025736089795827866,0.18064665794372559,0.31040719151496887
0.034232694655656815,-0.29427865147590637,0.1718359738588333,-0.04706621170043945,0.11466318368911743,0.2778953015804291
-0.090297631919384,-0.17153377830982208,0.03207240253686905,-0.09605085849761963,0.05511820316314697,0.23057162761688232
-0.21044015884399414,-0.01686791703104973,-0.11524971574544907,-0.13115522265434265,-0.002774834632873535,0.19341081380844116
-0.322847455739975,0.10256536304950714,-0.1783631294965744,-0.10947263240814209,-0.029858410358428955,0.17492541670799255
-0.34804701805114746,0.0913524404168129,-0.164507195353508,-0.07224148511886597,-0.04010885953903198,0.1485988199710846
-0.3260728120803833,-0.02302800677716732,-0.1297917515039444,-0.04747268557548523,-0.04332250356674194,0.12040436267852783
-0.3145609200000763,-0.18913869559764862,-0.13134901225566864,-0.048827022314071655,-0.058175504207611084,0.09817296266555786
-0.2996218800544739,-0.3190988004207611,-0.17355909943580627,-0.06339624524116516,-0.058609843254089355,0.06790918111801147
-0.24553711712360382,-0.29400214552879333,-0.2221139520406723,-0.09545186161994934,-0.0446171760559082,0.0027605295181274414
-0.15202106535434723,-0.1673666089773178,-0.19883593916893005,-0.07587108016014099,-0.0063533782958984375,-0.052965909242630005
-0.04593582823872566,0.028664205223321915,-0.1435195803642273,-0.05236908793449402,0.02524709701538086,-0.0845983624458313
0.03085901401937008,0.14293788373470306,-0.08480251580476761,-0.015231911092996597,0.03877758979797363,-0.07527634501457214
0.06776465475559235,0.0649682953953743,-0.10121333599090576,0.006124261766672134,0.02022838592529297,-0.03101181983947754
0.11251707375049591,-0.08409121632575989,-0.177024707198143,0.015531599521636963,0.01427149772644043,-0.005325376987457275
0.05191652476787567,-0.029422162100672722,-0.22578641772270203,0.012581974267959595,0.0005717873573303223,0.0025320053100585938
-0.04864721745252609,0.15269042551517487,-0.1936511993408203,0.04525246471166611,0.029850482940673828,0.018210232257843018
-0.08246607333421707,0.2768101692199707,-0.16880716383457184,0.0509127639234066,0.04663193225860596,0.014447599649429321
-0.06612890213727951,0.3099704086780548,-0.14782723784446716,0.04853489622473717,0.050541460514068604,0.024873346090316772
-0.04657761752605438,0.25367459654808044,-0.07535281777381897,0.07522513717412949,0.05893665552139282,0.039613693952560425
-0.0160118006169796,0.12390907853841782,-0.02943684160709381,0.0789385735988617,0.053109586238861084,0.05296117067337036
-0.021650217473506927,0.02954408898949623,-0.03441881760954857,0.052228473126888275,0.036172330379486084,0.05364888906478882
-0.11484628170728683,0.05214961990714073,-0.10663286596536636,-0.005099035799503326,0.009788453578948975,0.06241145730018616
-0.2731423079967499,0.2485279142856598,-0.15090475976467133,-0.04462975263595581,0.011173546314239502,0.05271470546722412
-0.34881117939949036,0.3628090023994446,-0.18016737699508667,-0.06249096989631653,0.03110283613204956,0.03813600540161133
-0.32251685857772827,0.32590800523757935,-0.1836802065372467,-0.06225251406431198,0.049407899379730225,0.016994476318359375
-0.27373507618904114,0.1622612327337265,-0.1975938081741333,-0.04553250968456268,0.06020897626876831,0.020299911499023438
-0.2309851497411728,0.019186051562428474,-0.2536213994026184,-0.05712267756462097,0.061947524547576904,0.014225244522094727
-0.23920787870883942,-0.0497966893017292,-0.29860639572143555,-0.06700101494789124,0.06214118003845215,0.009238243103027344
-0.27369508147239685,-0.07966504245996475,-0.3340550661087036,-0.05394288897514343,0.0700387954711914,0.019834697246551514
-0.2982654273509979,-0.04047040641307831,-0.3549869656562805,-0.047844722867012024,0.08541625738143921,0.01447218656539917
-0.30391597747802734,-0.002649654634296894,-0.31947043538093567,-0.039365023374557495,0.11357516050338745,0.022624850273132324
-0.30922970175743103,0.06119254231452942,-0.2587093114852905,-0.03201226890087128,0.13308590650558472,0.03330007195472717
-0.3293745517730713,0.04545443132519722,-0.1811630129814148,-0.012238338589668274,0.14215630292892456,0.0598682165145874
-0.2966442108154297,-0.05693085864186287,-0.10905295610427856,-0.001080051064491272,0.1541873812675476,0.06486061215400696
-0.17405284941196442,-0.2470017671585083,-0.024580908939242363,0.012637868523597717,0.19284051656723022,0.05900651216506958
0.006730405148118734,-0.4341438114643097,0.03931928053498268,0.0198381245136261,0.23005890846252441,0.06180506944656372
0.16453954577445984,-0.4836600422859192,0.12569209933280945,0.020164906978607178,0.25397956371307373,0.062491416931152344
0.11608580499887466,-0.4784494638442993,0.20119145512580872,0.05731663107872009,0.2582932114601135,0.12137418985366821
-0.13083480298519135,-0.41911518573760986,0.21815849840641022,0.06897035241127014,0.23743313550949097,0.191878080368042
-0.32605454325675964,-0.4094336926937103,0.1818263977766037,0.04207542538642883,0.23725205659866333,0.2139098048210144
-0.32597047090530396,-0.4417479634284973,0.052971597760915756,-0.0051014721393585205,0.27271801233291626,0.16693192720413208
-0.21068474650382996,-0.45809510350227356,-0.02941032499074936,-0.03712179511785507,0.33824968338012695,0.11984223127365112
-0.16178135573863983,-0.45862439274787903,0.0030511750373989344,-0.006409943103790283,0.40730834007263184,0.16020232439041138
-0.15300053358078003,-0.4425185024738312,0.14103376865386963,0.04560402035713196,0.4694581627845764,0.22241008281707764
-0.22621634602546692,-0.3983745574951172,0.2755489945411682,0.06881221383810043,0.5072688460350037,0.2950287461280823
-0.3514626622200012,-0.34557655453681946,0.3677268326282501,0.06615417450666428,0.5386128425598145,0.3543241620063782
-0.5117297768592834,-0.2824305593967438,0.3927849233150482,0.050053954124450684,0.5502514243125916,0.40343332290649414
-0.7277708053588867,-0.2145683765411377,0.32617151737213135,0.01739981770515442,0.5699927806854248,0.44869464635849
-1.0149893760681152,-0.03875549137592316,0.294869989156723,0.012918353080749512,0.5799898505210876,0.4728468060493469
-1.3435347080230713,0.020309654995799065,0.151920348405838,0.0066897571086883545,0.5723447799682617,0.47712820768356323
-1.5224376916885376,0.001915610395371914,0.0381234809756279,0.01100999116897583,0.512800931930542,0.34960079193115234
-1.6092889308929443,0.2327197641134262,0.10992755740880966,0.050648029893636703,0.47445589303970337,0.2268863320350647
-1.8394064903259277,0.5263122320175171,0.11524493992328644,0.04690560698509216,0.42915475368499756,0.21134525537490845
-2.30189847946167,0.5676356554031372,0.060813307762145996,0.005307253450155258,0.3078072667121887,0.26355403661727905
-2.836902141571045,-0.01447882130742073,-0.00680301571264863,0.030974075198173523,0.06445950269699097,0.09916555881500244
-2.9324936866760254,-0.9092607498168945,-0.09663653373718262,0.05126575753092766,-0.1546679139137268,-0.3035101294517517
-2.303943157196045,-1.1906930208206177,-0.11843276023864746,0.031157640740275383,-0.27211928367614746,-0.8618910908699036
-1.7649098634719849,-0.5377141833305359,-0.06329212337732315,0.010011985898017883,-0.22909784317016602,-1.2484614849090576
-1.8082815408706665,0.2902739942073822,-0.23507168889045715,-0.06651806831359863,-0.3728145360946655,-1.0738213062286377
-2.0675888061523438,0.4463345408439636,-0.5021666288375854,-0.09145660698413849,-0.5320064425468445,-0.8249924778938293
-2.1415157318115234,-0.03543529286980629,-0.5847597122192383,0.013568699359893799,-0.6524472832679749,-0.7255918979644775
-1.9214948415756226,-0.6204047799110413,-0.4896220564842224,0.08202262222766876,-0.5688639879226685,-0.8436557054519653
-1.6661577224731445,-1.1938846111297607,-0.42982712388038635,0.07844039797782898,-0.582705557346344,-1.0253208875656128
-1.3670114278793335,-1.3349727392196655,-0.48112010955810547,0.009834662079811096,-0.7602441310882568,-1.2736269235610962
-0.9846252202987671,-0.9145124554634094,-0.513580322265625,-0.05423946678638458,-0.780658483505249,-1.5348765850067139
-0.4241677224636078,-0.361713707447052,-0.5181257128715515,-0.07876850664615631,-0.7713043093681335,-1.6617624759674072
0.3497692048549652,0.08663079142570496,-0.6121332049369812,-0.11879466474056244,-0.7418946027755737,-1.6949138641357422
0.9464619755744934,0.3375791609287262,-0.6573876738548279,-0.13338539004325867,-0.7096554636955261,-1.505380630493164
1.236230731010437,0.10785584151744843,-0.6426731944084167,-0.06854584813117981,-0.7032675743103027,-1.1296497583389282
1.5351591110229492,-0.5163761973381042,-0.7683374285697937,-0.05215756595134735,-0.7320573925971985,-0.867272138595581
1.800986886024475,-0.8353819847106934,-0.9462789297103882,-0.10846032202243805,-0.6419658064842224,-0.774056077003479
1.8634796142578125,-0.7390042543411255,-0.9877611994743347,-0.08726096153259277,-0.4697726368904114,-0.6298585534095764
1.8014048337936401,-0.46503692865371704,-0.8350719213485718,-0.01314873993396759,-0.2875964045524597,-0.4513307809829712
1.7071706056594849,-0.38556158542633057,-0.6197171211242676,0.0867927223443985,-0.13292956352233887,-0.2690351605415344
1.5975391864776611,-0.6235049962997437,-0.5244408845901489,0.15188848972320557,-0.08352315425872803,-0.08803761005401611
1.649633526802063,-0.8955444693565369,-0.568831741809845,0.11729931831359863,0.019531965255737305,-0.0018981099128723145
1.7701369524002075,-1.084478497505188,-0.6550673246383667,0.11838531494140625,0.13732975721359253,0.051550328731536865
1.7616760730743408,-1.1787916421890259,-0.6722011566162109,0.1377066671848297,0.2505168318748474,0.1652076244354248
1.7312018871307373,-1.1779720783233643,-0.5638335347175598,0.17667245864868164,0.3818514347076416,0.2558403015136719
1.6598758697509766,-1.0642465353012085,-0.3996252119541168,0.18545538187026978,0.4548443555831909,0.2700188159942627
1.2844372987747192,-1.3216898441314697,-0.46922940015792847,0.12783342599868774,0.3775073289871216,0.3676353096961975
0.8403511643409729,-1.7564752101898193,-0.7673347592353821,0.06187457591295242,0.26432377099990845,0.4193984270095825
0.5557289123535156,-1.9124445915222168,-0.9947655200958252,0.017113178968429565,0.3011474609375,0.32866668701171875
0.4192454218864441,-2.0497968196868896,-1.2881425619125366,-0.04993024468421936,0.35085487365722656,0.2345447540283203
0.4975738227367401,-1.765456199645996,-1.4585686922073364,-0.06640684604644775,0.4467712640762329,0.046292781829833984
0.5107004046440125,-1.1914803981781006,-1.2920159101486206,0.02049499750137329,0.520268976688385,-0.005422353744506836
0.252000093460083,-0.763974666595459,-1.1219594478607178,0.07731354981660843,0.546948254108429,0.0975533127784729
