rotation_x,rotation_y,rotation_z,acceleration_x,acceleration_y,acceleration_z
-0.2890005111694336,-0.1715642511844635,-0.07057036459445953,0.062339793890714645,0.005036741495132446,0.037811994552612305
-0.16686277091503143,-0.16954606771469116,-0.028272313997149467,0.03447156772017479,0.003611445426940918,-0.07150846719741821
0.05409693717956543,-0.030079906806349754,0.00013173837214708328,0.025134172290563583,-0.0031671226024627686,-0.08738648891448975
0.0932602658867836,0.011164448224008083,-0.015673808753490448,0.03321646526455879,0.0038574934005737305,-0.016239643096923828
0.042484283447265625,0.02293769083917141,-0.07706059515476227,0.035307761281728745,-0.003669559955596924,0.029459476470947266
0.11439212411642075,0.012223128229379654,-0.1269501894712448,0.023547697812318802,0.008240699768066406,0.006349086761474609
0.05081178992986679,-0.14655938744544983,-0.11525771021842957,0.07573660463094711,-0.0038796067237854004,0.031213819980621338
0.10753071308135986,-0.14351651072502136,-0.0888507217168808,0.06527675688266754,-0.01044011116027832,-0.017390787601470947
0.04463504999876022,-0.11746504157781601,-0.06211092323064804,0.05034016817808151,-0.014414489269256592,-0.002711176872253418
0.03350628912448883,0.015438597649335861,-0.03137732297182083,0.026727691292762756,-0.007319658994674683,0.007963716983795166
0.06695852428674698,0.04234912246465683,-0.04374478757381439,0.038632310926914215,-0.0016871988773345947,0.02093881368637085
-0.0015009150374680758,-0.0310051292181015,-0.004790487699210644,0.06814280152320862,-0.012180209159851074,0.09183251857757568
-0.06362832337617874,-0.10133534669876099,0.06441377848386765,0.11117002367973328,-0.03965160250663757,0.09774386882781982
-0.11726795136928558,-0.1440257579088211,0.08351803570985794,0.08329357206821442,-0.06126639246940613,0.09128570556640625
-0.10343986004590988,-0.12773914635181427,0.0234092865139246,0.02448117733001709,-0.04665902256965637,0.11818742752075195
-0.1464499682188034,0.10659389197826385,0.04908670485019684,0.017090830951929092,-0.06388303637504578,0.16460555791854858
-0.4481939971446991,0.2945626676082611,0.12117275595664978,0.013666730374097824,-0.06325781345367432,0.28582656383514404
-0.6858348250389099,0.2775006890296936,0.1740669310092926,0.030736617743968964,-0.06300088763237,0.3094903826713562
-0.5456967949867249,0.44310539960861206,0.3238872289657593,0.16171441972255707,-0.16309773921966553,0.20128929615020752
0.11101354658603668,0.1046033427119255,0.31923720240592957,0.09328509867191315,-0.0708407461643219,0.0977981686592102
0.03104371391236782,0.15192954242229462,0.31928718090057373,0.07537514716386795,-0.07484486699104309,0.4496200680732727
-0.46210190653800964,0.27398091554641724,0.28969666361808777,0.06704794615507126,-0.06272083520889282,0.5108047127723694
-0.7622658610343933,0.1655663698911667,0.2745143473148346,0.07054229825735092,-0.06281426548957825,0.32199209928512573
-0.654312789440155,-0.025137653574347496,0.24927747249603271,0.05006038770079613,-0.029872268438339233,0.20419096946716309
-0.3232710659503937,-0.08483005315065384,0.23709574341773987,0.07557660341262817,-0.01606765389442444,0.183854341506958
-0.0017967410385608673,-0.20171773433685303,0.4355924427509308,0.21835970878601074,-0.036265432834625244,0.2543213367462158
0.14180532097816467,-0.07014251500368118,0.8096910715103149,0.2385747730731964,-0.07512471079826355,0.4271252155303955
0.04286462441086769,0.4238665997982025,1.0252315998077393,0.014676664024591446,-0.024523437023162842,0.5051308274269104
0.06755033880472183,0.6468097567558289,0.7329311966896057,-0.22200234234333038,0.09856778383255005,0.3840281367301941
0.046486545354127884,0.09501233696937561,0.21372376382350922,-0.15435415506362915,0.13442867994308472,0.2100490927696228
0.04982149600982666,-0.6724625825881958,0.005568581633269787,0.0650889202952385,0.0656992495059967,0.16021811962127686
0.35464903712272644,-0.958253800868988,0.14073385298252106,0.17289066314697266,0.061565667390823364,0.2008247971534729
0.6690404415130615,-0.020983945578336716,0.40546491742134094,0.061521194875240326,0.047211408615112305,0.39743250608444214
0.5069518685340881,0.6504098773002625,0.4042103886604309,-0.11049650609493256,0.06625020503997803,0.45993202924728394
0.3951962888240814,0.13457459211349487,0.26888638734817505,-0.07269221544265747,0.09002617001533508,0.17575877904891968
0.5134634375572205,-0.32048699259757996,0.12342410534620285,-0.03935687988996506,0.07744061946868896,0.15135794878005981
0.4765620231628418,-0.6370729207992554,0.13690410554409027,0.06495924293994904,0.06197693943977356,0.185522198677063
0.26196718215942383,-0.4736623167991638,0.25432419776916504,0.010782599449157715,0.029918253421783447,0.2708061933517456
0.12732066214084625,0.2835339605808258,0.33185866475105286,-0.13715769350528717,0.09571117162704468,0.05348765850067139
0.6423671841621399,-0.07530806958675385,-0.06217700242996216,-0.22273792326450348,0.21999841928482056,-0.4138774275779724
1.1408207416534424,-0.36370864510536194,-0.5848432183265686,-0.16907162964344025,0.25885748863220215,-0.31639283895492554
0.9630617499351501,-0.281429260969162,-0.45635348558425903,0.20882758498191833,0.08454927802085876,-0.13923299312591553
0.3213133215904236,-0.6267468929290771,0.22351141273975372,0.3340935707092285,-0.0239546000957489,-0.07111817598342896
-0.3114164471626282,-0.7107803225517273,0.49575892090797424,0.03696237504482269,0.044891178607940674,-0.07720392942428589
-0.005182520020753145,-0.13740961253643036,0.20244184136390686,-0.1908474713563919,0.11714866757392883,-0.3068568706512451
0.6754588484764099,0.11255467683076859,0.0190882608294487,-0.005665570497512817,0.08991220593452454,-0.4841439723968506
0.4947357475757599,-0.31051328778266907,0.2775799632072449,0.2760949730873108,0.026309728622436523,-0.26716041564941406
-0.3984064757823944,-0.6379518508911133,0.6893981695175171,0.20532676577568054,-0.007958650588989258,-0.0634462833404541
-0.5662655830383301,-0.08792658895254135,0.6402055621147156,-0.22106528282165527,0.06649672985076904,-0.342867374420166
0.427735835313797,0.15012767910957336,-0.011991058476269245,-0.38014620542526245,0.15142714977264404,-0.776481568813324
0.922738254070282,-0.1819000244140625,-0.2623157799243927,0.014358103275299072,0.043545305728912354,-0.5157197713851929
0.4596453011035919,0.005872123409062624,0.16168536245822906,0.2585279047489166,-0.12657859921455383,-0.1621934175491333
-0.08458796888589859,0.04133035987615585,0.3719937205314636,0.09402993321418762,-0.11492246389389038,-0.12239354848861694
-0.07719429582357407,0.36876627802848816,0.25455233454704285,-0.0885600745677948,-0.06571775674819946,-0.27047812938690186
0.17737318575382233,0.015985041856765747,0.11469995975494385,-0.019099578261375427,-0.031669288873672485,-0.426602303981781
0.3216670751571655,-0.18262411653995514,0.0612153634428978,0.03180691599845886,-0.008069247007369995,-0.36912888288497925
0.4578322768211365,-0.09104513376951218,0.11736823618412018,0.0131988525390625,-0.09886768460273743,-0.3302861452102661
0.5618913769721985,-0.028306100517511368,-0.08242374658584595,-0.1261274218559265,-0.09011319279670715,-0.2609187960624695
0.5340895652770996,-0.02651991695165634,-0.10618952661752701,-0.03237023949623108,-0.11961555480957031,-0.12393772602081299
-0.06404226273298264,-0.2837463915348053,0.1485089659690857,0.08355149626731873,-0.1785675287246704,-0.0030995607376098633
-0.3753906488418579,-0.3697388470172882,0.4415329694747925,0.07519367337226868,-0.19166570901870728,-0.19623446464538574
0.20230142772197723,0.09842971712350845,0.11939942836761475,-0.2798166275024414,-0.01738142967224121,-0.4789641499519348
0.9656750559806824,0.2671945095062256,-0.43455836176872253,-0.34209272265434265,0.006013989448547363,-0.48791611194610596
0.8482902646064758,0.08560612797737122,-0.5173773169517517,-0.006500795483589172,-0.09640377759933472,-0.20017200708389282
0.24439093470573425,-0.13202814757823944,-0.1304853856563568,0.07848003506660461,-0.18400317430496216,-0.0429154634475708
-0.01661560870707035,0.047440022230148315,-0.13682612776756287,-0.16227182745933533,-0.166576087474823,-0.179557204246521
0.11949554830789566,0.23350322246551514,-0.32914113998413086,-0.21430309116840363,-0.13375914096832275,-0.3525017499923706
0.32617202401161194,0.18537454307079315,-0.3851405382156372,-0.04793025553226471,-0.19043594598770142,-0.4522232413291931
0.15553748607635498,-0.2856449484825134,-0.29914388060569763,0.09935972094535828,-0.24883019924163818,-0.36151641607284546
-0.1138971671462059,-0.26391294598579407,-0.23358966410160065,-0.007302671670913696,-0.2735690474510193,-0.3068394660949707
0.0545957013964653,0.12697483599185944,-0.24505110085010529,-0.10061414539813995,-0.1944320797920227,-0.42470091581344604
0.3387819528579712,0.3439401090145111,-0.11991671472787857,0.04235267639160156,-0.15968388319015503,-0.4789620637893677
0.1513344943523407,0.2666061222553253,0.07163867354393005,0.13341712951660156,-0.17367219924926758,-0.39879268407821655
-0.12684130668640137,0.05486137047410011,0.158891960978508,0.11731104552745819,-0.07463401556015015,-0.39778172969818115
-0.10351386666297913,-0.01667444221675396,0.012582925148308277,-0.07414604723453522,0.08862239122390747,-0.3906581401824951
-0.08886213600635529,0.17908473312854767,-0.10658081620931625,-0.12216685712337494,0.15578114986419678,-0.2789022922515869
0.11974640935659409,0.3426392078399658,-0.06359147280454636,-0.030530989170074463,0.08345264196395874,-0.32158833742141724
0.09327805787324905,0.33305084705352783,-0.25725257396698,-0.10098230838775635,0.09768366813659668,-0.10901379585266113
-0.18417450785636902,0.13116706907749176,-0.19920480251312256,0.08149883151054382,0.06771570444107056,-0.009337902069091797
-0.6575133800506592,0.22667202353477478,-0.04040148854255676,0.0664970874786377,0.007128119468688965,0.04585462808609009
-0.4351714253425598,0.5470956563949585,0.025676405057311058,0.01574767380952835,-0.06985664367675781,-0.26135241985321045
0.28890272974967957,0.7078190445899963,-0.27022138237953186,-0.0789918601512909,-0.04225325584411621,-0.3180340528488159
0.8821474313735962,0.36699962615966797,-0.5645048022270203,0.01022578775882721,0.008632481098175049,-0.20244652032852173
0.31771746277809143,-0.20656906068325043,-0.4258025884628296,0.1434965431690216,-0.003385186195373535,0.2714795470237732
-0.7893592715263367,-0.02463279664516449,-0.00907505489885807,0.1421511471271515,-0.0759047269821167,0.27878713607788086
-0.7095925211906433,0.5190114378929138,0.1206965446472168,-0.10796242207288742,-0.012838363647460938,-0.24976718425750732
0.1020478680729866,0.7447510361671448,-0.09036241471767426,-0.20895767211914062,0.0675121545791626,-0.44847846031188965
0.32371047139167786,0.3133694529533386,-0.30070048570632935,-0.05702988803386688,0.049512624740600586,-0.2244916558265686
0.1887088268995285,-0.03849878907203674,-0.22537171840667725,0.05618442967534065,-0.0500560998916626,-0.14624017477035522
0.2743165194988251,-0.0988830029964447,-0.13407252728939056,0.041484907269477844,-0.02996218204498291,-0.15263980627059937
0.0690302848815918,-0.026977965608239174,0.1088433638215065,0.1393744945526123,-0.025982379913330078,0.02115166187286377
-0.42877644300460815,0.03534083068370819,0.2760676145553589,0.07914134114980698,0.04031461477279663,0.04436016082763672
-0.47527816891670227,-0.12243655323982239,0.03935070335865021,-0.11109365522861481,0.0860399603843689,-0.14723414182662964
-0.14391717314720154,-0.5016951560974121,-0.3458423614501953,-0.10333652794361115,0.07670390605926514,-0.2449815273284912
0.0532539002597332,-0.5732932686805725,-0.41588613390922546,0.047618716955184937,0.03414332866668701,-0.03348761796951294
0.1567343920469284,-0.2601225674152374,-0.037992000579833984,0.2313067615032196,0.00046902894973754883,-0.002984166145324707
0.09999609738588333,-0.2709377706050873,0.19492799043655396,0.05077456682920456,0.08162432909011841,-0.010010778903961182
-0.3338698446750641,-0.43167412281036377,-0.005534816533327103,-0.14614588022232056,0.14001893997192383,0.13384145498275757
-0.7669292092323303,-0.7598214149475098,-0.11089469492435455,-0.06255389750003815,0.1723596453666687,0.13370347023010254
-0.8214273452758789,-0.5165879130363464,-0.18782465159893036,-0.03490000218153,0.14103782176971436,0.13727355003356934
-0.7045449018478394,0.3922910690307617,0.05658742040395737,0.0381547212600708,0.09559684991836548,0.14157694578170776
-0.3042629361152649,0.3094264268875122,-0.08595269918441772,-0.030423007905483246,0.13339269161224365,0.01589202880859375
0.05611467361450195,-0.2183215320110321,-0.3615025281906128,-0.0465216338634491,0.181299090385437,0.06532865762710571
0.07483526319265366,-0.4861546456813812,-0.5445670485496521,0.00021184980869293213,0.1934853196144104,0.274514377117157
-0.11763101071119308,-0.9710580110549927,-0.2994125187397003,0.20752114057540894,0.11513572931289673,0.30223220586776733
-0.38222163915634155,-1.3502569198608398,-0.030369866639375687,0.19861426949501038,0.12071806192398071,0.37013107538223267
-0.21542151272296906,-0.5671196579933167,0.2559764087200165,0.09505228698253632,0.13752701878547668,0.29308587312698364
0.10752047598361969,0.21972930431365967,0.09089095890522003,-0.13333216309547424,0.22625324130058289,0.26477885246276855
0.4569009840488434,0.2909482717514038,-0.28211554884910583,-0.06570976972579956,0.21782457828521729,0.19505667686462402
0.5648499727249146,-0.04418296366930008,-0.0892953872680664,0.21583192050457,0.0949893593788147,0.3265771269798279
-0.045722391456365585,-0.18286822736263275,0.196923166513443,0.23492351174354553,-0.0030457377433776855,0.5232946276664734
0.028130274266004562,0.30262789130210876,0.16592071950435638,-0.030386298894882202,0.07469135522842407,0.24261045455932617
0.8190704584121704,0.7537251114845276,-0.33290794491767883,-0.24625670909881592,0.1466732621192932,0.16415566205978394
0.8749458193778992,1.202476143836975,-0.46670660376548767,-0.061481326818466187,0.06459623575210571,0.4469206929206848
0.3138417601585388,0.7195044755935669,0.023075062781572342,0.2098005712032318,-0.04166889190673828,0.41515088081359863
-0.020288564264774323,-0.02326725795865059,0.29554522037506104,0.1705312728881836,-0.10729348659515381,0.2995007634162903
-0.3921773433685303,-0.654065728187561,0.26918116211891174,0.12448146194219589,-0.12340682744979858,0.18792390823364258
-0.3887351453304291,0.07226783782243729,0.46362245082855225,0.11621639877557755,-0.2762777805328369,0.22309821844100952
-0.4902433753013611,0.2537040114402771,0.39939048886299133,-0.021102912724018097,-0.10476624965667725,0.06582969427108765
-0.34182876348495483,0.20358139276504517,0.2769232988357544,-0.06641430407762527,-0.022717773914337158,-0.07625645399093628
-0.10183718800544739,0.30268868803977966,0.050263501703739166,-0.14264726638793945,0.04413259029388428,0.005247056484222412
-0.1436075121164322,0.10534834116697311,-0.05975887179374695,-0.08096988499164581,0.018501639366149902,-0.017207205295562744
0.02299715019762516,-0.03124009072780609,-0.15619966387748718,-0.03401442617177963,-0.04040789604187012,-0.011631548404693604
0.4832932651042938,0.19895288348197937,-0.31837111711502075,-0.020893894135951996,-0.08026480674743652,-0.05101311206817627
0.41507312655448914,0.07820729166269302,-0.30409595370292664,0.0723905861377716,-0.1543838381767273,0.11729508638381958
0.10621629655361176,0.09980880469083786,-0.16781890392303467,0.07779784500598907,-0.1326456069946289,0.13315749168395996
0.11314281076192856,-0.07016316056251526,-0.10609366744756699,0.0161396786570549,-0.06092959642410278,0.03533041477203369
0.08205708861351013,0.04427054524421692,-0.193343847990036,-0.10214376449584961,-0.018483340740203857,0.10660290718078613
0.0329933725297451,0.183469757437706,-0.1770154982805252,-0.03524881601333618,-0.048195064067840576,0.07014280557632446
0.11512228101491928,0.1302071213722229,-0.1098470687866211,0.07211785763502121,-0.0686800479888916,0.049855053424835205
0.19589143991470337,0.053520478308200836,-0.004276711493730545,0.12012289464473724,-0.11578589677810669,0.06843692064285278
0.09038199484348297,0.06349670886993408,0.03114420175552368,0.018462084233760834,-0.1120452880859375,0.19371646642684937
-0.16995055973529816,0.0023783447686582804,-0.04349697753787041,0.0011840052902698517,-0.0989874005317688,0.27183568477630615
-0.024358810856938362,0.06588251143693924,-0.06211426481604576,0.07384182512760162,-0.06943440437316895,0.134735107421875
0.15187518298625946,0.08295996487140656,-0.05680163949728012,0.06679052114486694,-0.03911668062210083,0.19025516510009766
0.019026432186365128,0.046184223145246506,-0.00015231897123157978,0.06022098287940025,-0.030989527702331543,0.2668303847312927
-0.027352947741746902,0.06563866138458252,0.01772298291325569,-0.009753655642271042,0.0177343487739563,0.224554181098938
-0.137631356716156,0.023264719173312187,0.02028026059269905,-0.004420507699251175,0.04554784297943115,0.24884390830993652
-0.03570042550563812,-0.0657997727394104,-0.0016434433637186885,0.05435766652226448,0.06231659650802612,0.16422992944717407
0.4063546061515808,-0.11716076731681824,-0.07566080242395401,0.06756721436977386,0.06701081991195679,0.09093070030212402
0.47379058599472046,-0.0782899409532547,-0.028683938086032867,0.050196580588817596,0.05558121204376221,0.2869553565979004
0.3185421824455261,-0.14584708213806152,0.1627027839422226,0.027530867606401443,0.06792926788330078,0.30507558584213257
0.2768922746181488,-0.2610221207141876,0.23666590452194214,0.01734931766986847,0.0865134596824646,0.20916211605072021
0.5839247107505798,-0.2187880575656891,0.19360756874084473,0.05712858587503433,0.048539042472839355,0.07355958223342896
0.7511747479438782,-0.24071148037910461,0.0953696146607399,0.034831613302230835,0.06142061948776245,0.1890581250190735
0.5956062078475952,-0.32857561111450195,0.09868893027305603,0.016040340065956116,0.08724313974380493,0.29949241876602173
0.6928961277008057,-0.5167174935340881,0.12126555293798447,0.0338052436709404,0.1055901050567627,0.14218759536743164
0.7792091965675354,-0.3494855761528015,0.19931581616401672,0.0700518861413002,0.10132670402526855,0.18132221698760986
0.6080413460731506,-0.34472909569740295,0.1974961906671524,0.025022879242897034,0.13030469417572021,0.20612448453903198
0.7965258955955505,-0.4237070083618164,0.132297083735466,0.04574604332447052,0.1636776328086853,-0.05705899000167847
0.9377020597457886,-0.2969571053981781,0.24570928514003754,0.09301631897687912,0.18510085344314575,-0.047966063022613525
0.6661550998687744,-0.16807423532009125,0.2452007532119751,-0.01001383364200592,0.1472812294960022,0.13111919164657593
0.405562162399292,-0.33494746685028076,0.16283343732357025,0.042944878339767456,0.14268815517425537,0.06478631496429443
0.49761059880256653,-0.3496001958847046,0.05233406648039818,0.02780209481716156,0.21040469408035278,-0.1297013759613037
0.868268609046936,-0.25423938035964966,-0.006333774421364069,0.06691303849220276,0.21015894412994385,-0.2547982931137085
0.95038241147995,0.1424122154712677,0.09258868545293808,0.05697523057460785,0.16835898160934448,-0.11843878030776978
0.5871826410293579,0.2133593112230301,0.04657679423689842,-0.04491841793060303,0.16125530004501343,0.04002273082733154
0.2736962139606476,0.006323529407382011,-0.08440162986516953,0.030219241976737976,0.12461018562316895,0.0424080491065979
0.196927011013031,-0.0342223085463047,-0.01015709713101387,0.12464264035224915,0.0795392394065857,-0.06455636024475098
0.4487975239753723,0.16277821362018585,0.028403159230947495,-0.02042248845100403,0.08635908365249634,-0.20587098598480225
0.3402074873447418,0.15355424582958221,0.007060240022838116,-0.04314367473125458,0.009848237037658691,0.004293084144592285
-0.034819453954696655,0.09631695598363876,0.006831800099462271,-0.009657144546508789,-0.04586297273635864,0.037912607192993164
-0.024494832381606102,0.08144307136535645,-0.029122300446033478,-0.014848113059997559,-0.06900399923324585,-0.18577086925506592
0.03832581639289856,-0.14006204903125763,-0.07398097217082977,-0.015531346201896667,-0.08339983224868774,-0.19688886404037476
0.05254575237631798,-0.1583767682313919,-0.12567582726478577,-0.06500057876110077,-0.08226042985916138,-0.25737160444259644
0.12890242040157318,0.06253336369991302,-0.11122377216815948,-0.0653432160615921,-0.08932310342788696,-0.2886018753051758
0.009257574565708637,-0.028684429824352264,-0.1879500448703766,-0.056633174419403076,-0.11006641387939453,-0.12460070848464966
-0.06365183740854263,0.0048490059562027454,-0.1373017430305481,-0.03144891560077667,-0.11102664470672607,-0.18712913990020752
0.061868228018283844,0.2485390305519104,-0.19183020293712616,-0.08657486736774445,-0.09938210248947144,-0.21884584426879883
0.05210021138191223,0.23883627355098724,-0.23768015205860138,-0.008968919515609741,-0.1476314663887024,-0.1650768518447876
-0.04438669607043266,0.13534553349018097,-0.2297915667295456,0.0660296082496643,-0.16946172714233398,-0.17099815607070923
-0.07920923084020615,0.014991575852036476,-0.17441129684448242,0.05904317647218704,-0.16590499877929688,-0.170484721660614
-0.12822507321834564,0.08627183735370636,-0.1376691609621048,-0.024986952543258667,-0.17858093976974487,-0.197858989238739
-0.23019985854625702,0.22704929113388062,-0.18110430240631104,-0.061680927872657776,-0.22298824787139893,-0.2693449854850769
-0.08436691761016846,0.1970829963684082,-0.254153847694397,-0.002666175365447998,-0.23983222246170044,-0.37607210874557495
-0.11860573291778564,0.10857509076595306,-0.2599330246448517,0.01803027093410492,-0.21659249067306519,-0.1972317099571228
-0.25894391536712646,0.04463213309645653,-0.21586303412914276,-0.0007733255624771118,-0.1997605562210083,-0.2654231786727905
-0.09587506949901581,-0.0076660094782710075,-0.25144878029823303,-0.07076558470726013,-0.21296828985214233,-0.37755638360977173
-0.14674288034439087,-0.11136581748723984,-0.2692950367927551,-0.03929340839385986,-0.23436349630355835,-0.25038009881973267
-0.21190206706523895,-0.08299398422241211,-0.15738433599472046,0.05652677267789841,-0.22783231735229492,-0.3275389075279236
-0.04642213508486748,0.13907979428768158,-0.08405276387929916,0.011193051934242249,-0.23144137859344482,-0.3771088123321533
-0.07214345037937164,0.18242688477039337,-0.12783698737621307,-0.06779730319976807,-0.23264384269714355,-0.21051037311553955
-0.22808843851089478,-0.009199624881148338,-0.05962187051773071,0.07938811182975769,-0.2492472529411316,-0.24051517248153687
-0.3714233338832855,-0.09650535136461258,0.03762010112404823,0.07067760080099106,-0.23842674493789673,-0.3476802110671997
-0.3230554461479187,-0.09089361876249313,0.06106432527303696,0.0030107051134109497,-0.22905254364013672,-0.438997745513916
-0.26507771015167236,-0.11026010662317276,-0.026020966470241547,-0.03444455564022064,-0.2105843424797058,-0.3984583616256714
-0.24022698402404785,0.1304829716682434,-0.016076941043138504,-0.07545600831508636,-0.159634530544281,-0.40348386764526367
-0.15974384546279907,0.16682149469852448,-0.07213970273733139,-0.03559984266757965,-0.1308150291442871,-0.4378352761268616
-0.09352025389671326,0.037549957633018494,-0.10037701576948166,-0.018813490867614746,-0.1511526107788086,-0.38576698303222656
0.015368627384305,-0.09183521568775177,-0.11467494815587997,0.029925070703029633,-0.1623409390449524,-0.3565695285797119
-0.029748018831014633,-0.11203057318925858,0.002519619883969426,0.028058983385562897,-0.09324443340301514,-0.18506598472595215
-0.07846799492835999,-0.050579849630594254,0.0737539604306221,0.013206489384174347,-0.06285899877548218,-0.15386134386062622
-0.1435573697090149,0.048757996410131454,0.1384955197572708,0.03008440136909485,-0.05412560701370239,-0.13136506080627441
-0.167723149061203,-0.003792957868427038,0.21036596596240997,0.07647235691547394,-0.062031686305999756,-0.14933019876480103
-0.1529402732849121,-0.00948535930365324,0.18909403681755066,0.005927063524723053,-0.08777713775634766,-0.16977858543395996
-0.16227062046527863,-0.006686473730951548,0.1282234936952591,-0.029605120420455933,-0.04365593194961548,-0.1545121669769287
-0.15743286907672882,-0.013738427311182022,0.11867298185825348,-0.029247060418128967,0.03281545639038086,-0.18289518356323242
-0.2199622243642807,0.024109449237585068,0.22032524645328522,0.00038045644760131836,0.06028014421463013,-0.14587920904159546
-0.1814926713705063,0.05599842220544815,0.2295294851064682,-0.0016822591423988342,0.03198939561843872,-0.20175182819366455
-0.1028810515999794,0.027272189036011696,0.11130387336015701,-0.03116019070148468,0.011849403381347656,-0.12359112501144409
-0.09971008449792862,0.04776306450366974,0.0075122760608792305,-0.0625329241156578,0.07264786958694458,-0.015104889869689941
-0.15618734061717987,0.056357353925704956,-0.047073863446712494,-0.060248084366321564,0.11923891305923462,0.03232485055923462
-0.3214140236377716,-0.07945901900529861,0.00914536602795124,-0.003212869167327881,0.17212140560150146,0.11889219284057617
-0.3593165874481201,-0.1382768154144287,0.044815123081207275,0.053652189671993256,0.20097202062606812,0.11850202083587646
-0.3975696861743927,-0.09170328080654144,-0.0015864516608417034,0.06337381154298782,0.16654372215270996,0.13209813833236694
-0.3803613483905792,0.02642040327191353,-0.059368573129177094,0.026654861867427826,0.1577434539794922,0.1520402431488037
-0.3781323730945587,0.07692795246839523,-0.05013877898454666,0.024124793708324432,0.1964125633239746,0.19201242923736572
-0.49008074402809143,0.1289556473493576,-0.0034916396252810955,0.020234256982803345,0.20744061470031738,0.2319745421409607
-0.5353299975395203,0.10440194606781006,-0.02543792687356472,-0.0022968798875808716,0.20839965343475342,0.27595484256744385
-0.5660716891288757,0.05806025117635727,-0.00981239601969719,0.03349167853593826,0.19304662942886353,0.2890135645866394
-0.4949764311313629,0.003431771183386445,0.006588668096810579,0.0729457288980484,0.20354974269866943,0.23952198028564453
-0.3711755573749542,-0.008683504536747932,-0.015233367681503296,0.04235083609819412,0.21842944622039795,0.17946702241897583
-0.2661765217781067,0.010006383061408997,-0.0269384253770113,0.021556727588176727,0.1809055209159851,0.17922616004943848
-0.15816619992256165,-0.05128834396600723,-0.08773835003376007,-0.00683555006980896,0.16960442066192627,0.19727933406829834
-0.056717611849308014,-0.14832423627376556,-0.08418966829776764,0.025398224592208862,0.1492304801940918,0.2010599970817566
-0.05626583844423294,-0.12956328690052032,-0.005829980596899986,0.06855656206607819,0.11539864540100098,0.24989676475524902
0.0750637874007225,-0.0876355990767479,0.035743482410907745,0.09012120962142944,0.09735578298568726,0.24676287174224854
0.3361543118953705,-0.049787361174821854,-0.05538277328014374,-0.0328872874379158,0.11995303630828857,0.18534791469573975
0.37244004011154175,-0.07505052536725998,-0.039594151079654694,0.032739609479904175,0.06066107749938965,0.24707627296447754
0.21230044960975647,-0.08021184802055359,0.02887890115380287,0.06713997572660446,-0.01849442720413208,0.3419225811958313
0.16301582753658295,-0.11866758018732071,0.08043919503688812,0.10466739535331726,-0.04081648588180542,0.26669782400131226
0.16450485587120056,-0.030006658285856247,0.0016082462389022112,0.017498284578323364,0.0014004707336425781,0.2043411135673523
0.06942164897918701,-0.018994467332959175,-0.05196194350719452,-0.002121381461620331,0.0025524497032165527,0.1598702073097229
0.0005656671710312366,-0.05463719367980957,0.0017561023123562336,0.05338418483734131,-0.038191795349121094,0.1108400821685791
0.049425121396780014,-0.030458031222224236,0.024795087054371834,0.0569634810090065,-0.034749746322631836,0.03466320037841797
0.10139603167772293,0.01137632131576538,0.008968050591647625,0.041752733290195465,-0.043752968311309814,-0.013509690761566162
0.1067139133810997,0.030200865119695663,-0.05686960741877556,-0.004232272505760193,-0.05836552381515503,0.02542775869369507
0.14693394303321838,0.014814946800470352,-0.12767630815505981,-0.029776528477668762,-0.05486500263214111,-0.022403597831726074
0.10675974935293198,-0.012479817494750023,-0.1604309380054474,-0.009620040655136108,-0.06866598129272461,0.04866236448287964
0.07412126660346985,0.04210573434829712,-0.10397607833147049,0.029823139309883118,-0.0742502212524414,0.06316983699798584
0.09612572938203812,0.040738172829151154,-0.03385407477617264,0.039653412997722626,-0.06388866901397705,0.07800483703613281
0.12218264490365982,-0.03104664757847786,-0.009599350392818451,0.04383585602045059,-0.05210697650909424,0.06328946352005005
0.09167812019586563,-0.030482331290841103,-0.039713162928819656,0.012298211455345154,-0.05234581232070923,0.11726111173629761
0.09060261398553848,-0.008262047544121742,-0.08822810649871826,-0.023464001715183258,-0.05247300863265991,0.10171777009963989
0.015181612223386765,-0.024084310978651047,-0.072236068546772,0.009554795920848846,-0.03987079858779907,0.14724159240722656
-0.09712734818458557,0.012233030050992966,0.0411919429898262,0.041437894105911255,-0.01380312442779541,0.1810644268989563
-0.12658078968524933,0.029383886605501175,0.07215566188097,0.04002127796411514,0.020180881023406982,0.1558241844177246
-0.13098591566085815,-0.04874805361032486,0.023252548649907112,0.031658612191677094,0.015829145908355713,0.15985935926437378
-0.17790208756923676,-0.06678428500890732,-0.016936607658863068,0.005801700055599213,0.017289817333221436,0.19890421628952026
-0.15561367571353912,0.026840534061193466,0.041429080069065094,-0.009115837514400482,0.048922717571258545,0.1718260645866394
-0.11246860027313232,0.06628701090812683,0.13795055449008942,0.040598854422569275,0.08440226316452026,0.1620018482208252
-0.0993543192744255,-0.004190754145383835,0.1128818690776825,0.01933567225933075,0.0883634090423584,0.18582087755203247
-0.03835952281951904,-0.01077108271420002,-0.005931752733886242,-0.025705769658088684,0.08645045757293701,0.198042094707489
-0.05621837079524994,0.05823422223329544,-0.06985830515623093,-0.030580967664718628,0.10325270891189575,0.24690306186676025
-0.053671326488256454,0.1378360390663147,0.05753135308623314,0.03244689851999283,0.12224853038787842,0.2691478729248047
0.015064970590174198,0.11178705096244812,0.12749087810516357,0.0495486706495285,0.14511293172836304,0.21472090482711792
0.0831647738814354,0.0743919387459755,0.04054121673107147,0.0236344113945961,0.114163339138031,0.19762277603149414
0.14745929837226868,0.02527044340968132,-0.07326173782348633,-0.01122148334980011,0.12117105722427368,0.18206912279129028
0.24324694275856018,-0.028176093474030495,-0.1584334820508957,-0.016289375722408295,0.15592509508132935,0.17800569534301758
0.26627758145332336,-0.1216401681303978,-0.136715829372406,0.038463294506073,0.14101487398147583,0.1905517578125
0.2816011607646942,-0.21730664372444153,-0.036838240921497345,0.07069624215364456,0.12668955326080322,0.2300284504890442
0.45223575830459595,-0.2228567749261856,-0.052168216556310654,0.027540534734725952,0.1596282720565796,0.1636926531791687
0.6923698782920837,-0.12183771282434464,-0.12433439493179321,-0.026788681745529175,0.17692101001739502,0.03156006336212158
0.5556387901306152,-0.07837719470262527,-0.14250685274600983,0.006329953670501709,0.09196078777313232,0.09304952621459961
0.4817795157432556,-0.08562257140874863,-0.07915561646223068,0.027929455041885376,0.09166151285171509,0.13284623622894287
0.5081450343132019,-0.13279776275157928,-0.020026741549372673,0.02400214970111847,0.16081130504608154,0.08782261610031128
0.5825685858726501,-0.15811045467853546,0.04332297667860985,0.0890607237815857,0.14941680431365967,0.01651233434677124
0.7341358661651611,-0.11732069402933121,-0.014372109435498714,0.01664179563522339,0.13782668113708496,-0.06694614887237549
0.800380527973175,-0.16356295347213745,-0.12382471561431885,-0.05459146201610565,0.1415938138961792,-0.1492173671722412
0.603805422782898,-0.1786801964044571,-0.06886079162359238,0.048863038420677185,0.15172016620635986,-0.04669445753097534
0.4456559419631958,-0.11171141266822815,0.06633122265338898,0.08776844292879105,0.15235662460327148,0.047702133655548096
0.625067949295044,-0.12302860617637634,0.07883083075284958,0.0711502656340599,0.1349489688873291,-0.09163349866867065
0.7615250945091248,-0.12959331274032593,-0.06387460231781006,-0.032716840505599976,0.12082475423812866,-0.24594593048095703
0.6142587065696716,-0.16996470093727112,-0.09400486201047897,-0.0077031925320625305,0.07109993696212769,-0.12374919652938843
0.41203203797340393,-0.15482953190803528,-0.03166813775897026,0.0205112025141716,0.04783773422241211,-0.09497278928756714
0.3071935474872589,-0.11772239953279495,0.12620556354522705,0.11017554998397827,-0.03138446807861328,-0.09786093235015869
0.31611695885658264,-0.11780231446027756,0.09705732017755508,-0.00032926350831985474,-0.036516427993774414,-0.18664050102233887
0.3898659646511078,-0.16117259860038757,0.0359405055642128,-0.04125557839870453,-0.06739646196365356,-0.2637074589729309
0.53782057762146,-0.17385032773017883,-0.02826305665075779,-0.031004786491394043,-0.1238967776298523,-0.361818790435791
0.4676239788532257,-0.0487838089466095,-0.0421924963593483,-0.05049312859773636,-0.2023608684539795,-0.32769930362701416
0.20609676837921143,0.04007282480597496,0.03070993907749653,-0.002348877489566803,-0.23843765258789062,-0.09957253932952881
0.22403934597969055,-0.03117082640528679,0.0346422977745533,-0.08399565517902374,-0.18079084157943726,-0.2746813893318176
0.32876041531562805,-0.14048613607883453,-0.012739596888422966,-0.08982733637094498,-0.21284735202789307,-0.4247262477874756
0.258572518825531,-0.08458738029003143,0.09996569901704788,0.004302941262722015,-0.29122012853622437,-0.43052375316619873
0.18436762690544128,-0.12937107682228088,0.11666493862867355,-0.06919464468955994,-0.28264814615249634,-0.31278491020202637
0.026542410254478455,-0.2561795711517334,0.07659704983234406,-0.09735026955604553,-0.3056432604789734,-0.2747001647949219
-0.04180468991398811,-0.10129284858703613,-0.04040892794728279,-0.09304927289485931,-0.4379669427871704,-0.23177266120910645
-0.009263359010219574,-0.055044639855623245,-0.19205588102340698,-0.22387348115444183,-0.47883695363998413,-0.42851680517196655
-0.0883525013923645,-0.10796234756708145,-0.2294134497642517,-0.24419566988945007,-0.4616497755050659,-0.43746137619018555
-0.16820725798606873,0.016288956627249718,-0.22689847648143768,-0.12470909208059311,-0.47049570083618164,-0.555290699005127
-0.21381518244743347,-0.10750425606966019,-0.26082828640937805,-0.07315756380558014,-0.47322261333465576,-0.4523223042488098
0.004309713374823332,-0.12106221169233322,-0.45570164918899536,-0.13909055292606354,-0.4081927537918091,-0.5574357509613037
0.017474977299571037,-0.16251567006111145,-0.40308070182800293,-0.03634698688983917,-0.36257559061050415,-0.45205003023147583
-0.013844922184944153,-0.055962514132261276,-0.14079362154006958,-0.0029016733169555664,-0.2989204525947571,-0.3228239417076111
-0.04855528101325035,0.04999060556292534,-0.08311377465724945,-0.0017948895692825317,-0.2680514454841614,-0.32444238662719727
-0.09097275882959366,0.020402301102876663,-0.12711241841316223,0.010432623326778412,-0.20977014303207397,-0.2678226828575134
-0.1247386634349823,-0.0350683219730854,-0.2681572139263153,-0.08413699269294739,-0.07112956047058105,-0.1338484287261963
-0.04127228260040283,-0.07406820356845856,-0.253959596157074,-0.12962909042835236,0.001311957836151123,-0.1359405517578125
-0.208542600274086,-0.09312256425619125,-0.03271473944187164,0.10161124169826508,-0.10502892732620239,-0.13302749395370483
-0.31709057092666626,0.02214733138680458,0.1040840670466423,0.04942519962787628,-0.04465794563293457,-0.10092693567276001
-0.43916696310043335,0.16071146726608276,0.047671183943748474,0.018372945487499237,0.025383591651916504,-0.06142246723175049
-0.2892208695411682,0.22128373384475708,-0.11791171878576279,-0.12873318791389465,0.1046648621559143,-0.16221046447753906
-0.4745042324066162,0.012137217447161674,-0.1178610697388649,-0.03102569282054901,0.04918038845062256,-0.12908750772476196
-0.6381306052207947,0.08483896404504776,0.09703436493873596,0.19459983706474304,-0.031220734119415283,-0.0518190860748291
-0.5951862931251526,0.12985412776470184,0.09097962081432343,0.10587521642446518,0.06866347789764404,-0.15138190984725952
-0.4357905983924866,0.19809852540493011,0.03441576659679413,-0.001913420855998993,0.11223375797271729,-0.15222710371017456
-0.4925033152103424,0.26680880784988403,0.14861120283603668,0.08422810584306717,0.04850822687149048,-0.09806114435195923
-0.5962612628936768,0.1483934074640274,0.25538119673728943,0.1103634387254715,-0.054149746894836426,-0.07182919979095459
-0.7333709597587585,0.055274076759815216,0.2249022126197815,0.0581418052315712,0.015068769454956055,0.03685629367828369
-0.5629767775535583,0.29528260231018066,0.08162908256053925,-0.1310426890850067,0.15568166971206665,-0.03645634651184082
-0.5783517956733704,0.33746063709259033,0.11619987338781357,-0.024803921580314636,0.17768257856369019,-0.14430618286132812
-0.40031635761260986,0.28078535199165344,0.10269108414649963,0.08660375326871872,0.06173771619796753,-0.11157619953155518
-0.0795111209154129,0.21167607605457306,-0.04777117073535919,-0.01766478270292282,0.10996508598327637,-0.05969274044036865
-0.12227136641740799,0.3288269340991974,-0.012081350199878216,0.02727113664150238,0.1818864345550537,0.1981462836265564
-0.33983662724494934,0.19031311571598053,0.12800879776477814,0.07831410318613052,0.26971668004989624,0.41754722595214844
-0.22263827919960022,0.38361531496047974,0.05870583653450012,0.06792372465133667,0.24301451444625854,0.2429148554801941
-0.2851296365261078,0.4036204218864441,-0.012873007915914059,0.06802917271852493,0.1975020170211792,0.2885928153991699
-0.06675008684396744,0.3882276117801666,-0.09677517414093018,0.03254930302500725,0.2726286053657532,0.26201528310775757
0.09183000773191452,0.14916935563087463,-0.03731560707092285,0.06685987114906311,0.34667032957077026,0.19074362516403198
0.1964465081691742,0.030590489506721497,-0.007019556127488613,0.14303362369537354,0.296907901763916,0.3095960021018982
0.3363066017627716,0.04699113592505455,-0.050230082124471664,0.16574189066886902,0.1848074197769165,0.2195398211479187
0.42951783537864685,0.005817129742354155,-0.15427234768867493,0.07172596454620361,0.21798866987228394,0.32667040824890137
0.42678025364875793,-0.12336437404155731,-0.16485141217708588,0.029848776757717133,0.21766847372055054,0.3479738235473633
0.5043017864227295,-0.2206735759973526,-0.12560637295246124,0.040867216885089874,0.15909802913665771,0.3677922487258911
0.544255256652832,-0.2743891775608063,-0.15696419775485992,0.0960533618927002,0.06441807746887207,0.2347279191017151
0.47729307413101196,-0.1496378779411316,-0.24728623032569885,-0.024202022701501846,0.015382349491119385,0.24146848917007446
-0.12962204217910767,0.07639671862125397,-0.1295434534549713,0.03850975260138512,-0.02986389398574829,0.43750613927841187
-0.16373278200626373,0.15378142893314362,-0.15538126230239868,0.03066948801279068,0.036113083362579346,0.3086585998535156
0.21974985301494598,-0.10446784645318985,-0.33903414011001587,-0.02130875736474991,0.023531973361968994,-0.11198598146438599
-0.08042479306459427,-0.06815414130687714,-0.2509661614894867,0.0960194319486618,-0.11200064420700073,0.11522459983825684
-0.3136127293109894,0.12903964519500732,-0.04750442877411842,0.08449454605579376,-0.1311970353126526,0.20942121744155884
-0.1912502497434616,0.21387873589992523,0.06742554157972336,0.034913431853055954,-0.05626487731933594,0.021131157875061035
0.027062630280852318,0.19756774604320526,0.05091102421283722,-0.04589705914258957,-0.02969604730606079,-0.05211329460144043
0.0033815563656389713,-0.0025818641297519207,0.024308960884809494,-0.05500226840376854,-0.07526606321334839,0.051747262477874756
-0.05641213804483414,-0.028856538236141205,0.10359591990709305,0.01297365128993988,-0.10939794778823853,0.12578070163726807
-0.1078752726316452,0.007265077903866768,0.18690194189548492,0.018364988267421722,-0.06810247898101807,0.17674529552459717
-0.19872170686721802,-0.020851053297519684,0.19981682300567627,0.023744598031044006,-0.03670018911361694,0.2675700783729553
-0.14364612102508545,0.021235579624772072,0.10722316056489944,-0.10064278542995453,0.0017288923263549805,0.18315726518630981
-0.09225130081176758,0.040833763778209686,0.0721319392323494,-0.07740369439125061,0.007367491722106934,0.12891244888305664
-0.12079958617687225,0.04348527640104294,0.14182579517364502,-0.016398809850215912,0.013992905616760254,0.11895126104354858
-0.21377284824848175,0.1237582117319107,0.24515585601329803,-0.0009612776339054108,0.038895487785339355,0.12360537052154541
-0.1736573725938797,0.04669356346130371,0.17328642308712006,-0.07976686954498291,0.0829969048500061,0.12125825881958008
-0.14195340871810913,-0.05129915475845337,0.10036978870630264,-0.08210282772779465,0.06713920831680298,0.1148672103881836
-0.2134789228439331,-0.03990722820162773,0.0706336498260498,-0.044004347175359726,0.05364423990249634,0.2524212598800659
-0.17700117826461792,0.015501048415899277,0.08188242465257645,-0.007858961820602417,0.04690581560134888,0.22094237804412842
-0.05844051018357277,0.09659526497125626,0.12558415532112122,-0.03158053755760193,0.08204299211502075,0.18175816535949707
-0.1013142317533493,-0.01956404373049736,0.10265596210956573,-0.049883462488651276,0.10235953330993652,0.2307262420654297
-0.18672901391983032,-0.06804841756820679,0.03145049884915352,-0.05602402612566948,0.10567206144332886,0.3142702579498291
-0.1612960398197174,-0.0014894702471792698,-0.08082497119903564,-0.057453978806734085,0.08544272184371948,0.25108885765075684
-0.08710009604692459,0.0038080899976193905,-0.04985320195555687,-0.018781650811433792,0.10617256164550781,0.21840119361877441
0.05721217393875122,-0.04170581325888634,0.046369630843400955,0.008052460849285126,0.15513169765472412,0.17829394340515137
0.20873896777629852,-0.0967140793800354,0.021262573078274727,0.003998838365077972,0.17274725437164307,0.20723319053649902
0.4776943027973175,-0.11265487223863602,-0.18259526789188385,-0.05048526078462601,0.17774862051010132,0.06923454999923706
0.42976921796798706,-0.22142446041107178,-0.342328280210495,-0.10593472421169281,0.19025897979736328,0.2140026092529297
0.2931700646877289,-0.19552336633205414,-0.27939003705978394,0.013569939881563187,0.1896631121635437,0.2804570198059082
0.4506973624229431,-0.015851888805627823,-0.15669073164463043,0.10127333551645279,0.2092093825340271,0.1464017629623413
0.6027094125747681,0.07369424402713776,-0.09947550296783447,0.05137450620532036,0.2360941767692566,0.050288617610931396
0.6121511459350586,0.019797351211309433,-0.20850059390068054,-0.006078559905290604,0.1944580078125,0.05443572998046875
0.5969429612159729,-0.19805912673473358,-0.29713675379753113,-0.020578622817993164,0.21905070543289185,0.007606387138366699
0.5951442718505859,-0.23516514897346497,-0.10098402947187424,0.1638762503862381,0.21949130296707153,-0.09271973371505737
0.5389739274978638,-0.14297056198120117,0.10494516789913177,0.17239227890968323,0.21890413761138916,-0.09577524662017822
0.6351742744445801,-0.11740343272686005,0.12139886617660522,0.05439922958612442,0.16910260915756226,-0.19962555170059204
0.5985013842582703,-0.0910872295498848,-0.005975441075861454,-0.0441165566444397,0.08598124980926514,-0.209722638130188
0.33051222562789917,-0.023023247718811035,0.040546316653490067,0.016997259110212326,0.027915239334106445,-0.16601353883743286
0.33083873987197876,0.05219307914376259,0.10673784464597702,0.06745199114084244,-0.001029670238494873,-0.20337384939193726
0.47888606786727905,-0.09593122452497482,0.02878994308412075,-0.014200441539287567,-0.0012129545211791992,-0.30382251739501953
0.5390907526016235,-0.11559955775737762,-0.03203713521361351,-0.04038483276963234,-0.051044583320617676,-0.27911990880966187
0.5430837869644165,-0.006446169223636389,0.07118256390094757,0.051420506089925766,-0.09779965877532959,-0.2552385926246643
0.42747199535369873,0.10040952265262604,0.15791718661785126,0.048181403428316116,-0.06870245933532715,-0.21930980682373047
0.039134055376052856,-0.04038837552070618,0.2462977170944214,0.10394378006458282,-0.07865840196609497,-0.00373232364654541
0.32183101773262024,0.029820075258612633,0.07363858073949814,-0.11412517726421356,-0.02107536792755127,-0.1814061999320984
0.410591185092926,-0.0338209792971611,-0.058490101248025894,-0.0811491459608078,-0.06163311004638672,-0.2616722583770752
0.2978740632534027,-0.0820084884762764,0.02533811703324318,0.05781257152557373,-0.10449635982513428,-0.12394773960113525
0.1022581085562706,-0.10226940363645554,0.14760874211788177,0.06522997468709946,-0.07164198160171509,-0.04994779825210571
-0.004660068079829216,-0.07342558354139328,0.1300870031118393,-0.02672763168811798,-0.059716105461120605,-0.094615638256073
0.006478949915617704,0.006983024999499321,-0.04344572871923447,-0.16096234321594238,-0.09249132871627808,-0.16320908069610596
-0.021131468936800957,0.07838692516088486,-0.05257628113031387,-0.023549094796180725,-0.17274397611618042,-0.17761021852493286
0.0684066116809845,0.11475548148155212,0.06182704493403435,0.10412705689668655,-0.19102990627288818,-0.2583412528038025
-0.031011197715997696,0.054113224148750305,0.1911526918411255,0.09874752163887024,-0.23871660232543945,-0.2320185899734497
-0.16530929505825043,0.2652275562286377,0.24513785541057587,-0.04788155108690262,-0.26268208026885986,-0.1547030806541443
-0.1377829909324646,0.325026273727417,-0.030318913981318474,-0.2423885613679886,-0.23873907327651978,-0.30255502462387085
-0.008896205574274063,-0.10337834060192108,-0.2471102476119995,-0.10179930925369263,-0.30793583393096924,-0.3851526975631714
-0.03657826781272888,-0.2290489822626114,-0.20826101303100586,0.05773120000958443,-0.39188092947006226,-0.42594265937805176
-0.2576560080051422,-0.0015561343170702457,-0.011106698773801327,0.04035395011305809,-0.37667983770370483,-0.32537585496902466
-0.3904002010822296,0.12055142223834991,0.01862051896750927,-0.11119154840707779,-0.33387869596481323,-0.31184208393096924
-0.4256031811237335,0.24365560710430145,-0.07222625613212585,-0.14396527409553528,-0.37970197200775146,-0.3679797649383545
-0.5010583996772766,0.1494845300912857,-0.044167350977659225,0.005432646721601486,-0.448055624961853,-0.3689858913421631
-0.5247167944908142,0.07573939859867096,0.07512867450714111,0.0677018016576767,-0.48814892768859863,-0.4847663640975952
-0.5106152296066284,-0.0033867000602185726,0.13106395304203033,0.0015539191663265228,-0.4629245400428772,-0.4684215784072876
-0.3577229082584381,-0.09671583771705627,0.12580129504203796,-0.046104371547698975,-0.36559540033340454,-0.5103002786636353
-0.1647874414920807,-0.07199825346469879,0.08161401003599167,-0.14481982588768005,-0.2290547490119934,-0.5474592447280884
-0.33776426315307617,-0.09525424987077713,0.03414715826511383,-0.1709776073694229,-0.1907801628112793,-0.3491586446762085
-0.33995920419692993,-0.04716559126973152,0.01749415695667267,-0.14843574166297913,-0.18591582775115967,-0.28522515296936035
-0.30930647253990173,-0.02694946527481079,0.010195432230830193,-0.06825801730155945,-0.14048635959625244,-0.2490277886390686
-0.21792617440223694,-0.06580069661140442,0.054965779185295105,-0.0041330233216285706,-0.050868213176727295,-0.20216405391693115
-0.2825518250465393,-0.17841987311840057,0.07777981460094452,0.05872301012277603,0.03749990463256836,-0.18132942914962769
-0.3636786639690399,-0.22757384181022644,0.00897837895900011,-0.04830797016620636,-0.01638239622116089,-0.06697303056716919
-0.29441574215888977,-0.1543474644422531,-0.11231152713298798,-0.1781732439994812,-0.04200869798660278,-0.149927020072937
-0.24954891204833984,0.02179126627743244,-0.0919114425778389,-0.13347338140010834,-0.015318989753723145,-0.1021280288696289
-0.2997930645942688,0.152960866689682,0.19072626531124115,-0.010031715035438538,0.030959248542785645,0.000321805477142334
-0.282416433095932,0.2564779818058014,0.22512388229370117,0.015204288065433502,0.08365559577941895,0.0053961873054504395
-0.24855521321296692,0.1407480090856552,0.07562659680843353,0.02563919872045517,0.008562982082366943,-0.07509994506835938
-0.2974710166454315,-0.03508882597088814,0.03453688696026802,0.10653414577245712,0.018537819385528564,0.005684494972229004
-0.40375304222106934,-0.09381142258644104,0.1405952125787735,0.0676790177822113,0.0870925784111023,0.10089802742004395
-0.5325691103935242,-0.053182266652584076,0.288835346698761,0.09844695776700974,0.1191287636756897,0.20606058835983276
-0.605125367641449,0.00725182332098484,0.2929811179637909,-0.034872062504291534,0.1652020812034607,0.1526172161102295
-0.5532888174057007,0.09715095162391663,0.19517439603805542,-0.020427606999874115,0.1455850601196289,0.13707733154296875
-0.2663768529891968,0.29238811135292053,0.11519402265548706,-0.005469471216201782,0.147657573223114,0.0108414888381958
-0.19793905317783356,0.36894869804382324,0.08743973076343536,0.041186608374118805,0.19412392377853394,0.09272396564483643
-0.422818124294281,0.11103503406047821,0.21937794983386993,0.09825634956359863,0.24132102727890015,0.2298404574394226
-0.547218918800354,0.04903944581747055,0.2196810245513916,0.09011698514223099,0.2599064111709595,0.30659186840057373
-0.408208429813385,0.042909566313028336,0.016401823610067368,-0.004921957850456238,0.22700238227844238,0.14239764213562012
-0.13449668884277344,0.023020373657345772,-0.2040214240550995,-0.04231758415699005,0.2144889235496521,0.09314322471618652
-0.1136893555521965,0.09620366245508194,-0.009959849528968334,0.09832315891981125,0.20244526863098145,0.22389823198318481
-0.09663578867912292,0.05525814741849899,0.12346772104501724,0.0916958749294281,0.24072349071502686,0.25828373432159424
0.13421034812927246,0.010479846969246864,0.06451502442359924,0.06698320060968399,0.2019907832145691,0.10842740535736084
0.2789713442325592,0.15092246234416962,-0.09601745009422302,-0.005905427038669586,0.16493332386016846,0.11015629768371582
0.31864964962005615,0.19285961985588074,-0.20278826355934143,0.0414213091135025,0.1174725890159607,0.22396057844161987
0.5445826053619385,0.16412490606307983,-0.062245264649391174,0.1707741916179657,0.12026113271713257,0.14168524742126465
0.6522727012634277,0.05011368915438652,0.0735100656747818,0.15876728296279907,0.17284172773361206,0.06739431619644165
0.5548088550567627,-0.040004439651966095,0.12279846519231796,0.08511168509721756,0.1458759307861328,0.1851731538772583
0.49305880069732666,-0.05791351571679115,-0.05154739320278168,-0.029993444681167603,0.11096376180648804,0.196563720703125
0.4134078025817871,-0.12586000561714172,-0.13739588856697083,-0.010350123047828674,0.07166677713394165,0.16787219047546387
0.3313586711883545,-0.18771374225616455,-0.07162800431251526,0.07817497849464417,0.06122112274169922,0.14665502309799194
-0.09845390915870667,-0.20201840996742249,0.05631234124302864,0.13814735412597656,0.030684471130371094,0.2851823568344116
-0.29212310910224915,-0.13822713494300842,0.016330448910593987,0.11598269641399384,0.022009670734405518,0.24389714002609253
0.03788338974118233,0.06662466377019882,-0.2713443338871002,-0.0732586458325386,0.044439077377319336,-0.12426704168319702
-0.003330640261992812,0.06843169033527374,-0.32946887612342834,0.018419675529003143,-0.032617270946502686,-0.016123652458190918
0.003913004416972399,0.07606743276119232,-0.24874058365821838,0.0747155025601387,-0.04858505725860596,0.04235208034515381
0.09256989508867264,0.030934501439332962,-0.13810379803180695,0.1054103896021843,-0.017306208610534668,0.018141329288482666
0.07286569476127625,-0.034507159143686295,-0.0479789637029171,0.0969337671995163,-0.02074742317199707,0.04448592662811279
-0.03795323893427849,-0.15377402305603027,-0.04183154180645943,0.046958714723587036,4.088878631591797e-05,0.16786682605743408
-0.011701727285981178,-0.09515692293643951,-0.052353378385305405,0.014860395342111588,0.03954964876174927,0.12885695695877075
-0.04532419145107269,-0.02602614462375641,-0.08155488222837448,-0.018748756498098373,0.06853324174880981,0.21202528476715088
-0.023563094437122345,-0.027810238301753998,-0.05632665380835533,-0.0014008469879627228,0.08718663454055786,0.18523889780044556
-0.0029019061475992203,-0.06419116258621216,-0.007484921254217625,0.014319725334644318,0.10526341199874878,0.20032727718353271
-0.07585165649652481,-0.08255001157522202,0.0038579143583774567,0.014231633394956589,0.11820429563522339,0.2703970670700073
-0.05003755912184715,-0.09680503606796265,-0.04907912760972977,-0.021111994981765747,0.13769561052322388,0.23712068796157837
0.013729950413107872,-0.005211450159549713,-0.1449366807937622,-0.06973591446876526,0.1646866798400879,0.18666678667068481
0.14423112571239471,0.03876820579171181,-0.18278567492961884,-0.01817569136619568,0.17588412761688232,0.10561150312423706
0.30921903252601624,0.0020921307150274515,-0.08364445716142654,0.08630409836769104,0.16804635524749756,0.10345536470413208
0.2917044758796692,-0.02754950150847435,0.014773992821574211,0.06094549223780632,0.17315185070037842,0.2142786979675293
0.3276323080062866,-0.06420445442199707,0.0023302140180021524,-0.04139421880245209,0.16175329685211182,0.11510634422302246
0.569424569606781,-0.04823501780629158,-0.11814741045236588,-0.0665852278470993,0.14331060647964478,0.037879765033721924
0.8195599913597107,0.055109988898038864,-0.208526149392128,-0.01829461380839348,0.15635842084884644,0.04315328598022461
0.9296118021011353,0.027551623061299324,-0.11621449142694473,0.0909615308046341,0.14870882034301758,0.11235237121582031
0.7903066277503967,-0.12804457545280457,-0.030792534351348877,0.04294082522392273,0.1059984564781189,0.2019953727722168
0.6716915369033813,-0.12282069772481918,0.01662435755133629,-0.027459438890218735,0.09738314151763916,0.13784217834472656
0.7355203628540039,0.023576179519295692,-0.09643466025590897,-0.06791777908802032,0.18478739261627197,0.017199993133544922
0.9728127121925354,0.05030987784266472,-0.07593832910060883,0.049872927367687225,0.2041662335395813,-0.12595927715301514
0.9697575569152832,-0.030925530940294266,0.03584945201873779,0.09816223382949829,0.1682543158531189,-0.02667379379272461
0.6644679307937622,-0.12666283547878265,0.1826213151216507,0.0736115425825119,0.14827358722686768,0.08201515674591064
0.6024619936943054,-0.1215798407793045,0.14499282836914062,-0.07064759731292725,0.2039273977279663,-0.09074026346206665
0.6364810466766357,-0.030373048037290573,0.051333069801330566,-0.05089569464325905,0.20811307430267334,-0.09606951475143433
0.6393791437149048,-0.08884599804878235,0.037052080035209656,0.036788810044527054,0.1286388635635376,-0.13022994995117188
0.6566314697265625,-0.0630764365196228,0.058369748294353485,0.0467020645737648,0.07014989852905273,-0.13287091255187988
0.4282549023628235,-0.0551597960293293,0.08875735104084015,0.01671084761619568,0.044635891914367676,0.06541478633880615
0.1870759278535843,-0.07932410389184952,0.0947326272726059,-0.037354279309511185,0.03628957271575928,0.06699854135513306
0.17732341587543488,-0.045397620648145676,0.09812496602535248,-0.018026486039161682,0.017878949642181396,-0.07524335384368896
0.4116809368133545,-0.05084390565752983,-0.023466870188713074,-0.05488008260726929,-0.014217615127563477,-0.14689111709594727
0.3405199348926544,-0.21100874245166779,-0.06496530771255493,0.03335227072238922,-0.0682564377784729,-0.019637882709503174
0.14215072989463806,-0.15568907558918,0.07339437305927277,0.09056192636489868,-0.08280730247497559,0.0074193477630615234
0.07784360647201538,-0.07451129704713821,0.12973733246326447,-0.057168908417224884,-0.0027399063110351562,-0.07653352618217468
0.05125904083251953,-0.05182617902755737,0.03530863672494888,-0.11470428854227066,0.011576414108276367,-0.11285173892974854
0.08045810461044312,-0.05038492754101753,-0.042181260883808136,-0.0714646503329277,0.01472771167755127,-0.162238210439682
0.06423084437847137,-0.041827715933322906,-0.09447979927062988,-0.010816365480422974,-0.014589965343475342,-0.15741711854934692
0.08961235731840134,0.009524565190076828,-0.17024992406368256,-0.0506473034620285,-0.04644244909286499,-0.11134952306747437
-0.048169903457164764,0.011177110485732555,-0.14009079337120056,-0.024450264871120453,-0.14003074169158936,-0.06801378726959229
-0.20772360265254974,-0.024372028186917305,-0.10296233743429184,-0.026551075279712677,-0.17298877239227295,-0.10062229633331299
-0.14737999439239502,0.08065863698720932,-0.15132305026054382,-0.03158494457602501,-0.2146371603012085,-0.2803511619567871
-0.06783882528543472,0.12487782537937164,-0.1855292171239853,0.012157395482063293,-0.2640838027000427,-0.28153151273727417
-0.040778134018182755,-0.0195840522646904,-0.16347749531269073,0.04237498342990875,-0.30964648723602295,-0.24329611659049988
-0.1275915801525116,-0.060694608837366104,-0.10401524603366852,0.028511852025985718,-0.35818231105804443,-0.21009361743927002
-0.2500847280025482,-0.05966779589653015,-0.08490492403507233,0.03149702772498131,-0.3920254707336426,-0.28533387184143066
-0.19892995059490204,0.15617211163043976,-0.11987382918596268,-0.05450007691979408,-0.39535486698150635,-0.4644095003604889
0.01918727718293667,0.10668126493692398,-0.17567002773284912,-0.015540558844804764,-0.4534674882888794,-0.5201801657676697
-0.03398564085364342,-0.018118195235729218,-0.032942499965429306,0.0657072439789772,-0.5595611333847046,-0.35908272862434387
-0.38422340154647827,0.01486393716186285,0.22717201709747314,0.062078822404146194,-0.5829135775566101,-0.18608522415161133
-0.47569552063941956,-0.007406747899949551,0.2924998700618744,-0.08059079945087433,-0.5451886653900146,-0.28168702125549316
-0.3981781601905823,-0.01430779043585062,0.10272233188152313,-0.21048954129219055,-0.5020782947540283,-0.34233784675598145
-0.4081849157810211,-0.03497685492038727,-0.03980030119419098,-0.14447668194770813,-0.48554903268814087,-0.3240963816642761
-0.3132340908050537,-0.07226809114217758,0.05043100193142891,-0.031071335077285767,-0.4023592472076416,-0.36390942335128784
-0.3416604995727539,-0.1159849539399147,0.24190914630889893,-0.03460795432329178,-0.302293598651886,-0.2633094787597656
-0.4237592816352844,-0.12107077240943909,0.23268257081508636,-0.17256836593151093,-0.1923232078552246,-0.24930649995803833
-0.29286709427833557,0.038518257439136505,-0.023609615862369537,-0.27632805705070496,-0.11214220523834229,-0.32053959369659424
-0.2907906472682953,0.0743238627910614,-0.2548375129699707,-0.16338716447353363,-0.06766122579574585,-0.2282997965812683
-0.26129788160324097,-0.035609856247901917,-0.2069140374660492,0.07144461572170258,-0.0362391471862793,-0.2180325984954834
-0.3285219073295593,-0.12713924050331116,-0.0049247145652771,0.1669194996356964,-0.02529585361480713,-0.09019976854324341
-0.37207505106925964,-0.10520997643470764,0.09427861869335175,0.04159891605377197,-0.01646345853805542,-0.1161910891532898
-0.28470379114151,0.04538826271891594,0.023813346400856972,-0.07196077704429626,0.038522303104400635,-0.10401052236557007
-0.28495341539382935,-0.004520826507359743,-0.03382667154073715,-0.02904648706316948,0.04695582389831543,-0.08069390058517456
-0.33376649022102356,-0.09476664662361145,0.014931813813745975,0.12149998545646667,0.0029851794242858887,-0.06949770450592041
-0.37288305163383484,-0.06366826593875885,0.13755124807357788,0.08826272189617157,0.005685210227966309,-0.0749354362487793
-0.37230774760246277,0.013387663289904594,0.14078108966350555,-0.013266481459140778,0.05026388168334961,-0.0594974160194397
-0.32493704557418823,0.12025712430477142,0.065323606133461,-0.07745517045259476,0.08519965410232544,-0.02216207981109619
-0.4358607530593872,0.19219011068344116,0.026469532400369644,-0.02578309178352356,0.07050806283950806,0.04145371913909912
-0.49519047141075134,0.10079967975616455,0.05801798030734062,0.057580359280109406,0.09372913837432861,-0.06614309549331665
-0.39315345883369446,0.04355531930923462,0.09773062914609909,0.04955668747425079,0.13370543718338013,-0.10975277423858643
-0.3800226151943207,0.010231448337435722,0.06909620016813278,-0.022551901638507843,0.17861783504486084,-0.032755494117736816
-0.2814117968082428,0.19471824169158936,-0.05443969741463661,-0.0986383855342865,0.17346864938735962,-0.04377341270446777
-0.28395411372184753,0.17459741234779358,-0.11082962900400162,-0.01792558655142784,0.16745799779891968,0.025452256202697754
-0.3897826671600342,0.07905206829309464,-0.08979428559541702,0.01231088861823082,0.2084694504737854,0.1344265341758728
-0.4650982618331909,0.11158548295497894,0.004372217692434788,0.011124420911073685,0.2697914242744446,0.17156320810317993
-0.39869189262390137,0.1274501383304596,-0.015416826121509075,0.01026792824268341,0.23370951414108276,0.13998204469680786
-0.3170628547668457,0.17858493328094482,-0.11079256236553192,0.03584904968738556,0.18153131008148193,0.17558050155639648
-0.32985734939575195,0.1346415877342224,-0.05461813136935234,0.1154763400554657,0.1630989909172058,0.2276841402053833
-0.2679176926612854,-0.011648044921457767,0.1267118752002716,0.12054426223039627,0.19142913818359375,0.13281488418579102
-0.09765318036079407,0.004750084597617388,0.14758668839931488,-0.011359278112649918,0.2158564329147339,0.008769214153289795
0.19218775629997253,0.06490618735551834,0.07728184014558792,-0.03826208785176277,0.20992040634155273,-0.032595276832580566
0.3544269800186157,0.07251578569412231,0.03494344279170036,-0.006434831768274307,0.19047582149505615,0.08329856395721436
0.44207167625427246,0.039273351430892944,0.016406191512942314,0.0023193545639514923,0.18077141046524048,0.1553288698196411
0.44730284810066223,0.08035965263843536,0.07079625129699707,0.040215130895376205,0.17886579036712646,0.24168634414672852
0.5361312031745911,-0.001904803328216076,0.11153553426265717,0.04322047904133797,0.18807929754257202,0.22684729099273682
0.5751141309738159,-0.009720530360937119,0.08930495381355286,-0.008163005113601685,0.17170864343643188,0.23044341802597046
0.41565003991127014,0.029206346720457077,0.07753709703683853,0.0035791248083114624,0.12954193353652954,0.3191201090812683
0.275569349527359,0.0013137180358171463,0.07179850339889526,0.020759500563144684,0.11590766906738281,0.2643009424209595
0.15225495398044586,-0.010529845952987671,0.049313660711050034,-0.008201420307159424,0.10228615999221802,0.24382227659225464
-0.0060304501093924046,-0.08344434201717377,0.007382030598819256,0.013800404965877533,0.05843383073806763,0.1965545415878296
-0.04358234256505966,-0.0902019739151001,-0.06230917572975159,-0.023563489317893982,0.044342756271362305,0.0758848786354065
-0.044647492468357086,-0.11029400676488876,-0.07645120471715927,-0.011693481355905533,0.03166162967681885,0.06186175346374512
-0.00023443857207894325,0.018342025578022003,-0.06789612025022507,0.0010528825223445892,0.004027366638183594,0.025482654571533203
-0.045391954481601715,0.05618033930659294,-0.1147894337773323,0.004906464368104935,-0.012521564960479736,0.04188030958175659
-0.08732111752033234,0.04893425852060318,-0.161830872297287,0.01946248859167099,-0.008263707160949707,0.023826003074645996
-0.04064125567674637,0.005940150935202837,-0.1561673879623413,0.057172901928424835,-6.979703903198242e-05,-0.0090981125831604
0.006145345978438854,0.059274930506944656,-0.054972752928733826,0.06525678932666779,0.0003171563148498535,0.023686647415161133
-0.0406603142619133,0.07687363028526306,0.008257132023572922,0.02172783389687538,-0.003905057907104492,0.08633542060852051
-0.11459025740623474,0.0654425173997879,0.039215631783008575,0.0006916821002960205,-0.006539583206176758,0.1101846694946289
-0.12166085094213486,0.011716693639755249,0.01600874587893486,-0.017563674598932266,0.002144932746887207,0.06775295734405518
-0.09581655263900757,-0.05306270346045494,0.0287717804312706,-0.00980110839009285,0.02147132158279419,0.03136134147644043
-0.05698356032371521,-0.09559246897697449,0.0752883106470108,-0.021080810576677322,0.06166255474090576,0.054587364196777344
-0.034583594650030136,-0.10652904957532883,0.11024779081344604,-0.027540601789951324,0.08621710538864136,0.07486206293106079
-0.0193876214325428,-0.18751999735832214,0.0748881995677948,-0.024952884763479233,0.10500872135162354,0.10870140790939331
-0.010227610357105732,-0.16221202909946442,0.011508109048008919,-0.04074234142899513,0.1153641939163208,0.11206114292144775
-0.008006817661225796,-0.044484782963991165,-0.04090103879570961,-0.041119277477264404,0.12676215171813965,0.15216147899627686
0.07335785776376724,0.023659147322177887,-0.03876177594065666,0.017458897083997726,0.14066004753112793,0.08300840854644775
0.1342141330242157,0.045587264001369476,-0.004855315666645765,0.05830485001206398,0.15896761417388916,0.10131877660751343
0.18927302956581116,0.04177296534180641,0.042336005717515945,0.03517584130167961,0.18867230415344238,0.07956802845001221
0.2800869047641754,0.012635909020900726,-0.015315147116780281,-0.005541544407606125,0.18392252922058105,0.05012392997741699
0.41607820987701416,-0.08763935416936874,-0.0949651300907135,-0.006776869297027588,0.17174768447875977,0.037795066833496094
0.4800834357738495,-0.04560520127415657,-0.07197555154561996,0.046665165573358536,0.16880857944488525,0.09981554746627808
0.5272267460823059,-0.026094920933246613,-0.016915278509259224,0.050704050809144974,0.2121531367301941,0.0823829174041748
0.6569769978523254,-0.012200969271361828,0.014437370002269745,0.06493811309337616,0.2201145887374878,0.061062633991241455
0.6683670878410339,-0.004367548041045666,-0.0015996532747521996,0.001471836119890213,0.2039356231689453,0.1644432544708252
0.5638350248336792,-0.022976825013756752,-0.048518106341362,-0.01859082654118538,0.18093055486679077,0.21932756900787354
0.3987542986869812,-0.101959727704525,-0.04618608206510544,0.033121272921562195,0.21267521381378174,0.20621997117996216
0.4994968771934509,-0.06010083109140396,0.05239701271057129,0.10337048768997192,0.2516605854034424,0.03612828254699707
0.5767602324485779,-0.0020789122208952904,0.07202024012804031,0.037535376846790314,0.2508491277694702,0.025287926197052002
0.6453304886817932,0.00561626348644495,0.02431364916265011,-0.030533842742443085,0.2107306718826294,-0.031697094440460205
0.6323670148849487,-0.1096874475479126,-0.09522760659456253,-0.04106433317065239,0.16275548934936523,-0.019528448581695557
0.5949596166610718,-0.08869980275630951,-0.11892488598823547,0.05896686762571335,0.12322729825973511,-0.003851652145385742
0.3856376111507416,-0.028216153383255005,0.002821992849931121,0.10346578061580658,0.12044268846511841,0.01251131296157837
0.4589069187641144,0.07279331982135773,0.02865481749176979,0.002555709332227707,0.11812883615493774,-0.16606926918029785
0.7417083978652954,0.08161353319883347,-0.12906280159950256,-0.08825422823429108,0.11080795526504517,-0.23283666372299194
0.7169844508171082,-0.08593087643384933,-0.07216409593820572,0.060438647866249084,0.06964093446731567,-0.05300983786582947
0.6059120893478394,-0.07227002829313278,0.020520467311143875,0.00913241133093834,0.05087411403656006,-0.01899164915084839
0.567404568195343,0.0001993323676288128,0.058894261717796326,-0.01982373744249344,0.020914316177368164,-0.032222867012023926
0.5876858830451965,0.015337236225605011,-0.0882515013217926,-0.08460520207881927,-0.005935251712799072,-0.06970864534378052
0.4884131848812103,0.061384156346321106,-0.17281895875930786,-0.05814985930919647,-0.0315820574760437,-0.03485602140426636
0.32579317688941956,-0.04977338761091232,-0.15622536838054657,-0.01133662462234497,-0.06397122144699097,-0.04693788290023804
0.26153644919395447,-0.061603013426065445,0.010632511228322983,0.0011729449033737183,-0.07974773645401001,-0.14035505056381226
