rotation_x,rotation_y,rotation_z,acceleration_x,acceleration_y,acceleration_z
-0.11012657731771469,0.37783607840538025,-0.3233242332935333,-0.07916006445884705,-0.0707249641418457,-0.06176459789276123
-0.38202035427093506,0.68522709608078,-0.3295828402042389,-0.03969740867614746,-0.08222717046737671,-0.07147735357284546
-0.414549320936203,0.547249972820282,-0.2497793734073639,0.038929909467697144,-0.10518145561218262,-0.057951927185058594
0.10479927062988281,0.045258741825819016,-0.17533659934997559,0.09550400078296661,-0.12092983722686768,-0.18412470817565918
0.7036511301994324,-0.40816745162010193,-0.25004276633262634,0.05361241102218628,-0.12415319681167603,-0.30927687883377075
0.9103787541389465,-0.4384484887123108,-0.40118491649627686,0.03515303134918213,-0.1621137261390686,-0.27327919006347656
0.7762876749038696,-0.2018415778875351,-0.5849836468696594,0.01911383867263794,-0.19698309898376465,-0.18880093097686768
0.6361703276634216,-0.32991519570350647,-0.8520424365997314,0.0295315682888031,-0.25332581996917725,-0.0954505205154419
0.774735152721405,-0.8545593619346619,-1.1146316528320312,0.07653769850730896,-0.29287105798721313,-0.1011195182800293
1.216111660003662,-1.660996675491333,-1.2510592937469482,0.0979878306388855,-0.18737256526947021,-0.18013447523117065
1.724563717842102,-2.149106740951538,-1.1314716339111328,0.16693106293678284,-0.07665401697158813,-0.22361207008361816
2.0361733436584473,-1.9820255041122437,-0.8617023825645447,0.21521252393722534,0.05909663438796997,-0.20586049556732178
2.2373392581939697,-2.4004249572753906,-0.6813095211982727,0.1940186619758606,0.12731879949569702,-0.09975600242614746
2.2530856132507324,-2.9927611351013184,-0.6385278701782227,0.14143148064613342,0.16574478149414062,0.1311059594154358
1.8983325958251953,-2.995149612426758,-0.5482998490333557,0.1231473982334137,0.17778074741363525,0.27921026945114136
1.2797496318817139,-2.227435350418091,-0.34387916326522827,0.13622774183750153,0.20103275775909424,0.26563194394111633
0.6798040270805359,-1.633484125137329,-0.14795173704624176,0.1370413899421692,0.26322126388549805,0.3468015193939209
0.6463913917541504,-1.2575738430023193,-0.03717523068189621,0.06735002994537354,0.2705674171447754,0.24621891975402832
1.158373475074768,-1.6870555877685547,-0.10192352533340454,-0.043467357754707336,0.3666818141937256,0.07292309403419495
1.7563104629516602,-2.706444025039673,0.020750459283590317,0.020927876234054565,0.38184046745300293,0.07437252998352051
1.8064138889312744,-3.3825886249542236,0.3045266270637512,0.12924477458000183,0.39329349994659424,0.21356654167175293
1.4795130491256714,-3.1596803665161133,0.544273316860199,0.12412472814321518,0.41467899084091187,0.28561142086982727
1.0080664157867432,-2.434013843536377,0.5749323964118958,0.005495578050613403,0.43893682956695557,0.28253084421157837
0.6139665842056274,-1.7445164918899536,0.5481045842170715,-0.07439610362052917,0.4380210041999817,0.26271772384643555
0.49087196588516235,-1.5148283243179321,0.7138692140579224,0.023595303297042847,0.5097123980522156,0.2790972590446472
0.746144711971283,-1.6932449340820312,1.0565153360366821,0.1588992178440094,0.6170147657394409,0.27156418561935425
1.1885151863098145,-1.7433406114578247,1.5984151363372803,0.27220866084098816,0.7344191074371338,0.20607027411460876
1.3211917877197266,-1.7767802476882935,2.2131078243255615,0.4300462603569031,0.8189854621887207,0.22850263118743896
0.6046876907348633,-1.5008106231689453,2.6963729858398438,0.5208848714828491,0.8326373100280762,0.38491708040237427
-0.7744496464729309,-0.743661642074585,3.1617162227630615,0.5184952020645142,0.8130057454109192,0.5593731999397278
-2.3257710933685303,0.22143778204917908,3.1989550590515137,0.3074266314506531,0.7683352828025818,0.6483972072601318
-3.151404857635498,0.5083422660827637,3.180331230163574,0.16523438692092896,0.7631834745407104,0.5065102577209473
-3.023533344268799,0.08325672894716263,3.4498097896575928,0.2546226978302002,0.8196825981140137,0.27048635482788086
-2.295222043991089,-0.7030810117721558,3.9225027561187744,0.33631548285484314,0.8816691637039185,0.08055120706558228
-2.205206871032715,-0.9251843094825745,4.378968238830566,0.2758994698524475,0.818192183971405,0.1001250147819519
-2.9195549488067627,-0.39653295278549194,4.277838706970215,-0.11248457431793213,0.7205295562744141,0.2893521785736084
-3.850928544998169,0.2843943238258362,4.230156898498535,-0.2661246657371521,0.6410393714904785,0.3686586022377014
-3.9702954292297363,0.40892723202705383,4.407689571380615,-0.16394084692001343,0.752197265625,0.21655863523483276
-3.6422858238220215,-0.13547435402870178,4.775578498840332,-0.07351523637771606,0.79732346534729,0.028893709182739258
-4.116649150848389,0.1925933063030243,4.999668598175049,-0.2202155590057373,0.8496150970458984,0.0852171778678894
-5.618283271789551,2.1917896270751953,4.453739166259766,-0.7205854654312134,0.8706280589103699,0.1196250319480896
-5.975157260894775,3.0086781978607178,3.2176437377929688,-1.209144949913025,0.8403952121734619,-0.19178718328475952
-4.174263954162598,0.6000673770904541,2.7895865440368652,-0.9986333847045898,0.9135858416557312,-0.6721352338790894
-2.0266926288604736,-2.986637830734253,3.2713191509246826,-0.7368301153182983,1.0374858379364014,-0.7858402132987976
-1.5181552171707153,-5.177046298980713,3.5874183177948,-0.7032343745231628,0.9403457045555115,-0.5269247889518738
-2.946901321411133,-4.1688032150268555,3.3420982360839844,-0.9496862292289734,0.5106319189071655,-0.4323672652244568
-3.8345541954040527,-2.1662683486938477,3.130204677581787,-1.114964485168457,0.2728724777698517,-0.6747461557388306
-3.1825954914093018,-1.3474196195602417,2.3700294494628906,-1.2141478061676025,-0.045897603034973145,-1.2611427307128906
-1.777208685874939,-1.1394494771957397,0.9316974878311157,-1.3517807722091675,-0.24433374404907227,-1.3029093742370605
-0.5747778415679932,-1.0693762302398682,-0.13640320301055908,-1.1136696338653564,-0.30884242057800293,-1.1183772087097168
-0.09240950644016266,-1.1971871852874756,-0.36751019954681396,-0.5900846719741821,-0.2196062207221985,-0.7334549427032471
-0.1850484311580658,-1.4188206195831299,-0.12627391517162323,-0.18610656261444092,-0.1795540452003479,-0.3960011601448059
-0.4219438433647156,-1.3427691459655762,0.09289336204528809,-0.10731059312820435,-0.22895634174346924,-0.2837902903556824
-0.5208589434623718,-1.0293598175048828,0.11438769847154617,-0.22760099172592163,-0.2869674563407898,-0.29921814799308777
-0.5089545845985413,-0.5606421232223511,-0.019016394391655922,-0.3492370843887329,-0.3190968632698059,-0.35485655069351196
-0.38416826725006104,-0.25749874114990234,-0.1866183578968048,-0.3630925416946411,-0.33870816230773926,-0.3865954875946045
-0.20611143112182617,-0.03299993649125099,-0.22886325418949127,-0.2839627265930176,-0.31774890422821045,-0.4096202850341797
0.03916102275252342,0.08350852876901627,-0.312759667634964,-0.2768561840057373,-0.3126336336135864,-0.4071100950241089
0.25304433703422546,0.13772080838680267,-0.496849924325943,-0.3173094391822815,-0.29383009672164917,-0.3760354518890381
0.4392581880092621,0.13602735102176666,-0.6323544383049011,-0.3096961975097656,-0.2517551779747009,-0.3468787968158722
0.4357770085334778,0.37429144978523254,-0.9672656059265137,-0.39851200580596924,-0.26682543754577637,-0.3048490285873413
0.3218143582344055,0.6756342649459839,-1.294264554977417,-0.4975581169128418,-0.27177149057388306,-0.28227055072784424
0.24992012977600098,1.1266363859176636,-1.6503419876098633,-0.6032264232635498,-0.2503121495246887,-0.3263092041015625
0.3644935190677643,1.6630698442459106,-2.1154770851135254,-0.6798073649406433,-0.21515050530433655,-0.44614148139953613
0.6148175001144409,1.878954529762268,-2.376986503601074,-0.7035603523254395,-0.11581069231033325,-0.47552239894866943
1.0919591188430786,1.7805145978927612,-2.496093273162842,-0.6697123050689697,-0.005441039800643921,-0.5206764936447144
1.5422673225402832,1.5663560628890991,-2.775398015975952,-0.7424777150154114,0.059934020042419434,-0.5383044481277466
1.7324761152267456,1.4927581548690796,-3.0915582180023193,-0.8510770797729492,0.1189519464969635,-0.44234538078308105
1.737351894378662,1.615346074104309,-3.1632261276245117,-0.8258242607116699,0.21119821071624756,-0.364448606967926
1.8594536781311035,1.6003087759017944,-3.264460563659668,-0.8463674187660217,0.2743775248527527,-0.3495219647884369
2.1251697540283203,1.2950785160064697,-3.3648085594177246,-0.8940343260765076,0.29145824909210205,-0.3894173502922058
2.4678921699523926,1.0059621334075928,-3.6286396980285645,-0.9415795803070068,0.3670227527618408,-0.4122035503387451
2.6844725608825684,0.9705314636230469,-4.006543159484863,-1.0775845050811768,0.355035662651062,-0.4602668285369873
2.8825759887695312,1.1734994649887085,-4.17672061920166,-0.9968722462654114,0.4628768563270569,-0.3941240906715393
3.1696557998657227,1.0455620288848877,-4.082643508911133,-0.823235034942627,0.5946676731109619,-0.36754024028778076
3.3559298515319824,0.46662637591362,-3.9164857864379883,-0.7516641616821289,0.6477495431900024,-0.27121007442474365
3.4460034370422363,-0.21082048118114471,-3.626976251602173,-0.6928654313087463,0.6958526968955994,-0.2153552770614624
3.439744234085083,-0.680851399898529,-3.5421955585479736,-0.6971473693847656,0.7607129216194153,-0.1992860734462738
3.457244873046875,-0.8699256777763367,-3.91965389251709,-0.7629069089889526,0.779358446598053,-0.20235586166381836
3.4207634925842285,-0.6159880757331848,-4.485658168792725,-0.7136558294296265,0.850614607334137,-0.1766345202922821
3.4464714527130127,-0.20207102596759796,-4.747761249542236,-0.46241480112075806,1.0245959758758545,-0.10269206762313843
3.4627959728240967,-0.41283753514289856,-4.498777866363525,0.010283470153808594,1.2292945384979248,0.016928791999816895
3.224684476852417,-0.9501941204071045,-3.949467658996582,0.4184761941432953,1.3179702758789062,0.1934697926044464
2.695141077041626,-1.2751412391662598,-3.28259015083313,0.6562033891677856,1.2997920513153076,0.2896663546562195
2.047431707382202,-1.1055660247802734,-2.648071765899658,0.6969966292381287,1.2325005531311035,0.2619902491569519
1.4141945838928223,-0.5248464345932007,-2.037038803100586,0.6831493973731995,1.1713240146636963,0.19633948802947998
0.8745412826538086,0.12956568598747253,-1.5246069431304932,0.6418730020523071,1.0984370708465576,0.13602709770202637
0.36316290497779846,0.49404677748680115,-1.0891863107681274,0.5899745225906372,1.0069422721862793,0.15419483184814453
-0.08704803884029388,0.621691107749939,-0.7401986718177795,0.5096148252487183,0.9204496741294861,0.15940475463867188
-0.41199079155921936,0.48969554901123047,-0.5553089380264282,0.38925671577453613,0.7862153649330139,0.1634659767150879
-0.484911173582077,0.31915947794914246,-0.3353300392627716,0.2698467969894409,0.6327639818191528,0.06580662727355957
-0.4052846133708954,0.2637749910354614,0.007708159275352955,0.22390615940093994,0.5449126362800598,-0.03203684091567993
-0.1619408130645752,0.31177470088005066,0.27002987265586853,0.1636953055858612,0.4479665160179138,-0.13764715194702148
0.031372904777526855,0.3376311659812927,0.4038691222667694,0.07393772900104523,0.34687429666519165,-0.1379212737083435
0.2656354010105133,0.2342800498008728,0.4327705502510071,0.031687840819358826,0.2723652720451355,-0.1278401017189026
0.26832544803619385,-0.047079216688871384,0.34464967250823975,-0.004778996109962463,0.21778714656829834,-0.04516524076461792
0.15036849677562714,-0.27297499775886536,0.3490236699581146,0.03365538269281387,0.20125091075897217,0.06771397590637207
-0.05050739645957947,-0.1471160501241684,0.4949377775192261,0.08938562870025635,0.20128154754638672,0.057692766189575195
-0.37247735261917114,0.30927783250808716,0.7316362261772156,0.1702709197998047,0.20183104276657104,0.0737912654876709
-0.5738625526428223,0.6783879995346069,0.8909632563591003,0.1698945164680481,0.19402706623077393,0.06555116176605225
-0.6079379320144653,0.7549980282783508,1.01222562789917,0.16959188878536224,0.21715855598449707,0.04490894079208374
-0.6446716785430908,0.639360249042511,0.9952970743179321,0.1310550421476364,0.25386762619018555,0.08431369066238403
-0.6978964805603027,0.4401928782463074,0.9711856245994568,0.10138313472270966,0.2878296375274658,0.12439721822738647
-0.7396624684333801,0.1955466866493225,1.0611013174057007,0.1553623527288437,0.346138596534729,0.12996286153793335
-0.8175806999206543,0.04161728546023369,1.3038827180862427,0.24842599034309387,0.3934706449508667,0.11668867617845535
-1.0294334888458252,0.12743212282657623,1.6550661325454712,0.325625479221344,0.4289097785949707,0.10167992115020752
-1.284142255783081,0.229190394282341,1.9598255157470703,0.3198160231113434,0.45926928520202637,0.09924353659152985
-1.371749997138977,0.22746975719928741,2.0381927490234375,0.21505260467529297,0.4327758550643921,0.07196241617202759
-1.2288811206817627,0.05498611181974411,2.146202325820923,0.16844481229782104,0.4305228590965271,0.00205916166305542
-0.9630150198936462,-0.2542401850223541,2.252917528152466,0.1522957682609558,0.420790433883667,-0.03081446886062622
-0.8590630292892456,-0.2937970459461212,2.4469385147094727,0.13201776146888733,0.37665504217147827,-0.03862409293651581
-1.249852180480957,0.3392794728279114,2.672339916229248,0.11382168531417847,0.33870929479599,0.0301373153924942
-1.7599756717681885,1.2096279859542847,2.7787537574768066,0.1079363226890564,0.3046478033065796,0.08461546897888184
-2.0515964031219482,1.7062861919403076,2.8191335201263428,0.1038629412651062,0.3021913170814514,0.0627964437007904
-1.7994484901428223,1.3173582553863525,2.731607675552368,0.05194729566574097,0.28909581899642944,0.009988069534301758
-0.991267740726471,0.07415122538805008,2.5602588653564453,0.01912820339202881,0.25292158126831055,-0.06925711035728455
-0.36710041761398315,-0.9083702564239502,2.677218437194824,0.07409340143203735,0.22771751880645752,-0.07583034038543701
-0.8266320824623108,-0.5475298166275024,3.127390146255493,0.13111436367034912,0.2491518259048462,0.10897421836853027
-1.8675364255905151,0.4688343405723572,3.5771946907043457,0.08263194561004639,0.2902352213859558,0.2576597332954407
-2.768324613571167,1.3233839273452759,3.7193760871887207,0.01574164628982544,0.29267871379852295,0.29218655824661255
-2.94569730758667,1.1643527746200562,3.5103707313537598,-0.04885149002075195,0.3211306929588318,0.20953285694122314
-2.581648111343384,0.3172754645347595,3.2116873264312744,-0.11047625541687012,0.2954773008823395,0.11249226331710815
-2.34184193611145,-0.14105990529060364,2.993027687072754,-0.2569822072982788,0.3383426368236542,0.03228259086608887
-2.223071575164795,-0.0914415791630745,2.6968815326690674,-0.41898345947265625,0.3614517152309418,-0.05442392826080322
-2.3353235721588135,0.23976881802082062,2.624987840652466,-0.36472147703170776,0.40803346037864685,-0.02366429567337036
-2.4835381507873535,0.4728589951992035,2.7435333728790283,-0.29479193687438965,0.5305400490760803,-0.00609588623046875
-2.9114513397216797,0.32517075538635254,2.8119311332702637,-0.3101389408111572,0.6206648349761963,0.07776343822479248
-3.4339659214019775,-0.3400943875312805,3.010268449783325,-0.3366987705230713,0.7177245616912842,0.12042123079299927
-3.6219003200531006,-1.274096131324768,3.0253376960754395,-0.5058699250221252,0.7526363730430603,-0.033310502767562866
-3.1769888401031494,-1.8024797439575195,2.7425546646118164,-0.8328608870506287,0.599328875541687,-0.4396982491016388
-2.321944236755371,-1.6329927444458008,2.3162779808044434,-1.0908195972442627,0.3488117456436157,-0.9948915839195251
-1.338444471359253,-0.9330613017082214,1.6017347574234009,-1.192902684211731,-0.12425580620765686,-1.3710787296295166
-0.2368849515914917,0.27574217319488525,0.5111476182937622,-1.2053418159484863,-0.4940856099128723,-1.5566290616989136
0.4847094714641571,1.7568317651748657,-0.4338942766189575,-1.1100172996520996,-0.5081863403320312,-1.343281626701355
0.5170592665672302,2.702043294906616,-0.5926587581634521,-0.635244607925415,-0.324638307094574,-0.6967892050743103
0.31080642342567444,2.8015849590301514,-0.5208878517150879,-0.3500264883041382,-0.19309496879577637,-0.17971527576446533
0.11059397459030151,2.2863681316375732,-0.48643213510513306,-0.29043376445770264,-0.23916715383529663,0.03156864643096924
-0.017502669245004654,1.5326327085494995,-0.5591636896133423,-0.2783578634262085,-0.295928955078125,0.08235353231430054
-0.044092025607824326,1.0235201120376587,-0.7857609391212463,-0.3161032199859619,-0.3534254729747772,-0.0016602873802185059
0.025724973529577255,1.0077794790267944,-1.078096866607666,-0.3227364420890808,-0.3254165053367615,-0.13381266593933105
0.21980920433998108,1.428715467453003,-1.249401330947876,-0.3472161293029785,-0.28541284799575806,-0.3569481372833252
0.36184340715408325,1.832422137260437,-1.2281336784362793,-0.2660958766937256,-0.21503597497940063,-0.40868043899536133
0.5718948841094971,1.7559672594070435,-1.2040116786956787,-0.22739100456237793,-0.17651748657226562,-0.3740715980529785
0.9824495911598206,1.1937766075134277,-1.2854334115982056,-0.22314178943634033,-0.16140371561050415,-0.39185571670532227
1.5495330095291138,0.7228150963783264,-1.3753241300582886,-0.2728436589241028,-0.13160386681556702,-0.5085856914520264
1.9527918100357056,0.5509679317474365,-1.4007009267807007,-0.2756496071815491,-0.04659821093082428,-0.5374442338943481
2.115787982940674,0.7301910519599915,-1.47724187374115,-0.30060386657714844,0.0013574212789535522,-0.5252079963684082
2.0488533973693848,1.2174559831619263,-1.6282376050949097,-0.3555111289024353,0.00830167531967163,-0.45816171169281006
2.0247879028320312,1.7078101634979248,-1.6655195951461792,-0.3861193060874939,0.06009232997894287,-0.4631301164627075
2.2051548957824707,1.7200162410736084,-1.5847909450531006,-0.3117332458496094,0.08597767353057861,-0.43584775924682617
2.279952049255371,1.718990683555603,-1.4469168186187744,-0.25839483737945557,0.12392663955688477,-0.4120032787322998
2.2214066982269287,1.548716425895691,-1.3650060892105103,-0.21752947568893433,0.17352238297462463,-0.28847581148147583
2.1831886768341064,1.565538763999939,-1.5483040809631348,-0.30187416076660156,0.1333497166633606,-0.31028860807418823
2.051163911819458,1.8393820524215698,-1.7144298553466797,-0.3323342204093933,0.16415563225746155,-0.26793748140335083
1.8234810829162598,2.0282444953918457,-1.652808427810669,-0.25783663988113403,0.21939344704151154,-0.15606868267059326
1.7423020601272583,1.9866489171981812,-1.412414312362671,-0.12820488214492798,0.26676544547080994,-0.07097172737121582
1.9219462871551514,1.7109789848327637,-1.2286241054534912,-0.06820854544639587,0.31680893898010254,-0.032988786697387695
2.199958562850952,1.3644213676452637,-1.2858400344848633,-0.0811423659324646,0.2975136935710907,0.006532907485961914
2.2653937339782715,0.6909403204917908,-1.608493685722351,-0.1391717493534088,0.24401435256004333,0.03560817241668701
2.466580867767334,0.5522383451461792,-1.9495328664779663,-0.23524978756904602,0.1885065734386444,-0.09476512670516968
2.8725814819335938,1.1704164743423462,-1.7037101984024048,-0.11314791440963745,0.4136230945587158,-0.2538101077079773
2.9350037574768066,1.6136727333068848,-1.1966439485549927,0.038799673318862915,0.49953293800354004,-0.19171035289764404
2.6597678661346436,1.7087461948394775,-0.9386441707611084,0.01836530864238739,0.43188971281051636,-0.0037165284156799316
2.4715356826782227,1.1152509450912476,-1.0126779079437256,-0.07088567316532135,0.33943378925323486,0.13110876083374023
2.5523829460144043,0.47670769691467285,-0.9946122169494629,-0.06855875253677368,0.34702885150909424,0.08522701263427734
2.575258255004883,0.5085044503211975,-0.793790340423584,0.018633723258972168,0.40184688568115234,-0.008217692375183105
2.459341526031494,1.1334753036499023,-0.7145019173622131,-0.0459037721157074,0.4225350022315979,-0.08488255739212036
2.1587941646575928,1.390401840209961,-0.6960294246673584,-0.07366868853569031,0.3661603331565857,-0.032374799251556396
1.8482942581176758,1.0477523803710938,-0.5634137392044067,0.0005238093435764313,0.31894451379776,0.1241655945777893
1.7015786170959473,0.6928848028182983,-0.5321286916732788,0.0034753382205963135,0.31242239475250244,0.1364017128944397
1.7222552299499512,0.9555099606513977,-0.7646072506904602,-0.05578652024269104,0.251420259475708,0.02464824914932251
1.8603837490081787,1.5876638889312744,-1.093388319015503,-0.19509297609329224,0.2491617202758789,-0.17417383193969727
1.903660535812378,1.8044856786727905,-0.9887468814849854,-0.1077713668346405,0.30782318115234375,-0.10565918684005737
1.8054450750350952,1.2831214666366577,-0.5968617796897888,0.015349119901657104,0.32426726818084717,0.10426342487335205
1.692799687385559,0.267711877822876,-0.24568572640419006,0.13500136137008667,0.23201817274093628,0.24209773540496826
1.7096459865570068,-0.3675616383552551,-0.060571469366550446,0.08642813563346863,0.22987818717956543,0.19032573699951172
1.7873045206069946,-0.46284544467926025,0.0215175561606884,0.009035125374794006,0.26492035388946533,0.07616099715232849
1.758266806602478,-0.37950122356414795,-0.06816995143890381,-0.05713159590959549,0.2583872675895691,0.06092390418052673
1.6011264324188232,-0.25385424494743347,-0.19383221864700317,-0.10437057167291641,0.2576490044593811,0.11344435811042786
1.3329570293426514,-0.24396106600761414,-0.2430424988269806,-0.06923720240592957,0.25885117053985596,0.18615347146987915
1.008995532989502,-0.2570860981941223,-0.2405460923910141,-0.03171199560165405,0.2695111036300659,0.23077166080474854
0.69010329246521,-0.08563042432069778,-0.22862258553504944,-0.03637850284576416,0.26915884017944336,0.21160602569580078
0.47423529624938965,0.15458494424819946,-0.16969014704227448,-0.023147299885749817,0.26852983236312866,0.15991030633449554
0.33077624440193176,0.4058878719806671,-0.0726519301533699,0.0031032562255859375,0.2569947838783264,0.1088094711303711
0.18808960914611816,0.6060376763343811,-0.15060268342494965,-0.03480616211891174,0.2308080792427063,0.10132396221160889
0.10713617503643036,0.5548871755599976,-0.34195375442504883,-0.11954310536384583,0.18683546781539917,0.11665481328964233
0.06574375182390213,0.24312803149223328,-0.35648050904273987,-0.08195753395557404,0.18920624256134033,0.1346845179796219
-0.046624455600976944,-0.39754095673561096,-0.09613459557294846,0.06034548580646515,0.2170920968055725,0.13515497744083405
-0.36231717467308044,-0.25577276945114136,0.18003380298614502,0.11104221642017365,0.1719856858253479,0.20518578588962555
-0.5481662154197693,0.37767794728279114,0.09794650971889496,-0.05907393991947174,0.210466206073761,0.04254902899265289
-0.5089066028594971,0.7013891339302063,-0.1570015400648117,-0.18009524047374725,0.1263960599899292,-0.06896378099918365
-0.3871091604232788,0.3433266282081604,-0.031185107305645943,-0.05231626331806183,0.15927237272262573,0.00013203918933868408
-0.259520947933197,-0.34561407566070557,0.27622711658477783,0.09936395287513733,0.21253973245620728,0.11746692657470703
-0.09373269230127335,-1.0380340814590454,0.3881913721561432,0.09011785686016083,0.1927710771560669,0.1447785198688507
-0.019387977197766304,-1.3071032762527466,0.3939831554889679,0.03566036373376846,0.171791672706604,0.09416386485099792
-0.007341084536164999,-1.130203366279602,0.22104966640472412,-0.017467349767684937,0.15092438459396362,0.037142276763916016
-0.08348403126001358,-0.9211338758468628,0.12429510802030563,-0.02828158438205719,0.17205071449279785,0.05047598481178284
-0.28843703866004944,-0.909761905670166,0.05875947326421738,0.002852007746696472,0.16346919536590576,0.1096825897693634
-0.6386789679527283,-0.7761555314064026,0.07417069375514984,0.025456152856349945,0.20143383741378784,0.16035665571689606
-0.9449958205223083,-0.6089340448379517,0.2189396619796753,0.14417123794555664,0.20867562294006348,0.14454740285873413
-1.0867352485656738,-0.621361494064331,0.2511860728263855,0.14707863330841064,0.2080557942390442,0.11735966801643372
-0.9509968161582947,-0.8241140842437744,0.3005918264389038,0.1263454556465149,0.23772621154785156,0.09792181849479675
-0.6024733781814575,-1.1150500774383545,0.5691190361976624,0.17075499892234802,0.28021568059921265,0.04445600509643555
-0.1942468285560608,-1.438060998916626,0.8922145366668701,0.16304358839988708,0.34671902656555176,0.02164304256439209
0.06957731395959854,-1.8662123680114746,1.1525242328643799,0.14253497123718262,0.40128934383392334,0.03347903490066528
-0.18235795199871063,-2.264720916748047,1.0855460166931152,0.034848812967538834,0.35927653312683105,0.15251979231834412
-0.6932845711708069,-1.8889803886413574,0.6974464654922485,-0.09486380219459534,0.2678900361061096,0.19070735573768616
-1.2056012153625488,-1.1199885606765747,0.4713265299797058,-0.2042613923549652,0.31329500675201416,0.1320258378982544
-1.362929344177246,-0.7239323258399963,0.8249905109405518,0.0011710375547409058,0.4099265933036804,0.09036186337471008
-1.1529664993286133,-0.9273623824119568,1.5771785974502563,0.22665785253047943,0.4258485436439514,0.037915170192718506
-0.9832297563552856,-1.1940139532089233,2.1746256351470947,0.21227197349071503,0.42810583114624023,0.057036250829696655
-0.9544292688369751,-1.6122725009918213,2.3781118392944336,0.0786178857088089,0.34444659948349,0.07176628708839417
-0.6159162521362305,-1.742726445198059,2.289863348007202,-0.06376448273658752,0.29991352558135986,0.006887674331665039
0.04325570911169052,-1.5532877445220947,2.266964912414551,-0.10673785209655762,0.27943968772888184,-0.19256550073623657
-0.03772769123315811,-1.0891757011413574,2.4263756275177,-0.10057887434959412,0.22961962223052979,-0.10637128353118896
-0.9898068904876709,-0.6315009593963623,2.621987819671631,-0.015708953142166138,0.1335781216621399,0.1937864124774933
-1.9570883512496948,-0.11984428763389587,2.484818458557129,-0.12701416015625,0.0576401948928833,0.3390253782272339
-1.8165245056152344,-0.3008820712566376,2.6018006801605225,-0.11138337850570679,0.07133877277374268,0.09216511249542236
-0.6299667954444885,-0.8410057425498962,2.775225877761841,-0.045815885066986084,0.04741096496582031,-0.3281286954879761
-0.34451016783714294,-0.9889369010925293,2.842247486114502,-0.11686986684799194,0.017893612384796143,-0.26252660155296326
-1.1133052110671997,-0.43834882974624634,2.559054374694824,-0.2721848487854004,-0.13572406768798828,0.06268292665481567
-2.0690016746520996,0.459192156791687,2.3947367668151855,-0.30232852697372437,-0.1596570611000061,0.16631093621253967
-2.2161471843719482,0.4955800771713257,2.5361123085021973,-0.11090904474258423,-0.07551324367523193,0.08600980043411255
-1.7787513732910156,0.0247876588255167,2.7244741916656494,-0.043527305126190186,-0.0687362551689148,-0.1661047339439392
-1.7276864051818848,-0.13134628534317017,2.30389404296875,-0.30046552419662476,-0.1271287202835083,-0.13454657793045044
-2.165468215942383,-0.09694574773311615,1.6646549701690674,-0.5358922481536865,-0.25813403725624084,-0.014696896076202393
-2.7546868324279785,0.32256048917770386,1.579264521598816,-0.3490836024284363,-0.22245678305625916,0.05588328838348389
-2.7559974193573,0.3209145963191986,1.7046260833740234,-0.18812966346740723,-0.1124519556760788,-0.05029928684234619
-2.01253080368042,-0.3156864643096924,1.7652020454406738,-0.1438857913017273,-0.07561372220516205,-0.2617793679237366
-0.838343620300293,-1.0521807670593262,1.5144221782684326,-0.24592363834381104,-0.050755709409713745,-0.3915778398513794
0.19070428609848022,-1.7026104927062988,1.262999415397644,-0.2839500308036804,-0.039170704782009125,-0.3892679214477539
0.4510078430175781,-1.8794804811477661,1.2463696002960205,-0.1921505331993103,-0.007815919816493988,-0.2062280774116516
0.011769267730414867,-1.5531022548675537,1.404299259185791,-0.08861517906188965,0.00592648983001709,-0.004195868968963623
-0.780694842338562,-0.9633979201316833,1.51997971534729,-0.08441370725631714,0.0007430315017700195,0.1302257776260376
-1.4170026779174805,-0.4886445701122284,1.452602744102478,-0.17517834901809692,-0.004634201526641846,0.14186763763427734
-1.5002825260162354,-0.373293936252594,1.2209432125091553,-0.2798638939857483,-0.03682827949523926,-0.04041922092437744
-1.1263474225997925,-0.5317087769508362,0.8606358170509338,-0.35954272747039795,-0.05005493760108948,-0.21320486068725586
-0.6750656962394714,-0.724528431892395,0.5722800493240356,-0.3562055230140686,-0.056170254945755005,-0.3099098205566406
-0.5797212719917297,-0.5905948877334595,0.5099982023239136,-0.22267955541610718,-0.04430720955133438,-0.25994613766670227
-0.7475237846374512,-0.2426224648952484,0.5247753858566284,-0.1476517915725708,-0.05318719148635864,-0.17832303047180176
-0.7760438323020935,0.021916091442108154,0.5038496851921082,-0.13575124740600586,-0.05862247943878174,-0.16735124588012695
-0.459377259016037,0.03950951248407364,0.3551706373691559,-0.19926059246063232,-0.06528200209140778,-0.24810773134231567
0.018516141921281815,-0.1473558098077774,0.1789248287677765,-0.24173414707183838,-0.08051988482475281,-0.2964644432067871
0.278471976518631,-0.2141350954771042,0.05356169864535332,-0.22571909427642822,-0.0772986114025116,-0.252244770526886
0.24196265637874603,-0.060809213668107986,-0.07992229610681534,-0.2121800184249878,-0.10273706912994385,-0.17563974857330322
0.09635142236948013,0.24891231954097748,-0.20930083096027374,-0.22896850109100342,-0.13588517904281616,-0.15725857019424438
-0.049506306648254395,0.579059362411499,-0.3638390302658081,-0.27669626474380493,-0.18860433995723724,-0.17563599348068237
-0.10368164628744125,0.7342884540557861,-0.6624395251274109,-0.3728516697883606,-0.2412034571170807,-0.19664260745048523
0.1515793651342392,0.7508448958396912,-0.9746286869049072,-0.44595611095428467,-0.2657327950000763,-0.2843543291091919
0.5536960363388062,0.7580353021621704,-1.18034029006958,-0.4422725439071655,-0.23462915420532227,-0.37677353620529175
0.7986108660697937,0.7346401214599609,-1.3301860094070435,-0.4223775863647461,-0.18468937277793884,-0.3178032636642456
0.8015694618225098,0.6352723836898804,-1.406157374382019,-0.3819483518600464,-0.17639702558517456,-0.23277950286865234
0.7633175849914551,0.6101586818695068,-1.5316497087478638,-0.4023659825325012,-0.19281795620918274,-0.22274106740951538
0.674994170665741,0.8114399909973145,-1.8000644445419312,-0.49358034133911133,-0.17739030718803406,-0.2239282727241516
0.6324520707130432,0.9397246837615967,-2.030273675918579,-0.5286452770233154,-0.17407575249671936,-0.22188800573349
0.7922441363334656,0.9036406874656677,-2.100923538208008,-0.457258403301239,-0.15534593164920807,-0.27017533779144287
1.099469542503357,0.7908331751823425,-2.110372304916382,-0.41161251068115234,-0.08685877919197083,-0.31279557943344116
1.346117615699768,0.6168591976165771,-2.136220932006836,-0.39895719289779663,-0.04419867694377899,-0.2983476519584656
1.3542282581329346,0.526648223400116,-2.0829050540924072,-0.34584659337997437,-0.06302052736282349,-0.21786999702453613
1.2781777381896973,0.5697831511497498,-2.054900646209717,-0.3205253481864929,-0.07375425100326538,-0.18771159648895264
1.3574610948562622,0.6378210783004761,-2.0999767780303955,-0.35332024097442627,-0.06259113550186157,-0.2064570188522339
1.5613901615142822,0.6985471844673157,-2.184011697769165,-0.3627709150314331,-0.017746388912200928,-0.24414926767349243
1.5706745386123657,0.7368634939193726,-2.2450454235076904,-0.35033464431762695,0.013178884983062744,-0.20971739292144775
1.545811653137207,0.7077457904815674,-2.229959726333618,-0.31494778394699097,0.058178842067718506,-0.1525060534477234
1.6766587495803833,0.6101276278495789,-2.0586798191070557,-0.2149447202682495,0.12690722942352295,-0.1419670581817627
1.7855329513549805,0.6043515801429749,-1.9866187572479248,-0.1870354413986206,0.1798509955406189,-0.15196222066879272
1.634666085243225,0.7922071814537048,-2.033892869949341,-0.24330371618270874,0.1727542281150818,-0.09063082933425903
1.4774171113967896,0.9017122983932495,-2.132572650909424,-0.271309494972229,0.19621551036834717,-0.010424494743347168
1.578726887702942,0.5724456310272217,-2.1760382652282715,-0.22477105259895325,0.24158519506454468,-0.02786916494369507
1.8786728382110596,0.11489525437355042,-2.144550085067749,-0.12623491883277893,0.3013152480125427,-0.06345650553703308
1.9472554922103882,-0.21328844130039215,-1.9733998775482178,-0.043173402547836304,0.3390927314758301,-0.05786997079849243
1.7568488121032715,-0.16006718575954437,-1.76506769657135,0.031143158674240112,0.3647281527519226,0.02230939269065857
1.6773862838745117,0.06583128869533539,-1.7749111652374268,-0.012586832046508789,0.35886430740356445,-0.004399538040161133
1.7877453565597534,0.13341264426708221,-1.9655240774154663,-0.10438677668571472,0.3715288043022156,-0.07119250297546387
1.8644776344299316,0.07133432477712631,-2.0919065475463867,-0.13594481348991394,0.39383625984191895,-0.08823913335800171
1.7436318397521973,0.032112620770931244,-1.9763944149017334,-0.042380452156066895,0.4461302161216736,-0.028728604316711426
1.5475965738296509,0.08107262849807739,-1.769504189491272,0.026109904050827026,0.468112051486969,0.012255996465682983
1.4311784505844116,0.1616869568824768,-1.5975818634033203,0.06807990372180939,0.48261910676956177,0.01827026903629303
1.4341120719909668,0.1272171139717102,-1.4487484693527222,0.09190073609352112,0.5056511759757996,0.002656102180480957
1.4896659851074219,-0.19357706606388092,-1.2305448055267334,0.14122940599918365,0.5490528345108032,0.008093520998954773
1.711877465248108,-0.8551551103591919,-1.0002868175506592,0.17563754320144653,0.5896914601325989,-0.006355404853820801
1.9017083644866943,-1.4856683015823364,-0.9375839233398438,0.14239314198493958,0.568084716796875,-0.06177407503128052
1.5498062372207642,-1.4066615104675293,-0.8100207448005676,0.11420917510986328,0.5378798246383667,0.004670083522796631
0.911223292350769,-0.7240697145462036,-0.6203466057777405,0.14439669251441956,0.5273357033729553,0.07251083850860596
0.3744227886199951,0.009425644762814045,-0.4486435353755951,0.15662327408790588,0.49004971981048584,0.07190138101577759
0.037176623940467834,0.4000396728515625,-0.24073070287704468,0.19586727023124695,0.4253639578819275,0.062395691871643066
-0.15732458233833313,0.4876696467399597,-0.02936425246298313,0.2034435272216797,0.37526869773864746,0.0797419548034668
-0.2657260298728943,0.37102973461151123,0.047444991767406464,0.13766813278198242,0.29422831535339355,0.11274862289428711
-0.2895461320877075,0.20462073385715485,0.04811658710241318,0.059322066605091095,0.21429812908172607,0.1327228546142578
-0.2864169776439667,0.14945851266384125,0.056959118694067,0.04392058029770851,0.16857510805130005,0.11442577838897705
-0.17916806042194366,0.1630333513021469,0.06124236062169075,0.025528021156787872,0.12815284729003906,0.05711115151643753
-0.0549783930182457,0.14886049926280975,0.09174300730228424,0.03521096706390381,0.10118973255157471,0.005156457424163818
-0.03359217196702957,0.1318824142217636,0.12314917147159576,0.03720077872276306,0.07696843147277832,0.016133666038513184
-0.07349102199077606,0.008523715659976006,0.05621928721666336,0.002660512924194336,0.04731529951095581,0.049115538597106934
-0.10831660777330399,-0.0781894400715828,-0.018336478620767593,-0.02624025195837021,0.023322582244873047,0.0671703889966011
-0.18922492861747742,0.02439400553703308,0.011441400274634361,-0.009343534708023071,0.022775471210479736,0.04075664281845093
-0.3048402965068817,0.23469752073287964,0.0714976117014885,0.023205630481243134,0.021921873092651367,0.031156770884990692
-0.38762906193733215,0.38280758261680603,0.11249721795320511,0.02382180094718933,0.019747376441955566,0.033344268798828125
-0.3799603581428528,0.36973950266838074,0.14401815831661224,0.029706232249736786,0.029998719692230225,0.02015405148267746
-0.2819298803806305,0.17563118040561676,0.06888447701931,0.005581952631473541,0.019112765789031982,0.013315804302692413
-0.0928429365158081,-0.029284587129950523,0.055548328906297684,0.007367581129074097,0.04567068815231323,-0.007419943809509277
0.06085456907749176,-0.12300484627485275,0.12118812650442123,0.03460422903299332,0.08382385969161987,-0.036403171718120575
0.07175049185752869,-0.07471523433923721,0.21608203649520874,0.06567201018333435,0.10554724931716919,-0.015759527683258057
-0.024990452453494072,0.0813710018992424,0.27198779582977295,0.050626009702682495,0.12113726139068604,0.012134313583374023
-0.13291984796524048,0.20173123478889465,0.256781667470932,0.026042260229587555,0.1200905442237854,0.028920061886310577
-0.16628439724445343,0.14456656575202942,0.221357524394989,0.023125499486923218,0.13333946466445923,0.019513368606567383
-0.14857478439807892,0.018612120300531387,0.21243330836296082,0.026446104049682617,0.1437840461730957,0.0324094295501709
-0.08689970523118973,-0.11916738748550415,0.27298301458358765,0.051633402705192566,0.17219066619873047,0.02006693184375763
0.0024528903886675835,-0.1937803328037262,0.38715052604675293,0.06600756198167801,0.2053552269935608,-0.006111316382884979
-0.02132534421980381,-0.12523135542869568,0.487983375787735,0.07620633393526077,0.22502845525741577,-0.003222338855266571
-0.13591694831848145,-0.01119139138609171,0.5330000519752502,0.06021779775619507,0.23575317859649658,0.024763107299804688
-0.3127783536911011,0.0044184173457324505,0.5542546510696411,0.05898009240627289,0.20446842908859253,0.07156307250261307
-0.4553610682487488,-0.05934549868106842,0.6280980706214905,0.07635445892810822,0.2197524905204773,0.08762212097644806
-0.5144854187965393,-0.1471347212791443,0.6880688071250916,0.0753946304321289,0.2275545597076416,0.06541943550109863
-0.4956553280353546,-0.24027304351329803,0.8159328699111938,0.05679666996002197,0.27138882875442505,0.025383085012435913
-0.4673982560634613,-0.335781991481781,0.9814954996109009,0.07339996099472046,0.3119553327560425,-0.0026918649673461914
-0.540667712688446,-0.26689836382865906,1.0978018045425415,0.07479286193847656,0.3219034671783447,-0.01945209503173828
-0.8375346660614014,-0.024534957483410835,1.1609491109848022,0.08364525437355042,0.26165878772735596,-0.004604712128639221
-1.1408767700195312,0.29583749175071716,1.2436561584472656,0.09411042928695679,0.23211371898651123,0.011067032814025879
-1.1719050407409668,0.470797061920166,1.3544033765792847,0.09149762988090515,0.21846342086791992,-0.04478578269481659
-0.987386167049408,0.3725602626800537,1.4551465511322021,0.08060529828071594,0.23869949579238892,-0.08667004108428955
-0.8072428703308105,0.004749175161123276,1.4630006551742554,0.05946934223175049,0.2509229779243469,-0.041450560092926025
-0.8261584639549255,-0.355613648891449,1.4429184198379517,0.07110083103179932,0.20041537284851074,0.04651308059692383
-0.9015753269195557,-0.4001066982746124,1.4689629077911377,0.10349813103675842,0.20120638608932495,0.07746484875679016
-0.8781087398529053,-0.36883002519607544,1.6514562368392944,0.11836540699005127,0.20452159643173218,0.022573024034500122
-0.8463714122772217,-0.29416346549987793,1.8779786825180054,0.1296001374721527,0.1916549801826477,-0.0007960200309753418
-0.7867758870124817,-0.18292050063610077,1.896249532699585,0.05269277095794678,0.11700910329818726,-0.006314873695373535
-0.903841495513916,-0.05977555364370346,1.7961993217468262,-0.03425651788711548,0.049115538597106934,0.03850087523460388
-1.1168123483657837,-0.04916473478078842,1.6718387603759766,-0.041857004165649414,0.02983027696609497,0.1356891393661499
-1.0377542972564697,-0.47874242067337036,1.675531029701233,0.00504755973815918,0.04778558015823364,0.12391316890716553
-0.4135291278362274,-1.1438919305801392,1.7724512815475464,0.08798807859420776,0.07241672277450562,-0.01880595088005066
0.4109390377998352,-1.4059098958969116,1.9614553451538086,0.1279178261756897,0.0606575608253479,-0.18139773607254028
0.6605232954025269,-1.0808491706848145,2.177992582321167,0.11421698331832886,0.07166767120361328,-0.13843131065368652
0.27058571577072144,-0.5635713338851929,2.1140530109405518,-0.03252440690994263,0.02158975601196289,0.06447327136993408
-0.24759149551391602,-0.511147141456604,1.8820401430130005,-0.18938970565795898,-0.006522059440612793,0.2215481996536255
-0.3696824014186859,-1.0333327054977417,1.946265459060669,-0.12204098701477051,-0.017003953456878662,0.21166983246803284
0.057978224009275436,-1.3496886491775513,2.0027060508728027,-0.06697750091552734,0.008118093013763428,-0.04363679885864258
0.6087496280670166,-1.176049828529358,1.9363186359405518,-0.07147562503814697,0.04452580213546753,-0.2158757895231247
0.718551516532898,-0.7098855972290039,1.9266809225082397,-0.04646635055541992,0.06271076202392578,-0.16920459270477295
0.15064342319965363,-0.14229343831539154,2.010263681411743,-0.0564274787902832,0.03257143497467041,0.02622993290424347
-0.6195291876792908,0.09753379970788956,2.072248935699463,-0.11218571662902832,0.04566499590873718,0.2360602766275406
-0.8193568587303162,-0.06642316281795502,1.9841639995574951,-0.23654049634933472,0.03992453217506409,0.16436167061328888
-0.3973998427391052,-0.3590089976787567,1.939393162727356,-0.2244734764099121,0.03936833143234253,-0.08743304014205933
0.10329842567443848,-0.36023399233818054,1.8795292377471924,-0.23163437843322754,0.04154279828071594,-0.23777179419994354
0.04095016047358513,-0.128493070602417,1.886827826499939,-0.22810626029968262,0.02839037775993347,-0.13071677088737488
-0.5137001872062683,0.2594601809978485,1.9084171056747437,-0.24824035167694092,0.00563088059425354,0.06294071674346924
-1.0614066123962402,0.40250498056411743,1.9476056098937988,-0.25377362966537476,0.019163742661476135,0.17477841675281525
-1.031903624534607,0.010721048340201378,2.0080175399780273,-0.2511447072029114,0.02337026596069336,0.0784863829612732
-0.5383394956588745,-0.5908998250961304,1.994726538658142,-0.2664235234260559,0.02850179374217987,-0.11586067080497742
0.042573489248752594,-1.128381371498108,1.8210034370422363,-0.3629711866378784,0.0047026872634887695,-0.2041844129562378
0.26337310671806335,-1.2776541709899902,1.8133409023284912,-0.3246075510978699,-0.01244264468550682,-0.1787712424993515
0.0561453141272068,-1.0558297634124756,1.899697184562683,-0.25193047523498535,-0.02856770157814026,-0.09595167636871338
-0.21673420071601868,-0.7141215205192566,1.797666311264038,-0.3140014410018921,-0.06979253888130188,-0.04826094210147858
-0.2704516053199768,-0.655818521976471,1.6232759952545166,-0.378510057926178,-0.11654117703437805,-0.08930027484893799
-0.04782304912805557,-0.9944225549697876,1.3435583114624023,-0.4181891679763794,-0.16108518838882446,-0.15096652507781982
0.46727293729782104,-1.663346767425537,0.9725173115730286,-0.45438152551651,-0.1901198923587799,-0.17891603708267212
0.9032655954360962,-1.894649624824524,0.6640236377716064,-0.4133014678955078,-0.21452103555202484,-0.2249842882156372
1.0046902894973755,-1.5228137969970703,0.3295169174671173,-0.398054838180542,-0.2032051384449005,-0.20458495616912842
0.9655622839927673,-1.0044902563095093,0.015993895009160042,-0.3450317978858948,-0.184999018907547,-0.149458646774292
0.897605836391449,-0.5259641408920288,-0.156204491853714,-0.2753339409828186,-0.16687530279159546,-0.12451767921447754
0.7764421105384827,-0.06014102324843407,-0.18642978370189667,-0.19206476211547852,-0.1538275182247162,-0.06830990314483643
0.5979324579238892,0.2441374957561493,-0.23427751660346985,-0.19129836559295654,-0.17575527727603912,0.0003601331263780594
0.5221538543701172,0.17560964822769165,-0.3762859106063843,-0.24972796440124512,-0.20209437608718872,0.04282665252685547
0.8379595279693604,-0.7332993745803833,-0.6472440958023071,-0.30084556341171265,-0.19167456030845642,0.037999629974365234
1.4285701513290405,-1.5991791486740112,-0.9436438679695129,-0.35035866498947144,-0.2037798911333084,-0.058549996465444565
1.513535976409912,-1.4720808267593384,-1.1314066648483276,-0.33245187997817993,-0.19592362642288208,-0.08219730854034424
0.8804765939712524,-0.6191734671592712,-1.3516827821731567,-0.35443711280822754,-0.21480722725391388,0.0676751360297203
-0.11273173242807388,0.6198180913925171,-1.5961111783981323,-0.4132704734802246,-0.21839070320129395,0.22945833206176758
-0.9195284843444824,1.3755788803100586,-1.873386263847351,-0.471643328666687,-0.2111864686012268,0.29970860481262207
-1.4461368322372437,1.4049153327941895,-2.1694741249084473,-0.5167624950408936,-0.21386700868606567,0.34536004066467285
-1.5008925199508667,1.2059004306793213,-2.624176502227783,-0.6542733907699585,-0.1735517978668213,0.2969377040863037
-1.0585875511169434,0.9740646481513977,-3.093923807144165,-0.7502520084381104,-0.12725985050201416,0.0720900297164917
-0.5509616136550903,0.8194551467895508,-3.187944173812866,-0.6129547953605652,-0.0525636225938797,-0.09093451499938965
-0.1982714682817459,0.6397343873977661,-3.173625946044922,-0.4435810446739197,-0.01012846827507019,-0.09094935655593872
-0.08565263450145721,0.4416365623474121,-3.337541341781616,-0.4383687376976013,-0.020381838083267212,-0.03537791594862938
-0.20195041596889496,0.5309891700744629,-3.5884945392608643,-0.5174896717071533,-0.05870470404624939,0.01631058007478714
-0.2884089946746826,0.8617343902587891,-3.802260637283325,-0.5379476547241211,-0.02632051706314087,0.012945413589477539
-0.1678578108549118,1.1857649087905884,-3.8805606365203857,-0.46213704347610474,0.0387645959854126,-0.048257410526275635
0.14703117311000824,1.1917881965637207,-3.7704763412475586,-0.3356568217277527,0.09028130769729614,-0.1080927774310112
0.38036566972732544,0.9071592092514038,-3.6442291736602783,-0.22192871570587158,0.09770947694778442,-0.07572668790817261
0.5596593618392944,0.6617805361747742,-3.6058475971221924,-0.22277599573135376,0.12657421827316284,-0.0341302752494812
0.9046999216079712,0.4275449216365814,-3.6437346935272217,-0.2428479790687561,0.1492694616317749,-0.06059892475605011
1.5931679010391235,3.37967649102211e-05,-3.517183542251587,-0.1738567352294922,0.2527846693992615,-0.1779184341430664
2.495922803878784,-0.5847598314285278,-3.1663360595703125,-0.03121185302734375,0.3074418902397156,-0.3590160012245178
2.8559718132019043,-0.7861593961715698,-2.98864483833313,-0.021537601947784424,0.3162120580673218,-0.3276140093803406
2.5991954803466797,-0.6632522344589233,-2.8690013885498047,-0.09957203269004822,0.2813571095466614,-0.1264634132385254
2.2627384662628174,-0.712055504322052,-2.831634998321533,-0.10519018769264221,0.28978657722473145,0.015657663345336914
2.447068452835083,-1.0803577899932861,-2.617096424102783,-0.0672333836555481,0.31015920639038086,-0.07009675353765488
3.388261318206787,-1.7611289024353027,-2.2556514739990234,0.06970983743667603,0.34982025623321533,-0.38592293858528137
4.160066604614258,-1.9098788499832153,-2.316272258758545,-0.07810740172863007,0.34872931241989136,-0.5694063305854797
4.006580352783203,-1.742753028869629,-2.191471576690674,-0.08722622692584991,0.367479145526886,-0.34984496235847473
3.1648519039154053,-1.3366367816925049,-1.9656234979629517,0.017891064286231995,0.3301425576210022,-0.06690829992294312
2.1981685161590576,-0.8341935873031616,-1.7152085304260254,0.04191617667675018,0.32634437084198,0.07904958724975586
1.74659264087677,-0.7056658864021301,-1.530732274055481,0.026432309299707413,0.27965593338012695,0.020908653736114502
1.8186579942703247,-0.9372652769088745,-1.2776588201522827,0.06187593936920166,0.31126248836517334,-0.18928754329681396
1.9756486415863037,-1.0567119121551514,-1.2367955446243286,0.010240210220217705,0.2760663628578186,-0.27800971269607544
1.8704257011413574,-0.7849302887916565,-1.2498257160186768,-0.0824490338563919,0.21591180562973022,-0.2708090543746948
1.5582491159439087,-0.4835190773010254,-1.1768742799758911,-0.09698710590600967,0.18938636779785156,-0.18629580736160278
1.286637306213379,-0.5583099126815796,-1.0601016283035278,-0.047743864357471466,0.18360507488250732,-0.12324273586273193
1.160005807876587,-0.6926146745681763,-0.9785743951797485,-0.05359199643135071,0.18350398540496826,-0.14336305856704712
1.1002625226974487,-0.668405294418335,-0.8530378341674805,-0.04914291203022003,0.20480668544769287,-0.20679807662963867
0.96711266040802,-0.5230730175971985,-0.6803193688392639,-0.0028515756130218506,0.22663718461990356,-0.22207355499267578
0.8540872931480408,-0.37401893734931946,-0.5395703315734863,0.021360546350479126,0.24041497707366943,-0.22492605447769165
0.814227819442749,-0.2873902916908264,-0.4625074863433838,0.01868470013141632,0.2505210041999817,-0.2598934769630432
0.8024840354919434,-0.3625377416610718,-0.5395841598510742,-0.05083310604095459,0.24128705263137817,-0.24810749292373657
0.6560263633728027,-0.3840535879135132,-0.46517214179039,-0.028781548142433167,0.22771096229553223,-0.20267051458358765
0.4259256422519684,-0.21745704114437103,-0.3115098476409912,0.03741121292114258,0.22639787197113037,-0.16701459884643555
0.15936565399169922,0.05033241957426071,-0.1934961974620819,0.03611508011817932,0.20084530115127563,-0.152998685836792
-0.07513856142759323,0.23595501482486725,-0.11062276363372803,0.00993107259273529,0.16798067092895508,-0.12926381826400757
-0.21607041358947754,0.31665873527526855,-0.09596122056245804,-0.011380121111869812,0.15413999557495117,-0.12551456689834595
-0.23081322014331818,0.28172022104263306,-0.11762789636850357,-0.046842411160469055,0.14364314079284668,-0.15108263492584229
-0.2446676343679428,0.20647813379764557,-0.03046371415257454,-0.019964829087257385,0.15023469924926758,-0.15048092603683472
-0.339872807264328,0.2825055420398712,0.1281585395336151,0.029922351241111755,0.15546083450317383,-0.13008469343185425
-0.47787386178970337,0.4892590045928955,0.22078372538089752,0.017715051770210266,0.1370425820350647,-0.12298905849456787
-0.4922495186328888,0.6014430522918701,0.21516643464565277,-0.02938339114189148,0.1101536750793457,-0.12981784343719482
-0.40673112869262695,0.6372884511947632,0.21989530324935913,-0.02128787338733673,0.1034054160118103,-0.15428298711776733
-0.25282445549964905,0.5486774444580078,0.26420167088508606,-0.011847659945487976,0.11511421203613281,-0.16123777627944946
-0.17855797708034515,0.46003541350364685,0.41714751720428467,0.03551529347896576,0.1407303810119629,-0.14207667112350464
-0.27908411622047424,0.5950604677200317,0.5917966365814209,0.05782212316989899,0.16613906621932983,-0.1096048355102539
-0.4661066234111786,0.8368281126022339,0.7250215411186218,0.05501295626163483,0.17391550540924072,-0.0995975136756897
-0.6669004559516907,1.0552774667739868,0.7521531581878662,0.0070505812764167786,0.17268747091293335,-0.0844387412071228
-0.8790920972824097,1.2009395360946655,0.7361725568771362,-0.009099416434764862,0.16221797466278076,-0.07994550466537476
-1.0816000699996948,1.3386361598968506,0.7561611533164978,0.01484580710530281,0.1550336480140686,-0.07489001750946045
-1.1250876188278198,1.396915078163147,0.848239004611969,0.04692209139466286,0.1883569359779358,-0.11070626974105835
-1.027258276939392,1.3327319622039795,1.058862566947937,0.10121425986289978,0.23927289247512817,-0.1565222144126892
-0.8095198273658752,1.1565312147140503,1.3114320039749146,0.14939621090888977,0.2687852382659912,-0.19503003358840942
-0.555453896522522,1.037392258644104,1.4876973628997803,0.11681878566741943,0.27422845363616943,-0.24268698692321777
-0.48064953088760376,0.9654535055160522,1.5657709836959839,0.06389930099248886,0.27015578746795654,-0.22306525707244873
-0.5712844133377075,0.9420161247253418,1.6328339576721191,0.04604668915271759,0.2862359285354614,-0.14058548212051392
-0.5611605644226074,0.9502442479133606,1.763064980506897,0.10369962453842163,0.34518158435821533,-0.16364729404449463
-0.3488677442073822,0.8436834812164307,2.033743381500244,0.22104647755622864,0.4348239302635193,-0.2216598391532898
-0.0688643679022789,0.6925544142723083,2.38338565826416,0.2931571900844574,0.48619550466537476,-0.2568376660346985
-0.4409310221672058,0.8532888889312744,2.6708896160125732,0.24820634722709656,0.392558217048645,-0.10983932018280029
-1.2666065692901611,1.1231143474578857,2.591503858566284,0.028570622205734253,0.2596866488456726,0.16433662176132202
-1.2243716716766357,0.6890945434570312,2.4561715126037598,-0.10178142786026001,0.2138068675994873,0.13029831647872925
0.26500073075294495,-0.2255038321018219,2.4651474952697754,-0.08129441738128662,0.1906520128250122,-0.36796075105667114
1.8312320709228516,-0.4311411678791046,2.694685220718384,-0.03781670331954956,0.18256884813308716,-0.6882038712501526
1.9733209609985352,0.09994184970855713,2.8403730392456055,-0.06842577457427979,0.11919361352920532,-0.31191331148147583
0.9288234114646912,0.724707305431366,2.5854334831237793,-0.33390164375305176,-0.06370127201080322,0.26893603801727295
-0.37841686606407166,1.331337571144104,2.1327831745147705,-0.47804510593414307,-0.14654594659805298,0.5822728276252747
-0.7364602088928223,1.2993242740631104,1.8471429347991943,-0.40436750650405884,-0.12532758712768555,0.41805481910705566
-0.16607248783111572,0.8491191267967224,2.045708656311035,-0.1635950803756714,-0.10326659679412842,-0.03130978345870972
0.5146270394325256,0.6703721880912781,2.1586642265319824,-0.09068399667739868,-0.06627893447875977,-0.24720031023025513
0.8426238298416138,0.6685494780540466,1.8861161470413208,-0.25537121295928955,-0.10283461213111877,-0.16556984186172485
0.8184641003608704,0.7658149600028992,1.6208161115646362,-0.34804993867874146,-0.10493913292884827,-0.032836854457855225
0.4980822801589966,0.9881649613380432,1.7055054903030396,-0.12160974740982056,-0.04126349091529846,0.09079223871231079
0.17361006140708923,1.3338913917541504,1.8923476934432983,0.00013512372970581055,0.021902143955230713,0.0998212993144989
-0.0281214639544487,1.6052740812301636,2.0836985111236572,-0.016635775566101074,0.024042457342147827,0.04357835650444031
-0.1970462054014206,1.8023046255111694,2.130934238433838,-0.11993098258972168,0.005609452724456787,0.05007240176200867
-0.2431917041540146,1.8745543956756592,1.89678156375885,-0.2772257328033447,-0.04088631272315979,0.026221513748168945
-0.4058677554130554,1.8399027585983276,1.6862281560897827,-0.3646928071975708,-0.08096198737621307,0.03451228141784668
-0.6342335343360901,1.8160700798034668,1.8144475221633911,-0.1868535280227661,-0.05271920561790466,0.07154867053031921
-0.7013564705848694,1.8925185203552246,2.0396671295166016,-0.05765336751937866,0.00238858163356781,-0.0028580129146575928
-0.35832110047340393,1.7073484659194946,2.0639214515686035,-0.06411010026931763,0.02720727026462555,-0.10194811224937439
0.17647399008274078,1.3257442712783813,1.9150679111480713,-0.16647040843963623,0.03378906846046448,-0.15894854068756104
0.34539949893951416,1.0015249252319336,1.7287795543670654,-0.22455549240112305,0.012932248413562775,-0.035742610692977905
0.023478688672184944,1.0230263471603394,1.7654249668121338,-0.14876574277877808,-0.013522941619157791,0.14117957651615143
-0.4514693021774292,1.224778413772583,1.863853096961975,-0.09649521112442017,-0.029972106218338013,0.21527133882045746
-0.8194113373756409,1.3279848098754883,1.909328579902649,-0.1201743483543396,-0.05119134858250618,0.19368968904018402
-1.0249663591384888,1.280821442604065,1.845185399055481,-0.18927663564682007,-0.08301567286252975,0.15479828417301178
-1.0866940021514893,1.1798880100250244,1.7319880723953247,-0.24756735563278198,-0.1161995530128479,0.10732079297304153
-1.1606558561325073,1.1182719469070435,1.6093602180480957,-0.25697994232177734,-0.1518939584493637,0.07748378068208694
-1.2582228183746338,1.153781533241272,1.4763864278793335,-0.26082414388656616,-0.17813140153884888,0.08304154872894287
-1.2824171781539917,1.128743290901184,1.3860865831375122,-0.2289091944694519,-0.17838899791240692,0.06400859355926514
-1.1874902248382568,1.00368070602417,1.2284756898880005,-0.22675848007202148,-0.17970186471939087,0.022679446265101433
-1.041998028755188,0.8550073504447937,0.9444658756256104,-0.2676059603691101,-0.17395202815532684,0.008330464363098145
-0.9324347972869873,0.782474160194397,0.7052983641624451,-0.2575352191925049,-0.15351268649101257,0.009132325649261475
-0.8640254139900208,0.7257224917411804,0.5219337344169617,-0.20781797170639038,-0.13591396808624268,0.018132805824279785
-0.8039616942405701,0.7180363535881042,0.4841917157173157,-0.130407452583313,-0.11699375510215759,0.01690196990966797
-0.7479784488677979,0.7307960391044617,0.5438823103904724,-0.046174585819244385,-0.1000467836856842,-0.002116672694683075
-0.652229368686676,0.6476802229881287,0.4370577931404114,-0.05275362730026245,-0.09075850248336792,0.0037177205085754395
-0.5408000349998474,0.5403158664703369,0.11643566191196442,-0.1492810845375061,-0.10815945267677307,0.015697181224822998
-0.5301414728164673,0.5439547300338745,-0.11767009645700455,-0.17906558513641357,-0.08400678634643555,0.032199859619140625
-0.6032825112342834,0.5072796940803528,-0.0726759061217308,-0.08781427145004272,-0.050230592489242554,0.06157094985246658
-0.6276082396507263,0.4557950496673584,0.03756542503833771,-0.0630713701248169,-0.01301431655883789,0.04354143142700195
-0.6426030993461609,0.4601503312587738,-0.04404330626130104,-0.1534174084663391,-0.003535836935043335,0.01355057954788208
-0.6518910527229309,0.5861519575119019,-0.4302729070186615,-0.34097349643707275,-0.028299808502197266,0.0069710612297058105
-0.6624276041984558,0.7808655500411987,-0.7746045589447021,-0.41505861282348633,-0.053964585065841675,-0.0057718828320503235
-0.7236465215682983,0.8566699028015137,-0.8714491128921509,-0.34226423501968384,-0.04280593991279602,0.00637345016002655
-0.7960941791534424,0.7011844515800476,-0.8204926252365112,-0.25080406665802,-0.04432004690170288,0.03449593484401703
-0.721920371055603,0.3912668526172638,-0.8946909308433533,-0.28553056716918945,-0.08166943490505219,0.024391666054725647
-0.4772791862487793,0.20247167348861694,-1.2310774326324463,-0.4491567015647888,-0.12972867488861084,-0.06154900789260864
-0.28135576844215393,0.21889032423496246,-1.6455000638961792,-0.5558185577392578,-0.14743921160697937,-0.12061429023742676
-0.18576034903526306,0.32249659299850464,-1.9933929443359375,-0.5682501196861267,-0.11250555515289307,-0.0946122407913208
-0.23858623206615448,0.42353355884552,-2.1311991214752197,-0.4812220335006714,-0.06708300113677979,-0.030894696712493896
-0.4126253128051758,0.4502499997615814,-2.2062604427337646,-0.4091305732727051,-0.05569053441286087,0.038120463490486145
-0.5550262331962585,0.46641236543655396,-2.3531596660614014,-0.41255998611450195,-0.0362389050424099,0.08198074996471405
-0.5382544994354248,0.43155592679977417,-2.416691541671753,-0.3840469717979431,-3.155972808599472e-05,0.04914303123950958
-0.34868550300598145,0.3208662271499634,-2.5008468627929688,-0.35092657804489136,0.021065346896648407,0.005345568060874939
-0.061367928981781006,0.12143606692552567,-2.578299045562744,-0.3497235178947449,0.012802429497241974,-0.048379287123680115
0.11898829787969589,-0.05015868693590164,-2.630816698074341,-0.32951033115386963,0.02094915509223938,-0.04309910535812378
0.012685451656579971,0.03177012503147125,-2.6084156036376953,-0.29736196994781494,0.01779097318649292,0.009817525744438171
-0.24512319266796112,0.3444594144821167,-2.56571364402771,-0.27735650539398193,0.022545337677001953,0.06265944242477417
-0.41200998425483704,0.6529572010040283,-2.5019283294677734,-0.23424923419952393,0.04244595766067505,0.06073087453842163
-0.45493003726005554,0.877403736114502,-2.499974250793457,-0.22442471981048584,0.05252215266227722,0.026371628046035767
-0.3228627145290375,0.8405344486236572,-2.584639549255371,-0.21282744407653809,0.06949445605278015,0.017802968621253967
-0.0011472944170236588,0.6066176891326904,-2.6341092586517334,-0.1718301773071289,0.09902164340019226,-0.02580319344997406
0.22868381440639496,0.32940271496772766,-2.5157523155212402,-0.08070158958435059,0.11231997609138489,-0.04350392520427704
0.25144168734550476,0.2991856634616852,-2.3805389404296875,-0.04249680042266846,0.11318790912628174,0.005672872066497803
0.29045990109443665,0.3645583391189575,-2.316432476043701,-0.02527022361755371,0.15800154209136963,0.018931031227111816
0.46044060587882996,0.29620686173439026,-2.252258539199829,-0.019203126430511475,0.1956227421760559,-0.009990930557250977
0.7219983339309692,0.08862035721540451,-2.165928363800049,-0.00720059871673584,0.2065427303314209,-0.05817052721977234
0.8327145576477051,0.03770802542567253,-2.0766379833221436,0.006378769874572754,0.20208323001861572,-0.07193183898925781
0.7126411199569702,0.25717124342918396,-2.031606674194336,-0.01672673225402832,0.2020387053489685,-0.018236622214317322
0.5226553082466125,0.5259761810302734,-1.9712469577789307,0.0009481310844421387,0.2085285782814026,0.026499763131141663
0.5050030946731567,0.7198606729507446,-1.8557169437408447,0.029861032962799072,0.2375173568725586,-0.003824576735496521
0.6083100438117981,0.8271744251251221,-1.6205788850784302,0.09177279472351074,0.2647457718849182,-0.04312686622142792
0.6687384843826294,0.8702568411827087,-1.3889436721801758,0.11330938339233398,0.25849485397338867,-0.039154574275016785
0.5955937504768372,0.9875515699386597,-1.33721923828125,0.05616426467895508,0.2412043809890747,0.004909247159957886
0.3191883862018585,1.275159239768982,-1.3346583843231201,-0.01066601276397705,0.2092885971069336,0.06668014824390411
0.057635512202978134,1.5289229154586792,-1.2911194562911987,0.008972197771072388,0.21954089403152466,0.10330350697040558
-0.004070439375936985,1.6008799076080322,-1.1225122213363647,0.09381487965583801,0.23058855533599854,0.07794037461280823
0.11683672666549683,1.573603630065918,-0.8749902844429016,0.16778212785720825,0.26162195205688477,0.035417377948760986
0.2749091684818268,1.6946113109588623,-0.5987725257873535,0.2207792103290558,0.2906033396720886,0.016585737466812134
0.24219495058059692,1.8745571374893188,-0.39095231890678406,0.21418854594230652,0.2926170229911804,0.06522020697593689
0.19771936535835266,1.6616142988204956,-0.5755838751792908,0.023408979177474976,0.22743117809295654,0.11796513199806213
0.2826021611690521,1.0099550485610962,-0.779819130897522,-0.05337229371070862,0.16167306900024414,0.1101188063621521
0.3608056306838989,0.42212843894958496,-0.6393941640853882,0.07093995809555054,0.16762083768844604,0.06615272164344788
0.2542923092842102,0.3235568106174469,-0.38532739877700806,0.1418779492378235,0.17200934886932373,0.045818716287612915
0.08789736777544022,0.45628371834754944,-0.3195273280143738,0.08549213409423828,0.1506243348121643,0.043103426694869995
0.11295217275619507,0.4504518508911133,-0.3501985967159271,0.03014427423477173,0.1389617919921875,0.015498131513595581
0.35012179613113403,0.19684723019599915,-0.391817182302475,0.03062969446182251,0.1407145857810974,-0.03086066246032715
0.6151398420333862,-0.11320053040981293,-0.3893088102340698,0.05085325241088867,0.158416748046875,-0.04167753458023071
0.5394198298454285,-0.2116207629442215,-0.38355860114097595,0.058857887983322144,0.1327681541442871,0.014171600341796875
0.1995883584022522,0.032459791749715805,-0.3903816044330597,0.03619420528411865,0.1246417760848999,0.09242123365402222
-0.1339579075574875,0.25291693210601807,-0.353726327419281,0.05325138568878174,0.12374019622802734,0.12599539756774902
-0.21733935177326202,0.31991657614707947,-0.33495351672172546,0.04685699939727783,0.1283571720123291,0.07447803020477295
-0.11270353943109512,0.23551350831985474,-0.3794217109680176,0.009653091430664062,0.11240720748901367,-0.013896942138671875
-0.15907347202301025,0.24411943554878235,-0.41786232590675354,-0.019410908222198486,0.09189331531524658,-0.012611359357833862
-0.3442261815071106,0.39768582582473755,-0.4582471549510956,-0.021224021911621094,0.07803082466125488,0.03957092761993408
-0.4441011846065521,0.5024058818817139,-0.4418293833732605,0.0032448768615722656,0.0754232406616211,0.053481459617614746
-0.3475678265094757,0.41474825143814087,-0.37137746810913086,0.030646145343780518,0.09265053272247314,0.014495164155960083
-0.11791201680898666,0.1418021023273468,-0.28664663434028625,0.055479228496551514,0.09886342287063599,-0.015520453453063965
0.10589282214641571,-0.1541888415813446,-0.20260834693908691,0.05723367631435394,0.1025204062461853,-0.015097230672836304
0.26554766297340393,-0.38644784688949585,-0.12601648271083832,0.06958407163619995,0.09993404150009155,-0.0019971132278442383
0.2917666733264923,-0.39881303906440735,-0.0875016376376152,0.043694525957107544,0.09029918909072876,0.005098164081573486
0.11148526519536972,-0.16816607117652893,-0.05678065866231918,0.03109811246395111,0.07600432634353638,0.02668282389640808
-0.14907993376255035,0.21917752921581268,-0.07190575450658798,0.005673229694366455,0.054570674896240234,0.06036067008972168
-0.24712194502353668,0.3357541263103485,-0.054294705390930176,0.008157745003700256,0.062190473079681396,0.056882232427597046
-0.16175860166549683,0.14267173409461975,0.014627753756940365,0.051841214299201965,0.06579506397247314,0.04537889361381531
0.01263563521206379,-0.1296374797821045,0.12284069508314133,0.07837244868278503,0.09232616424560547,0.027996361255645752
0.1388619989156723,-0.35217589139938354,0.21345946192741394,0.09185686707496643,0.1046832799911499,0.03015756607055664
0.059348318725824356,-0.2552962303161621,0.2064109891653061,0.050546854734420776,0.09847152233123779,0.04818812012672424
-0.24017977714538574,0.1001254990696907,0.15799486637115479,0.014744743704795837,0.10002392530441284,0.10321536660194397
-0.563969075679779,0.3451257050037384,0.14574246108531952,0.031345024704933167,0.12249475717544556,0.16075608134269714
-0.820509672164917,0.3597443103790283,0.21486611664295197,0.08154019713401794,0.1484021544456482,0.18632280826568604
-0.9757095575332642,0.3054094910621643,0.34827920794487,0.12001121044158936,0.1811419129371643,0.1776421070098877
-1.029794692993164,0.20635485649108887,0.5041263699531555,0.13860125839710236,0.21290236711502075,0.14262822270393372
-0.977392852306366,0.05046870559453964,0.5916100740432739,0.13797461986541748,0.23837602138519287,0.10843038558959961
-0.9605268836021423,-0.10928979516029358,0.577372670173645,0.09508773684501648,0.2240508794784546,0.09700006246566772
-1.064685583114624,-0.10908801853656769,0.6284716129302979,0.08898013830184937,0.24106836318969727,0.10897356271743774
-1.308495044708252,0.04489400237798691,0.7403786778450012,0.1111663281917572,0.2349727749824524,0.136447936296463
-1.7424108982086182,0.39464858174324036,0.8806455135345459,0.11204597353935242,0.22812217473983765,0.1711863875389099
-2.302431344985962,0.8582368493080139,0.850612998008728,0.07173210382461548,0.21275830268859863,0.22459900379180908
-2.812286853790283,1.1006814241409302,0.5411732196807861,-0.06199023127555847,0.17739301919937134,0.23556804656982422
-3.207645893096924,1.085863709449768,0.11783760786056519,-0.1301966905593872,0.14210599660873413,0.21660637855529785
-3.4565014839172363,1.1784642934799194,-0.20405010879039764,-0.12487980723381042,0.1621185541152954,0.16965901851654053
-3.527935266494751,1.3159658908843994,-0.19835416972637177,-0.015434980392456055,0.21628648042678833,0.14349913597106934
-3.215200424194336,1.0767124891281128,0.1884361207485199,0.15096673369407654,0.2602381706237793,0.10206592082977295
-2.4610109329223633,0.14718498289585114,0.6743913292884827,0.2369646579027176,0.23790347576141357,0.029342293739318848
-1.5361528396606445,-1.0931968688964844,0.9138476848602295,0.1667274534702301,0.20125752687454224,-0.020596206188201904
-0.8504610657691956,-1.9672640562057495,0.8665257096290588,0.013966739177703857,0.14496088027954102,-0.041427791118621826
-0.7839087247848511,-2.2370314598083496,0.852605938911438,-0.044350773096084595,0.11566329002380371,0.027891695499420166
-1.2114490270614624,-1.9407709836959839,0.9643914699554443,-0.005773365497589111,0.08328235149383545,0.12777549028396606
-1.684812068939209,-1.2422420978546143,1.149862289428711,0.04250440001487732,0.0878191888332367,0.15691864490509033
-1.8350163698196411,-0.7104833126068115,1.2896414995193481,0.06521075963973999,0.09198179841041565,0.10997188091278076
-1.5131646394729614,-0.7925121188163757,1.2262084484100342,0.01787477731704712,0.07955017685890198,0.026738107204437256
-1.1989514827728271,-1.109951138496399,1.0948039293289185,-0.02320462465286255,0.04066282510757446,0.025716543197631836
-1.3778479099273682,-1.3503745794296265,1.0852687358856201,-0.006835669279098511,0.02551424503326416,0.14105045795440674
-1.8985438346862793,-1.365949273109436,1.2374355792999268,0.02743518352508545,0.028870493173599243,0.23195207118988037
-2.2472684383392334,-1.1833069324493408,1.4023916721343994,0.033686935901641846,0.05309423804283142,0.17441952228546143
-2.0732972621917725,-1.0741914510726929,1.5994071960449219,0.03626561164855957,0.08964622020721436,0.015950381755828857
-1.4684474468231201,-1.2172727584838867,1.5722112655639648,0.012941300868988037,0.11337614059448242,-0.11681979894638062
-1.1705520153045654,-1.440011978149414,1.1881455183029175,-0.19230979681015015,0.05638325214385986,-0.10790377855300903
-1.8049037456512451,-1.4046427011489868,1.1855374574661255,-0.16110581159591675,0.027509063482284546,0.08862173557281494
-2.8607819080352783,-0.8607033491134644,1.329519271850586,-0.08504718542098999,0.029867708683013916,0.22126156091690063
-3.5961694717407227,-0.2806455194950104,1.480779767036438,-0.10183995962142944,0.1264691948890686,0.16158050298690796
-3.5205609798431396,-0.4012594223022461,1.6144988536834717,-0.10704165697097778,0.16880609095096588,-0.0462038516998291
-2.6693437099456787,-1.074641466140747,1.7129905223846436,-0.08617043495178223,0.17182618379592896,-0.24665462970733643
-1.3628413677215576,-1.903439998626709,1.7331812381744385,-0.09372907876968384,0.16161957383155823,-0.3771933913230896
-0.08502271771430969,-2.6697487831115723,1.6577411890029907,-0.13403773307800293,0.17160248756408691,-0.39041590690612793
0.5329880118370056,-3.1121718883514404,1.571906328201294,-0.1579831838607788,0.18283557891845703,-0.26221227645874023
0.41011783480644226,-3.136496067047119,1.5879565477371216,-0.14087599515914917,0.1730990707874298,-0.08592337369918823
-0.195169597864151,-2.665684461593628,1.7368011474609375,-0.11735236644744873,0.1747974455356598,0.029054105281829834
-0.9012554883956909,-1.9514799118041992,1.8526138067245483,-0.14795523881912231,0.16929346323013306,0.055596500635147095
-1.431287407875061,-1.2442232370376587,1.821059226989746,-0.2694586515426636,0.13465511798858643,-0.03204554319381714
-1.6460840702056885,-0.9049249887466431,1.5924526453018188,-0.3805605173110962,0.0987401008605957,-0.1367855668067932
-1.5125999450683594,-0.9493221044540405,1.2351986169815063,-0.44443368911743164,0.041696906089782715,-0.26328539848327637
-1.1909433603286743,-1.194411039352417,0.8919824957847595,-0.4312688708305359,-0.0009369254112243652,-0.35410276055336
-0.7441828846931458,-1.4333727359771729,0.6572487950325012,-0.3615328073501587,-0.006886005401611328,-0.42171305418014526
-0.21835069358348846,-1.4085841178894043,0.4866371750831604,-0.29822367429733276,-0.009010136127471924,-0.4865734875202179
0.19250522553920746,-0.8983411192893982,0.26536664366722107,-0.3070187568664551,0.007045388221740723,-0.5174193382263184
0.4058506190776825,-0.3209973871707916,0.10799778997898102,-0.30413544178009033,0.01689302921295166,-0.454409122467041
0.4773661196231842,-0.018934661522507668,0.02379467338323593,-0.24930715560913086,0.027087926864624023,-0.32795509696006775
0.48288941383361816,0.09964746981859207,-0.043934665620326996,-0.22718852758407593,0.009992837905883789,-0.23296520113945007
0.44557860493659973,0.18277446925640106,-0.10663964599370956,-0.2275453805923462,0.03034043312072754,-0.16547036170959473
0.35875988006591797,0.22597938776016235,-0.18026529252529144,-0.21716082096099854,0.029006481170654297,-0.12226980924606323
0.20317183434963226,0.3640308082103729,-0.29724180698394775,-0.20919036865234375,0.02263617515563965,-0.08242452144622803
0.06549239158630371,0.5306347012519836,-0.44383150339126587,-0.22070002555847168,0.025513052940368652,-0.07769349217414856
-0.049120813608169556,0.606089174747467,-0.5891464948654175,-0.23030555248260498,0.019664108753204346,-0.06543254852294922
-0.12440243363380432,0.5343037843704224,-0.6883814334869385,-0.21841776371002197,-0.0026767849922180176,-0.07111498713493347
-0.14691118896007538,0.3868595361709595,-0.7389177083969116,-0.18981695175170898,-0.04455125331878662,-0.09595978260040283
-0.07474587857723236,0.42274126410484314,-0.7836120128631592,-0.19845426082611084,-0.041878461837768555,-0.15189632773399353
0.04698977991938591,0.4682694673538208,-0.8230791687965393,-0.18497109413146973,-0.03684946894645691,-0.19955414533615112
0.13694803416728973,0.5107080936431885,-0.8769592642784119,-0.187150239944458,-0.05472049117088318,-0.20406460762023926
0.24357622861862183,0.524722158908844,-0.9645137786865234,-0.20933252573013306,-0.05131030082702637,-0.2178260087966919
0.41245126724243164,0.4240909218788147,-1.0377695560455322,-0.2218908667564392,-0.037001460790634155,-0.22662797570228577
0.6196630001068115,0.2979001998901367,-1.096601128578186,-0.22825610637664795,-0.014194726943969727,-0.2394658327102661
0.8964278101921082,0.10659801959991455,-1.1974314451217651,-0.24754488468170166,-0.0107191801071167,-0.2699207663536072
1.1435105800628662,0.04459614306688309,-1.2822664976119995,-0.2549281120300293,-0.005673885345458984,-0.2822948694229126
1.2630550861358643,0.19001133739948273,-1.3339735269546509,-0.24728459119796753,0.023405730724334717,-0.2687653601169586
1.2668923139572144,0.45030736923217773,-1.3409744501113892,-0.24506503343582153,0.02920249104499817,-0.2262348234653473
1.3491771221160889,0.6749709248542786,-1.3314257860183716,-0.2798152565956116,0.09278237819671631,-0.20409056544303894
1.5816484689712524,0.6698111891746521,-1.3344494104385376,-0.30987149477005005,0.12891660630702972,-0.19728240370750427
1.826421856880188,0.569036602973938,-1.3910390138626099,-0.3031713366508484,0.12298406660556793,-0.1679004728794098
1.9628398418426514,0.4943612813949585,-1.5264019966125488,-0.32704007625579834,0.11346399784088135,-0.11382031440734863
1.923162579536438,0.5175726413726807,-1.6976484060287476,-0.3292273283004761,0.12824836373329163,-0.0388026237487793
1.732372760772705,0.5824189186096191,-1.774583339691162,-0.30037063360214233,0.14642727375030518,0.033192336559295654
1.6643049716949463,0.5609431862831116,-1.8783901929855347,-0.2724970579147339,0.15867146849632263,0.050826311111450195
1.8272665739059448,0.450619101524353,-1.9693279266357422,-0.26200729608535767,0.1635669767856598,-0.02143871784210205
1.9161397218704224,0.41231366991996765,-1.9874613285064697,-0.22381985187530518,0.18770888447761536,-0.03764069080352783
1.8184956312179565,0.44687068462371826,-1.9724469184875488,-0.16831231117248535,0.1874638795852661,0.02422100305557251
1.694478154182434,0.4593365788459778,-2.0214290618896484,-0.16207128763198853,0.1608351171016693,0.04948735237121582
1.6184107065200806,0.49888846278190613,-2.0934529304504395,-0.1619665026664734,0.149639293551445,0.03998476266860962
1.522202730178833,0.5269790887832642,-2.1211559772491455,-0.13120895624160767,0.1582646369934082,0.03887283802032471
1.358873724937439,0.6070778369903564,-2.1447362899780273,-0.10886788368225098,0.16002285480499268,0.05897533893585205
1.2151222229003906,0.6323598623275757,-2.1854631900787354,-0.11761486530303955,0.15451887249946594,0.07566452026367188
1.1927156448364258,0.5088378190994263,-2.2011232376098633,-0.08446317911148071,0.16437429189682007,0.05039525032043457
1.2276709079742432,0.3610825836658478,-2.2441797256469727,-0.08303052186965942,0.163222074508667,0.015474259853363037
1.2679580450057983,0.4236977994441986,-2.2830612659454346,-0.06200110912322998,0.16905033588409424,-0.001977205276489258
1.3669413328170776,0.43731164932250977,-2.1776463985443115,0.03249180316925049,0.20734405517578125,0.0027979612350463867
1.4992432594299316,0.30108991265296936,-1.9533394575119019,0.11350536346435547,0.22310364246368408,0.01207500696182251
1.6480921506881714,0.12643902003765106,-1.7906602621078491,0.12545764446258545,0.21243345737457275,0.005892395973205566
1.6384657621383667,0.054714079946279526,-1.7178362607955933,0.09046298265457153,0.19706660509109497,0.017541944980621338
1.5199557542800903,0.006521873641759157,-1.8195379972457886,0.010127127170562744,0.16925859451293945,0.04966634511947632
1.4037470817565918,-0.10064727813005447,-1.8328824043273926,0.012473136186599731,0.17142558097839355,0.056753188371658325
1.3595541715621948,-0.14338719844818115,-1.6863951683044434,0.10276255011558533,0.19834309816360474,0.029128342866897583
1.3225637674331665,-0.07193715870380402,-1.5205532312393188,0.13086560368537903,0.22589111328125,-0.0015376508235931396
1.3252156972885132,-0.08094239979982376,-1.3980350494384766,0.10300087928771973,0.244440495967865,-0.010631024837493896
1.4382412433624268,-0.14309102296829224,-1.251319169998169,0.098377525806427,0.26978957653045654,-0.04173153638839722
1.6180182695388794,-0.22917279601097107,-1.093001365661621,0.10007333755493164,0.3085678815841675,-0.0813288688659668
1.7731457948684692,-0.28625160455703735,-0.928088903427124,0.12087354063987732,0.3443162441253662,-0.08588388562202454
1.8183099031448364,-0.41032740473747253,-0.8847215175628662,0.11248356103897095,0.35080206394195557,-0.05771636962890625
1.5763908624649048,-0.5172542333602905,-0.8542875051498413,0.09945663809776306,0.33076173067092896,0.014306724071502686
1.1456891298294067,-0.38458821177482605,-0.7675156593322754,0.11753407120704651,0.33408915996551514,0.09402413666248322
0.8193795680999756,-0.25255087018013,-0.7060887813568115,0.12364932894706726,0.3436547517776489,0.10732190310955048
0.7391135692596436,-0.15582367777824402,-0.653860867023468,0.11245951056480408,0.3391284942626953,0.04276855289936066
0.7196063995361328,-0.07871813327074051,-0.5812870860099792,0.12095886468887329,0.33974605798721313,-0.00046597421169281006
0.6081132292747498,-0.004109700210392475,-0.5350660681724548,0.111077219247818,0.3047026991844177,0.02519133687019348
0.4250529408454895,0.04668388143181801,-0.4996383488178253,0.1031406819820404,0.25242137908935547,0.06031163036823273
0.30566850304603577,0.07264704257249832,-0.4256778657436371,0.10690072178840637,0.21316081285476685,0.07353950291872025
0.24786747992038727,0.04427232965826988,-0.250540167093277,0.13785424828529358,0.18303775787353516,0.053308188915252686
0.28601568937301636,0.0009245035471394658,-0.11133094131946564,0.147323340177536,0.1567646861076355,0.02468031644821167
0.34682413935661316,-0.02555057406425476,-0.02643391862511635,0.1190805435180664,0.12855875492095947,0.0038201063871383667
0.32469508051872253,-0.0008977518300525844,0.001227239379659295,0.08381327986717224,0.1007617712020874,0.017706170678138733
0.23471492528915405,0.07743336260318756,-0.01410173624753952,0.056416720151901245,0.07786500453948975,0.04442554712295532
0.14169670641422272,0.1348850280046463,-0.02727196179330349,0.054060399532318115,0.07489520311355591,0.056853532791137695
0.026734286919236183,0.13671889901161194,0.03904183581471443,0.08234919607639313,0.08532804250717163,0.0672847107052803
-0.07469845563173294,0.14531540870666504,0.11383795738220215,0.10774755477905273,0.08135330677032471,0.06942111998796463
-0.18354369699954987,0.20958444476127625,0.15425077080726624,0.08645892143249512,0.07751995325088501,0.05988860875368118
-0.25002017617225647,0.2901630997657776,0.15053081512451172,0.06718790531158447,0.076590895652771,0.053914979100227356
-0.22344228625297546,0.2393396645784378,0.1827416718006134,0.08422088623046875,0.08780533075332642,0.04330611974000931
-0.1545465588569641,0.04419989138841629,0.3269343376159668,0.1354389488697052,0.11327230930328369,0.038879282772541046
-0.08890387415885925,-0.1310826539993286,0.4728679955005646,0.16222620010375977,0.12160170078277588,0.03931047022342682
-0.09023086726665497,-0.16581684350967407,0.5853398442268372,0.14346396923065186,0.12871968746185303,0.032426416873931885
-0.17598390579223633,-0.08225507289171219,0.6817488670349121,0.13690060377120972,0.13441461324691772,0.04284107685089111
-0.2948276698589325,0.03706942871212959,0.817227303981781,0.1504177451133728,0.15201008319854736,0.05172371864318848
-0.37122800946235657,0.08801566809415817,1.01375412940979,0.18437734246253967,0.1834181547164917,0.048519380390644073
-0.28874579071998596,-0.07454900443553925,1.1348634958267212,0.19202184677124023,0.19395405054092407,0.02628219872713089
-0.10709553956985474,-0.411777526140213,1.2003555297851562,0.17573508620262146,0.19350743293762207,-0.00046324729919433594
-0.060639601200819016,-0.6002182960510254,1.34071683883667,0.20495247840881348,0.19740158319473267,0.0020793676376342773
-0.28537994623184204,-0.40953072905540466,1.5377141237258911,0.2494196891784668,0.2126840353012085,0.03871840983629227
-0.6873717308044434,0.14978928864002228,1.7643566131591797,0.29600510001182556,0.24198317527770996,0.07337962090969086
-1.0576751232147217,0.705497682094574,1.8875964879989624,0.3009611964225769,0.27436280250549316,0.08696095645427704
-1.2801995277404785,0.7795979380607605,1.9822465181350708,0.27576708793640137,0.2895590662956238,0.09610319137573242
-1.2748183012008667,0.29908573627471924,2.1992008686065674,0.30820029973983765,0.30751705169677734,0.08818617463111877
-0.9560547471046448,-0.5460628867149353,2.4133460521698,0.3241612911224365,0.3253017067909241,0.030846625566482544
-0.5184239149093628,-1.178244709968567,2.5138001441955566,0.25175559520721436,0.28832143545150757,-0.07305505871772766
-0.400066077709198,-0.9795504212379456,2.5958216190338135,0.19825172424316406,0.2831224203109741,-0.09558165073394775
-0.8238526582717896,-0.1921594738960266,2.795527219772339,0.17460757493972778,0.2737138867378235,-0.019200235605239868
-1.467864990234375,0.567818820476532,3.1125857830047607,0.18685489892959595,0.2811024785041809,0.08719904720783234
-1.6593395471572876,0.48170945048332214,3.278042793273926,0.14617520570755005,0.27522069215774536,0.09466749429702759
-1.0231080055236816,-0.7556073665618896,3.2153444290161133,0.07690173387527466,0.22690558433532715,-0.005757719278335571
0.26128950715065,-2.0786709785461426,2.868652582168579,0.004929959774017334,0.163117915391922,-0.19025304913520813
1.0802549123764038,-2.4722533226013184,2.5275988578796387,-0.11242622137069702,0.14531880617141724,-0.2502009868621826
1.0631428956985474,-2.0680205821990967,2.5033504962921143,-0.06586611270904541,0.12780505418777466,-0.11655765771865845
0.709008514881134,-1.1924151182174683,2.5507652759552,0.05283409357070923,0.12324219942092896,-0.003989137709140778
0.6222673654556274,-0.6682522892951965,2.463867664337158,0.05408698320388794,0.1685972511768341,0.04852139949798584
0.8815062642097473,-0.8296789526939392,2.4470157623291016,0.05003446340560913,0.1718301773071289,0.010951057076454163
1.1323281526565552,-1.0448408126831055,2.5517921447753906,0.0872918963432312,0.20974694192409515,0.008734945207834244
1.1611956357955933,-0.8874080181121826,2.668224573135376,0.0676308274269104,0.23764841258525848,0.048926230520009995
0.9746680855751038,-0.4698176681995392,2.7870633602142334,0.0676499605178833,0.27053749561309814,0.08244311809539795
0.6892091631889343,0.018419310450553894,2.84735369682312,0.0641552209854126,0.2834793031215668,0.1146891713142395
0.4658813178539276,0.37969550490379333,2.9121618270874023,0.07087653875350952,0.32277578115463257,0.10907000303268433
0.35839807987213135,0.5632435083389282,2.967514991760254,0.04577982425689697,0.3737959563732147,0.076962411403656
0.2581539750099182,0.6559330224990845,2.9994008541107178,-0.024736225605010986,0.43440869450569153,0.05410504341125488
0.08619983494281769,0.8365122675895691,3.2607696056365967,-0.09948360919952393,0.5213430523872375,0.04747581481933594
-0.19014841318130493,1.0576863288879395,3.8314387798309326,-0.12768054008483887,0.6725748777389526,0.035115838050842285
-0.49505865573883057,1.0994762182235718,4.4411797523498535,-0.25642120838165283,0.7151165008544922,0.031023375689983368
-0.7500561475753784,0.8982713222503662,4.817448616027832,-0.499306321144104,0.6989799737930298,0.02653585374355316
-0.8490331768989563,0.5151920318603516,4.690932273864746,-0.8252838850021362,0.5364733934402466,-0.0006941556930541992
-0.7648508548736572,0.11500713229179382,4.1455254554748535,-1.1197583675384521,0.30801504850387573,-0.07053185999393463
-0.5792070031166077,-0.2150261402130127,3.27811598777771,-1.2753013372421265,0.037322282791137695,-0.1360413283109665
-0.3986443877220154,-0.24925468862056732,2.0316667556762695,-1.3296973705291748,-0.1894192099571228,-0.17892611026763916
-0.2358635514974594,0.22985559701919556,0.5654284954071045,-1.2707479000091553,-0.3101951479911804,-0.2342134714126587
-0.011009374633431435,0.9195850491523743,-0.5215752124786377,-1.0312128067016602,-0.2718408703804016,-0.2924075126647949
0.32603949308395386,1.461498498916626,-0.9174443483352661,-0.6554822325706482,-0.1379137635231018,-0.30491042137145996
0.6575215458869934,1.666905403137207,-0.80396568775177,-0.29559916257858276,-0.07690131664276123,-0.2513279318809509
0.9270623326301575,1.4841876029968262,-0.5165780186653137,-0.08357548713684082,-0.06263548135757446,-0.152626633644104
1.0921266078948975,1.1333060264587402,-0.27590012550354004,-0.009595394134521484,-0.0676223635673523,-0.049297839403152466
1.1763824224472046,0.7637361288070679,-0.11081451922655106,0.006369233131408691,-0.05910748243331909,0.030979573726654053
1.2258033752441406,0.37884780764579773,0.04979841783642769,0.03392767906188965,-0.0702018141746521,0.08010053634643555
1.2420130968093872,-0.023123692721128464,0.2048497349023819,0.05864638090133667,-0.09155851602554321,0.11508065462112427
1.1932944059371948,-0.3748566508293152,0.41305726766586304,0.07784062623977661,-0.11792033910751343,0.14628061652183533
1.0434703826904297,-0.5917894840240479,0.7228260636329651,0.08421266078948975,-0.09937483072280884,0.17008176445960999
0.861805260181427,-0.7437419295310974,1.0673437118530273,0.04241544008255005,-0.08447480201721191,0.18357229232788086
0.737601637840271,-0.9156549572944641,1.2856166362762451,-0.054238319396972656,-0.07127809524536133,0.164618581533432
0.722018837928772,-1.1976360082626343,1.313460111618042,-0.20541387796401978,-0.13033372163772583,0.12892445921897888
0.7817671895027161,-1.4511380195617676,1.1542813777923584,-0.3541024923324585,-0.1785556674003601,0.07816457748413086
0.8424439430236816,-1.6410472393035889,0.8360429406166077,-0.47557324171066284,-0.24626880884170532,0.043507158756256104
0.831400990486145,-1.6449956893920898,0.4258544445037842,-0.5610008239746094,-0.2839092016220093,0.026904255151748657
0.7307543158531189,-1.3986834287643433,-0.07220267504453659,-0.6184864640235901,-0.2975326180458069,0.021055370569229126
0.5269052982330322,-0.9151489734649658,-0.6097565293312073,-0.6368830800056458,-0.28610867261886597,0.026434794068336487
0.22817805409431458,-0.3120761811733246,-1.1400790214538574,-0.6023706793785095,-0.24635231494903564,0.046579509973526
-0.099169060587883,0.25848329067230225,-1.5230382680892944,-0.5313447117805481,-0.1706751585006714,0.07865557074546814
-0.3471822738647461,0.5866513848304749,-1.708426594734192,-0.4377819895744324,-0.0771138072013855,0.09815144538879395
-0.45929718017578125,0.6281289458274841,-1.7982758283615112,-0.39485418796539307,-0.027677595615386963,0.08349090814590454
-0.46745219826698303,0.4733676016330719,-1.9606939554214478,-0.420021116733551,0.004440367221832275,0.060012102127075195
-0.4886623024940491,0.291644424200058,-2.203335762023926,-0.4552012085914612,0.02814096212387085,0.03856441378593445
-0.5702463984489441,0.20439976453781128,-2.4265315532684326,-0.46480393409729004,0.04548084735870361,0.012584507465362549
-0.6906004548072815,0.2656666934490204,-2.5593199729919434,-0.45104455947875977,0.09805682301521301,-0.019514024257659912
-0.7435349822044373,0.40051305294036865,-2.6509506702423096,-0.44294238090515137,0.15947797894477844,-0.06062471866607666
-0.7004262804985046,0.5441230535507202,-2.7473812103271484,-0.45063310861587524,0.18692579865455627,-0.114076167345047
-0.5873197913169861,0.6450608968734741,-2.8983418941497803,-0.45929044485092163,0.19798296689987183,-0.14417260885238647
-0.4236278533935547,0.7055840492248535,-3.070319652557373,-0.46092861890792847,0.2223280966281891,-0.15392950177192688
-0.26649895310401917,0.6888610124588013,-3.0241832733154297,-0.3879995346069336,0.26104897260665894,-0.1563996970653534
-0.09444186091423035,0.5937391519546509,-2.9042680263519287,-0.3137456178665161,0.28172820806503296,-0.15711480379104614
0.07366910576820374,0.5509353876113892,-2.906808376312256,-0.34498780965805054,0.27191704511642456,-0.17086419463157654
0.16832798719406128,0.6283710598945618,-2.9338297843933105,-0.3576541543006897,0.29247793555259705,-0.15878412127494812
0.2692147493362427,0.68099045753479,-3.0077686309814453,-0.3476744294166565,0.3018178641796112,-0.14196929335594177
0.4211204946041107,0.742222249507904,-3.071300745010376,-0.31152546405792236,0.30851489305496216,-0.14566880464553833
0.5233142971992493,0.8456629514694214,-3.026185989379883,-0.2522073984146118,0.348738431930542,-0.13623487949371338
0.5297651886940002,0.9511488080024719,-2.960407018661499,-0.22929418087005615,0.363553524017334,-0.10021483898162842
0.7067014575004578,0.7538416385650635,-2.976398229598999,-0.20559287071228027,0.3823226988315582,-0.07349678874015808
1.0957019329071045,0.38194069266319275,-3.1002590656280518,-0.20783120393753052,0.3722551465034485,-0.12883907556533813
1.277908205986023,0.08296454697847366,-3.241917133331299,-0.25500327348709106,0.39354294538497925,-0.12586691975593567
1.1602277755737305,0.1088176816701889,-3.2055540084838867,-0.24450337886810303,0.42288702726364136,-0.0625026524066925
1.0715078115463257,0.29939475655555725,-3.07576060295105,-0.19207406044006348,0.4376903176307678,-0.057521939277648926
1.1231135129928589,0.22582656145095825,-2.6919000148773193,-0.12631547451019287,0.4933413863182068,-0.08896774053573608
1.3809356689453125,0.17529703676700592,-2.458719491958618,-0.11926871538162231,0.4777761697769165,-0.15426862239837646
1.6264857053756714,0.49384811520576477,-2.559833288192749,-0.20471829175949097,0.451842725276947,-0.1756666600704193
1.5593466758728027,1.0572409629821777,-2.811007022857666,-0.2832472324371338,0.4375450015068054,-0.10118824243545532
1.317482829093933,1.5060343742370605,-2.8966076374053955,-0.21786630153656006,0.4729585647583008,0.03429800271987915
1.3502682447433472,1.433240294456482,-2.8514764308929443,-0.07693332433700562,0.5236330032348633,0.08476373553276062
1.7440884113311768,0.8165518045425415,-2.704169273376465,0.04201936721801758,0.5625451803207397,0.025479793548583984
2.1683506965637207,0.04447820037603378,-2.4650228023529053,0.1552334427833557,0.5701308250427246,-0.022730708122253418
2.2880561351776123,-0.4318165183067322,-2.1788105964660645,0.21519839763641357,0.5777767300605774,0.011599957942962646
2.142155408859253,-0.5094941854476929,-1.9000813961029053,0.23450881242752075,0.5562775731086731,0.057001590728759766
1.8696677684783936,-0.33156365156173706,-1.626746416091919,0.2427789270877838,0.5450092554092407,0.08171224594116211
1.5871108770370483,-0.17643509805202484,-1.342795968055725,0.22985443472862244,0.5291904211044312,0.0941954255104065
1.347468376159668,-0.1480294018983841,-1.0821101665496826,0.2078447937965393,0.5011845231056213,0.09539736062288284
1.155780553817749,-0.1924522966146469,-0.8754198551177979,0.1867077350616455,0.4692303538322449,0.08981472998857498
1.0388574600219727,-0.21839700639247894,-0.673337996006012,0.16870194673538208,0.467771053314209,0.0791701078414917
0.9545868039131165,-0.19798868894577026,-0.45888298749923706,0.18185925483703613,0.4592238664627075,0.06919336318969727
0.8113127946853638,-0.03359006345272064,-0.30473822355270386,0.20385140180587769,0.41603851318359375,0.0746033787727356
0.6254428625106812,0.19635353982448578,-0.19463840126991272,0.2430928647518158,0.3516726493835449,0.08911174535751343
0.3958575129508972,0.3828035891056061,0.04080807417631149,0.3156912624835968,0.29354560375213623,0.11278223991394043
0.2128468155860901,0.350644052028656,0.27422457933425903,0.38435065746307373,0.15911400318145752,0.10564422607421875
0.1318957805633545,0.031654518097639084,0.4852585792541504,0.365931898355484,0.02911198139190674,0.08121395111083984
0.2070339322090149,-0.4940967857837677,0.6041612029075623,0.28918886184692383,0.0013595819473266602,0.038924455642700195
0.42479124665260315,-1.0047268867492676,0.4472254514694214,0.15260744094848633,-0.06587892770767212,-0.02814519591629505
0.5708703398704529,-1.1371150016784668,0.18908162415027618,0.024468988180160522,-0.06932103633880615,-0.07137048244476318
0.5502912998199463,-0.7660775780677795,-0.1349642127752304,-0.030894339084625244,-0.0446702241897583,-0.07640326023101807
0.3756183981895447,-0.2847358286380768,-0.27869346737861633,0.004248380661010742,0.018386363983154297,-0.035092227160930634
0.12015724927186966,0.08558763563632965,-0.21560439467430115,0.10925763845443726,0.07189452648162842,0.028847217559814453
-0.13220761716365814,0.25526162981987,-0.018672414124011993,0.18926063179969788,0.11442375183105469,0.07024013996124268
-0.2821251153945923,0.2013508528470993,0.14745110273361206,0.2244132161140442,0.13826513290405273,0.09233926981687546
-0.2556329071521759,0.012688439339399338,0.2551315724849701,0.2315019965171814,0.15890294313430786,0.07663894444704056
-0.1917305737733841,-0.10293088853359222,0.31558120250701904,0.2156030833721161,0.16945165395736694,0.04855143651366234
-0.34116917848587036,0.028351876884698868,0.41411128640174866,0.20854711532592773,0.19802111387252808,0.07743966579437256
-0.7060989141464233,0.3315434455871582,0.5919473171234131,0.20530349016189575,0.21472197771072388,0.13717365264892578
-1.0921188592910767,0.3605272173881531,0.8626817464828491,0.25092437863349915,0.22131580114364624,0.17327237129211426
-1.090139389038086,-0.03252929821610451,1.0430222749710083,0.23730242252349854,0.2149951457977295,0.1259307861328125
-0.6117683053016663,-0.5949391722679138,1.069981575012207,0.2044321596622467,0.22614389657974243,-0.017429234459996223
0.04061324521899223,-1.0546503067016602,0.9939011931419373,0.19033947587013245,0.22494018077850342,-0.12221425771713257
0.362078994512558,-0.9652409553527832,1.0449942350387573,0.2653281092643738,0.24022340774536133,-0.12136554718017578
0.29475137591362,-0.4632021188735962,1.0806604623794556,0.333475261926651,0.27075380086898804,-0.0188143253326416
0.11243527382612228,-0.21527062356472015,1.218253254890442,0.3875141739845276,0.29183465242385864,0.07732462882995605
0.014878517016768456,-0.43657752871513367,1.6172481775283813,0.45754560828208923,0.3094993233680725,0.10811007022857666
0.002951123286038637,-0.870101809501648,2.0733745098114014,0.4491000771522522,0.29895418882369995,0.08123147487640381
-0.1634499579668045,-0.8425991535186768,2.3058223724365234,0.3081439733505249,0.24535024166107178,0.04596387967467308
-0.736190676689148,-0.04414049908518791,2.306549072265625,0.11951518058776855,0.18538999557495117,0.06802748888731003
-1.3687971830368042,0.843970775604248,2.143237352371216,0.008505940437316895,0.17278623580932617,0.1341618299484253
-1.367508888244629,0.8200581669807434,2.0921828746795654,0.051460862159729004,0.19926410913467407,0.07790309190750122
-0.66513592004776,-0.18190596997737885,2.192612648010254,0.1556665301322937,0.2142886519432068,-0.06083912029862404
0.27054038643836975,-1.149838924407959,2.269779920578003,0.13769817352294922,0.21080607175827026,-0.2075861692428589
0.26162776350975037,-0.7520585656166077,2.50380277633667,0.025655388832092285,0.16228055953979492,-0.17598867416381836
-0.9409189224243164,0.8051327466964722,2.617344617843628,-0.012822210788726807,0.10694760084152222,0.13373017311096191
-2.141855478286743,1.838331699371338,2.6656017303466797,-0.04069101810455322,0.18133389949798584,0.3605366349220276
-2.0612905025482178,1.3264936208724976,2.510030746459961,-0.053253889083862305,0.18799692392349243,0.17298078536987305
-1.0313888788223267,-0.07208691537380219,2.392197847366333,-0.03666365146636963,0.12256720662117004,-0.11678199470043182
-0.1112641841173172,-0.6796430349349976,2.2804367542266846,-0.15102261304855347,0.1255582869052887,-0.2922704815864563
-0.17948254942893982,-0.1469007134437561,2.2806246280670166,-0.13894307613372803,0.11998879909515381,-0.12886416912078857
-0.9000450372695923,0.7998384833335876,2.3241465091705322,-0.06792378425598145,0.11603376269340515,0.10246191918849945
-1.212420105934143,0.8589469194412231,2.25459623336792,-0.043878138065338135,0.1673877239227295,0.19773328304290771
-0.7696355581283569,0.04092169180512428,2.1899003982543945,-0.05366194248199463,0.1791052222251892,0.021205246448516846
-0.031773440539836884,-0.8387592434883118,2.272188901901245,-0.0052956342697143555,0.25008895993232727,-0.12513011693954468
0.49870944023132324,-1.1981898546218872,2.422241449356079,0.008548438549041748,0.3153182864189148,-0.1559600681066513
0.6130037307739258,-1.0930118560791016,2.746063709259033,0.041543006896972656,0.3662444055080414,-0.09800006449222565
0.35145068168640137,-0.6927886009216309,3.1277780532836914,0.04606449604034424,0.38254955410957336,-0.028396010398864746
-0.15021029114723206,-0.13236761093139648,3.3651340007781982,-0.057962656021118164,0.3823159337043762,0.039340607821941376
-0.7212346792221069,0.3046705424785614,3.485834836959839,-0.20189231634140015,0.33609336614608765,0.06331741809844971
-1.301396131515503,0.48313555121421814,3.609149217605591,-0.3236452341079712,0.3154904246330261,0.06857429444789886
-1.7602370977401733,0.4852655827999115,3.675441026687622,-0.5082727074623108,0.31709420680999756,0.038522541522979736
-2.080578565597534,0.3313010036945343,3.6392533779144287,-0.6795681118965149,0.23049533367156982,-0.040336720645427704
-2.196857452392578,0.12668143212795258,3.4564952850341797,-0.8141390681266785,0.056467294692993164,-0.14593034982681274
-2.09470534324646,-0.012886255979537964,3.0110979080200195,-0.8922293782234192,-0.17178916931152344,-0.24844253063201904
-1.8253076076507568,0.1850699484348297,2.1170389652252197,-0.9948621392250061,-0.3302910327911377,-0.34019923210144043
-1.585869550704956,0.8293860554695129,1.0230810642242432,-0.9835379123687744,-0.38544780015945435,-0.37420666217803955
-1.4490965604782104,1.6202656030654907,0.1592865288257599,-0.7724152207374573,-0.3340439200401306,-0.33570635318756104
-1.261857271194458,2.175811290740967,-0.2603346109390259,-0.5172388553619385,-0.2352224588394165,-0.2845662832260132
-0.9922295212745667,2.2580678462982178,-0.25065216422080994,-0.25966590642929077,-0.10213255882263184,-0.22040633857250214
-0.7181243300437927,1.8808075189590454,-0.08271395415067673,-0.09999734163284302,-0.0470159649848938,-0.12802158296108246
-0.461275577545166,1.2465492486953735,0.12359144538640976,-0.030217349529266357,-0.020664334297180176,-0.053135618567466736
-0.21486741304397583,0.5185633301734924,0.30932772159576416,0.0027688145637512207,-0.04235464334487915,-0.015617534518241882
-0.01645127683877945,-0.15516479313373566,0.5172518491744995,0.03280419111251831,-0.0858336091041565,-0.00872240960597992
0.07785817980766296,-0.5247393846511841,0.6912686824798584,0.028456032276153564,-0.13805657625198364,-0.02231656014919281
0.10391610860824585,-0.6212102174758911,0.6905938386917114,-0.05360895395278931,-0.20235973596572876,-0.046507224440574646
