rotation_x,rotation_y,rotation_z,acceleration_x,acceleration_y,acceleration_z
-0.2028634399175644,-0.36822304129600525,-0.1215379387140274,0.0033756354823708534,0.03540337085723877,0.08062505722045898
-0.1083606630563736,-0.3633125424385071,-0.11221190541982651,0.019567959010601044,0.046048760414123535,-0.00410953164100647
-0.05563177913427353,-0.27688777446746826,-0.09304104000329971,0.024811215698719025,0.03098142147064209,-0.004522085189819336
-0.04816592484712601,-0.17967551946640015,-0.06839501112699509,0.07291802763938904,0.006874680519104004,0.006780534982681274
-0.001488512847572565,-0.07883884757757187,-0.06668739020824432,0.05771595984697342,0.013127148151397705,-0.007521450519561768
0.02711399458348751,0.007754265330731869,-0.07118643820285797,0.02485380321741104,0.01536548137664795,-0.03278321027755737
0.036921609193086624,-0.06730183959007263,-0.03225294500589371,0.0406104177236557,0.028085947036743164,-0.04046168923377991
0.0009072073735296726,-0.07702800631523132,0.03782191500067711,0.04266589879989624,0.04883855581283569,-0.020065367221832275
-0.03640616685152054,-0.05116992071270943,0.12405020743608475,0.03476961702108383,0.06851840019226074,0.041659802198410034
0.010952748358249664,0.048030514270067215,0.06176792085170746,0.014341965317726135,0.08627545833587646,-0.005854487419128418
0.004839395638555288,0.03844941034913063,0.023003924638032913,-0.01791076362133026,0.08126240968704224,0.059719741344451904
-0.06780731678009033,0.06622419506311417,0.01759267970919609,0.010092943906784058,0.07871991395950317,0.06600987911224365
-0.20980218052864075,-0.011068599298596382,0.08093288540840149,-0.02435026317834854,0.11503219604492188,0.15606847405433655
-0.18833406269550323,0.02191455289721489,0.11957130581140518,0.03824236989021301,0.1514630913734436,0.10220170021057129
0.0371648333966732,0.06484945863485336,0.09405013918876648,0.0005737775936722755,0.20596420764923096,0.0036453306674957275
0.24009300768375397,0.08915705233812332,-0.06469385325908661,-0.04267997294664383,0.24559015035629272,-0.03508630394935608
0.21642372012138367,-0.021248027682304382,-0.17286044359207153,-0.07094664871692657,0.22431135177612305,-0.0005853176116943359
0.19002433121204376,-0.05373675748705864,-0.13335266709327698,0.016845040023326874,0.21593815088272095,0.1105080246925354
0.2543732225894928,0.03948059678077698,-0.07841575890779495,0.01559004932641983,0.2592964768409729,0.0587482750415802
0.3098042607307434,0.10979092121124268,-0.06626870483160019,0.00809159129858017,0.28222280740737915,0.12732964754104614
0.41904181241989136,0.20327618718147278,-0.12469164282083511,-0.04454439878463745,0.2695574164390564,0.03216630220413208
0.3772461712360382,-0.0017851442098617554,-0.08936230838298798,0.011774100363254547,0.26635468006134033,0.07178688049316406
0.35348212718963623,0.005846576299518347,-0.07953914254903793,0.028837695717811584,0.2650410532951355,0.05797356367111206
0.2829846441745758,-0.027711786329746246,-0.0051827700808644295,0.06247492879629135,0.21957284212112427,0.11341774463653564
0.2431822568178177,0.05200371518731117,-0.034607939422130585,-0.03823607414960861,0.2151290774345398,0.17044836282730103
0.24043768644332886,0.10998807102441788,-0.09707684069871902,-0.07171241194009781,0.21257233619689941,0.12831145524978638
0.21470822393894196,0.03954099118709564,-0.06625151634216309,-0.024455390870571136,0.20157909393310547,0.10131058096885681
0.2452731430530548,0.06093711405992508,-0.02231837995350361,-0.020985499024391174,0.16973519325256348,0.027493059635162354
0.2481764405965805,-0.024118943139910698,0.01929481513798237,-0.004776001907885075,0.1325703263282776,-0.023692578077316284
0.34515315294265747,-0.11017252504825592,-0.031745512038469315,-0.01026055309921503,0.14474713802337646,-0.05614331364631653
0.5218811631202698,0.03746899217367172,-0.0892917811870575,-0.05156724154949188,0.1652679443359375,-0.10477760434150696
0.5830315351486206,0.07637635618448257,-0.09582491964101791,-0.07548534870147705,0.1498948335647583,-0.0671248733997345
0.5887858867645264,-0.010989319533109665,0.006127589847892523,0.005032426677644253,0.09073728322982788,-0.0680520236492157
0.5630442500114441,-0.1603817194700241,0.12085804343223572,0.08235695958137512,0.09015679359436035,-0.07832926511764526
0.4773719012737274,-0.3121097683906555,0.08926258236169815,0.04051569104194641,0.11631602048873901,-0.008064985275268555
0.5172255039215088,-0.21349753439426422,0.014485416933894157,-0.053632184863090515,0.09715402126312256,-0.06754371523857117
0.5661396384239197,-0.09543070197105408,-0.005685992538928986,-0.027042381465435028,0.037042081356048584,-0.10875943303108215
0.4882863759994507,-0.1715448498725891,0.029047371819615364,-0.01845734566450119,-0.016291499137878418,-0.0849786102771759
0.2881282567977905,-0.32052159309387207,0.07356242835521698,0.0035222694277763367,-0.05246645212173462,-0.011461257934570312
0.13718172907829285,-0.4450494945049286,0.07654682546854019,-0.010369494557380676,-0.1284933090209961,-0.025087565183639526
0.2847907841205597,-0.06016933172941208,-0.10467687249183655,-0.11576642096042633,-0.19680660963058472,-0.12299773097038269
0.2598111927509308,0.1539766788482666,-0.28148236870765686,-0.15983641147613525,-0.23193848133087158,-0.214311420917511
0.14481821656227112,-0.052606452256441116,-0.21718323230743408,-0.03323185443878174,-0.24113869667053223,-0.13293486833572388
0.041086990386247635,-0.1851070374250412,0.015606950968503952,0.1173897534608841,-0.2719699740409851,-0.13708412647247314
0.036964669823646545,-0.03912876546382904,0.003048495389521122,0.05620807409286499,-0.34052038192749023,-0.1466858983039856
0.09389594197273254,-0.027528058737516403,-0.11927440017461777,-0.03597864508628845,-0.3561798930168152,-0.20890460908412933
0.0641743615269661,-0.06215061619877815,-0.08254290372133255,-0.029675021767616272,-0.3585207462310791,-0.20827440917491913
0.012669984251260757,-0.06822486966848373,0.14710286259651184,0.06998655945062637,-0.38639384508132935,-0.18751108646392822
-0.07927026599645615,0.08078435808420181,0.24685047566890717,0.04038390517234802,-0.41718727350234985,-0.1375124156475067
-0.13622719049453735,0.07857467234134674,0.18447273969650269,-0.015840984880924225,-0.4010859727859497,-0.10619108378887177
-0.12593591213226318,0.11466912925243378,0.03139091655611992,-0.1135590597987175,-0.3579115867614746,-0.12034863233566284
-0.09172070026397705,0.1884121149778366,0.008178158663213253,-0.042681850492954254,-0.3885986804962158,-0.157305508852005
-0.19354546070098877,0.11946181952953339,0.10187064111232758,0.056511588394641876,-0.4601282477378845,-0.12184774875640869
-0.3495377004146576,-0.0027486756443977356,0.16563190519809723,0.06616372615098953,-0.47086089849472046,-0.07755902409553528
-0.45212531089782715,0.06217596307396889,0.04972826689481735,-0.02425030618906021,-0.4169561266899109,-0.07363858819007874
-0.49975115060806274,0.17984943091869354,-0.05781940370798111,-0.11050557345151901,-0.39768677949905396,-0.16482964158058167
-0.4564676582813263,0.3323110044002533,-0.09936905652284622,-0.07577108591794968,-0.41354691982269287,-0.23758044838905334
-0.4928656816482544,0.2148372083902359,-0.020268430933356285,-0.011209078133106232,-0.4058132767677307,-0.2907547652721405
-0.48465874791145325,0.07784819602966309,0.11355586349964142,0.060052692890167236,-0.36113059520721436,-0.27771738171577454
-0.34919601678848267,0.13197557628154755,0.06729628145694733,-0.03412772715091705,-0.29850584268569946,-0.33451399207115173
-0.25332513451576233,0.0483856163918972,-0.10278809815645218,-0.10205128788948059,-0.26164329051971436,-0.33857324719429016
-0.12810231745243073,0.04155758023262024,-0.2034005969762802,-0.06378794461488724,-0.24250578880310059,-0.2985287010669708
-0.15245045721530914,0.011127235367894173,-0.07891972362995148,0.01281978189945221,-0.1847156286239624,-0.21336209774017334
-0.2504626512527466,0.005765048786997795,0.20478342473506927,0.07520424574613571,-0.11271584033966064,-0.11471757292747498
-0.30577850341796875,0.01812264509499073,0.2513584494590759,0.040267519652843475,-0.03940623998641968,-0.09335002303123474
-0.2741698920726776,-0.06206393614411354,0.05874437838792801,-0.10716582089662552,-0.014158010482788086,-0.16909953951835632
-0.22922906279563904,-0.08947072178125381,-0.05088023841381073,-0.05736948549747467,-0.05372321605682373,-0.17637211084365845
-0.32661986351013184,-0.06634552776813507,0.07003886252641678,0.005569271743297577,-0.06368070840835571,-0.14828741550445557
-0.3697455823421478,-0.023032277822494507,0.19657059013843536,0.06321050226688385,-0.029473960399627686,-0.11963456869125366
-0.362997829914093,8.945493027567863e-05,0.18113496899604797,0.020963378250598907,-0.01361006498336792,-0.1242901086807251
-0.29564404487609863,0.08179932832717896,0.08907228708267212,-0.046593986451625824,0.011625528335571289,-0.13687530159950256
-0.2733379900455475,0.00014481507241725922,0.15198326110839844,-0.03660629689693451,0.05954122543334961,-0.13891476392745972
-0.4503936469554901,-0.0858287513256073,0.22578932344913483,-0.0013924231752753258,0.08197784423828125,-0.03780201077461243
-0.5568222999572754,-0.10237151384353638,0.1785040944814682,0.017424583435058594,0.08021700382232666,0.004205822944641113
-0.4716297686100006,-0.04240317642688751,0.0789593830704689,0.0055152252316474915,0.08479899168014526,-0.0364190936088562
-0.3960343599319458,-0.00971420668065548,0.06731710582971573,-8.171424269676208e-06,0.16212385892868042,-0.04557636380195618
-0.4436380863189697,0.04585744068026543,0.1641954481601715,0.050813183188438416,0.20884639024734497,0.03744238615036011
-0.49600833654403687,-0.05936777964234352,0.1916678249835968,0.07608398795127869,0.19110208749771118,0.09489351511001587
-0.47218644618988037,-0.1914384663105011,0.08477436006069183,0.027305740863084793,0.16463518142700195,0.09258630871772766
-0.43766751885414124,-0.1335206776857376,0.007842888124287128,-0.05129581317305565,0.16442745923995972,0.12304988503456116
-0.4082193076610565,-0.007032962050288916,0.06331374496221542,-0.046350255608558655,0.19050943851470947,0.11758953332901001
-0.4471774399280548,0.05549149215221405,0.11497239768505096,-0.01314232125878334,0.19266122579574585,0.1847902238368988
-0.471421480178833,-0.08123423159122467,0.18138381838798523,0.06497517973184586,0.16819614171981812,0.21101117134094238
-0.3156513273715973,-0.09280867129564285,0.11640825122594833,0.026797521859407425,0.1830769181251526,0.09295299649238586
-0.048134736716747284,-0.008511858060956001,0.023582225665450096,-0.03640524670481682,0.20586061477661133,-0.018487542867660522
0.11668554693460464,-7.57039524614811e-05,-0.012047825381159782,-0.026734624058008194,0.23731374740600586,-0.01883259415626526
0.2530752718448639,0.02450128272175789,-0.01993386074900627,0.00852237269282341,0.2585639953613281,0.015544772148132324
0.31719815731048584,-0.03214523568749428,0.053454384207725525,0.0630621537566185,0.24148428440093994,0.05720454454421997
0.4347001910209656,0.017844177782535553,0.05223620682954788,0.016725677996873856,0.23793762922286987,0.11080405116081238
0.5206010937690735,0.07936816662549973,-0.00031323672737926245,-0.024902574717998505,0.23478221893310547,0.10593080520629883
0.5461231470108032,0.008645391091704369,-0.07391300052404404,-0.008959755301475525,0.20847320556640625,0.14890527725219727
0.4843275249004364,0.02469080314040184,-0.09966246038675308,-0.008167587220668793,0.17712444067001343,0.1889021396636963
0.31916823983192444,0.052679818123579025,0.03467636927962303,0.040185146033763885,0.13223159313201904,0.22174525260925293
0.15864375233650208,0.13871583342552185,0.15143075585365295,0.05396300554275513,0.10401743650436401,0.22043251991271973
0.15012964606285095,0.17488256096839905,0.11028023064136505,0.03171843662858009,0.07036936283111572,0.11401495337486267
0.1082751452922821,0.07272720336914062,-0.010067539289593697,-0.008714672178030014,0.04140669107437134,0.053424328565597534
0.08330412954092026,0.005402028560638428,-0.03046925738453865,-0.03818218782544136,0.024183154106140137,0.017083197832107544
0.07879675179719925,0.06705732643604279,0.07236536592245102,-0.02465009316802025,0.031933724880218506,0.014833897352218628
0.10305562615394592,0.07520042359828949,0.12929366528987885,-0.03943607583642006,0.024362146854400635,-0.009832799434661865
0.07936273515224457,0.03466613218188286,0.05038175359368324,-0.06610842794179916,0.009954988956451416,0.01914799213409424
0.0696115717291832,0.009071758016943932,-0.06804214417934418,-0.10632720589637756,-0.0020923614501953125,0.05604362487792969
0.09164867550134659,0.0005897297523915768,-0.07863201200962067,-0.06238340958952904,0.011485815048217773,0.05191347002983093
0.04288221895694733,0.051607031375169754,-0.06668201833963394,-0.05815234035253525,0.02764451503753662,0.07591694593429565
-0.006025316659361124,0.03627592325210571,-0.08301939815282822,-0.0340447761118412,0.047745347023010254,0.10948744416236877
-0.0033293000888079405,-0.0013757161796092987,-0.11454791575670242,-0.014943212270736694,0.06979495286941528,0.09669661521911621
-0.013459540903568268,0.012528281658887863,-0.176499605178833,-0.021010488271713257,0.1095731258392334,0.1138346791267395
-0.013929242268204689,0.12486756592988968,-0.11838613450527191,0.007202353328466415,0.1371416449546814,0.12807005643844604
0.023028744384646416,0.18899819254875183,-0.09644532203674316,0.031339745968580246,0.17443525791168213,0.08783850073814392
0.057992637157440186,0.14179398119449615,-0.060069549828767776,0.05260385572910309,0.210227370262146,0.05102348327636719
0.16015362739562988,0.060085512697696686,-0.09189160913228989,0.038973402231931686,0.23721712827682495,0.05262640118598938
0.2803465723991394,-0.018991732969880104,-0.11495701223611832,-0.016562290489673615,0.2517983913421631,0.06399059295654297
0.3000829815864563,0.007416341919451952,-0.08634836971759796,-0.032542884349823,0.24764478206634521,0.12066197395324707
0.34950128197669983,0.05080319568514824,-0.051570963114500046,0.0005455687642097473,0.271850049495697,0.10771572589874268
0.2695876657962799,-0.07309897243976593,-0.10907796770334244,-0.0061836764216423035,0.26518797874450684,0.1303471326828003
0.16098925471305847,-0.10841133445501328,-0.18093262612819672,-0.001996837556362152,0.23420143127441406,0.15765029191970825
0.14441241323947906,-0.012008124962449074,-0.16012315452098846,-0.004732184112071991,0.2508467435836792,0.12060678005218506
0.3454000651836395,0.1341114342212677,-0.13655778765678406,-0.03176208585500717,0.2519017457962036,-0.0022996068000793457
0.37432292103767395,0.07148247957229614,-0.16378384828567505,-0.026774005964398384,0.22626811265945435,0.05690208077430725
0.24300488829612732,0.0008129356428980827,-0.18805444240570068,-0.0649469643831253,0.2173364758491516,0.12793037295341492
0.14959168434143066,-0.04422232136130333,-0.15829536318778992,7.559405639767647e-05,0.23530972003936768,0.08270153403282166
0.30710747838020325,0.023631997406482697,-0.0906037911772728,0.06976048648357391,0.22625714540481567,-0.005643993616104126
0.5591719746589661,0.00933348760008812,-0.03419351577758789,0.07025129348039627,0.22571426630020142,-0.17073971033096313
0.4962886571884155,0.014153342694044113,-0.03466204181313515,0.056701913475990295,0.209405779838562,-0.0038480758666992188
0.39894774556159973,-0.08007577061653137,-0.02100808545947075,0.08428303897380829,0.17186838388442993,0.01152762770652771
0.3478162884712219,-0.03301110863685608,-0.0008187047205865383,0.035280704498291016,0.13907897472381592,-0.042225658893585205
0.21987608075141907,0.07649591565132141,0.08912398666143417,0.035179562866687775,0.09888827800750732,-0.013036668300628662
0.21406593918800354,-0.12456022948026657,0.09351931512355804,-0.00897698849439621,0.09108114242553711,-0.04758185148239136
0.36338281631469727,-0.2857345640659332,0.006526616867631674,0.001467376947402954,0.05165773630142212,-0.18797063827514648
0.41816776990890503,-0.130853533744812,-0.1702040731906891,-0.10923659056425095,-0.00021219253540039062,-0.1605987548828125
0.3746054172515869,-0.10764815658330917,-0.1336544156074524,-0.056524649262428284,-0.03287297487258911,-0.14379611611366272
0.3266000747680664,-0.07638957351446152,0.0027332480531185865,0.029115617275238037,-0.03031158447265625,-0.11028316617012024
0.263269305229187,-0.04920212924480438,0.06556195765733719,0.05504121631383896,-0.0687975287437439,-0.06359687447547913
0.22551068663597107,-0.010738158598542213,-0.0022364582400768995,-0.017564572393894196,-0.11524254083633423,-0.08297941088676453
0.13908953964710236,-0.029050126671791077,-0.005787931382656097,0.027473032474517822,-0.15967470407485962,-0.03283482789993286
0.11064688861370087,0.07687719166278839,0.06109677627682686,0.03763967752456665,-0.13355642557144165,-0.08287104964256287
0.20562560856342316,0.12289203703403473,0.17052201926708221,0.09217235445976257,-0.14799606800079346,-0.2408391833305359
0.11166165769100189,-0.1466289907693863,0.15732835233211517,0.03125065565109253,-0.19945037364959717,-0.21391668915748596
0.08034074306488037,-0.37748557329177856,0.06660877168178558,-0.014457235112786293,-0.2762155532836914,-0.1746825873851776
0.03908330202102661,-0.29902857542037964,-0.02954605221748352,-0.10638412088155746,-0.2734142541885376,-0.17352941632270813
0.16965767741203308,-0.06645438820123672,-0.009097003377974033,-0.10920507460832596,-0.25278013944625854,-0.2016114592552185
0.10918248444795609,0.0025547738187015057,0.012434573844075203,-0.08773113042116165,-0.28694361448287964,-0.15111124515533447
-0.12080196291208267,0.026552386581897736,0.02129148319363594,-0.013706592842936516,-0.37985992431640625,-0.08431920409202576
-0.16608162224292755,-0.12270128726959229,-0.019977768883109093,0.0056782495230436325,-0.4415897727012634,-0.0964529812335968
-0.21575318276882172,-0.14317210018634796,-0.005371490493416786,0.06997240334749222,-0.46858108043670654,-0.1594008207321167
-0.4137575626373291,-0.0681799054145813,0.02106613479554653,0.044860005378723145,-0.5019710659980774,-0.19549626111984253
-0.5791400074958801,0.03509114682674408,0.1144123375415802,0.05078848823904991,-0.5818343758583069,-0.2596837878227234
-0.579043447971344,0.039169080555438995,0.13338758051395416,-0.0025159697979688644,-0.5960667729377747,-0.44836559891700745
-0.5803345441818237,0.029542461037635803,0.03346201032400131,-0.06017351895570755,-0.5645989775657654,-0.4821511507034302
-0.394562304019928,0.02763950824737549,-0.11722572892904282,-0.13895894587039948,-0.5330124497413635,-0.4822368323802948
-0.126717671751976,0.0044160569086670876,-0.13290078938007355,-0.07301155477762222,-0.5647426843643188,-0.497274249792099
0.048317551612854004,-0.045370738953351974,0.053774140775203705,0.03497637063264847,-0.5579458475112915,-0.4167513847351074
0.07387707382440567,-0.07541479170322418,0.12979605793952942,0.07744178920984268,-0.46545296907424927,-0.24389761686325073
0.07295289635658264,-0.05180349946022034,-0.07229965925216675,-0.03390903025865555,-0.3557705879211426,-0.18981745839118958
0.12283473461866379,-0.26172494888305664,-0.25960269570350647,-0.06964004039764404,-0.1959342360496521,-0.22226038575172424
0.06267451494932175,-0.3733579218387604,-0.1010548323392868,0.027456074953079224,-0.07400625944137573,-0.21613240242004395
-0.05229835957288742,-0.3237716257572174,0.08700501173734665,0.037857912480831146,7.88569450378418e-05,-0.12517261505126953
-0.27684304118156433,-0.3812296688556671,0.22722838819026947,0.03582661598920822,-0.0006145238876342773,-0.008277535438537598
-0.32309263944625854,-0.25395485758781433,0.16623854637145996,-0.05426136031746864,0.037149667739868164,-0.03836819529533386
-0.3125515580177307,-0.2556193768978119,-0.0011695008724927902,-0.15912841260433197,0.04087686538696289,-0.07010191679000854
-0.28444385528564453,-0.2831294536590576,-0.009104769676923752,-0.10691333562135696,0.04728436470031738,-0.02195340394973755
-0.2812880575656891,-0.18550840020179749,0.062963105738163,-0.0032232627272605896,0.01747739315032959,-0.04159611463546753
-0.4222891330718994,-0.24950960278511047,0.2154475897550583,0.11535855382680893,-0.00357818603515625,0.010027825832366943
-0.4379409849643707,-0.1696685403585434,0.18477849662303925,0.050800587981939316,0.004989802837371826,-0.040601372718811035
-0.33818215131759644,-0.09615296125411987,0.12570375204086304,-0.0011918507516384125,0.046443164348602295,-0.07705488801002502
-0.1703336387872696,0.010714396834373474,0.029218368232250214,0.009064175188541412,0.07717013359069824,-0.12243199348449707
-0.16806131601333618,0.024670233950018883,0.13175468146800995,0.12081775814294815,0.08457207679748535,-0.10204121470451355
-0.2873912751674652,0.02982361987233162,0.2909529507160187,0.15621349215507507,0.11133909225463867,0.0435924232006073
-0.388713538646698,0.1538051813840866,0.2799932062625885,0.06370055675506592,0.13061636686325073,0.08631691336631775
-0.5449946522712708,0.20095500349998474,0.10013646632432938,-0.030113577842712402,0.13823825120925903,0.13827645778656006
-0.4398044943809509,0.059662364423274994,0.013981855474412441,0.021471641957759857,0.1464766263961792,0.009709179401397705
-0.39566996693611145,0.0456598661839962,0.07242769747972488,0.075738325715065,0.163119375705719,0.02541208267211914
-0.40586167573928833,0.18059155344963074,0.14772966504096985,0.003915376961231232,0.18134576082229614,0.07245683670043945
-0.4137784540653229,0.28537794947624207,0.1812683343887329,-0.02723829448223114,0.15818631649017334,0.0856885313987732
-0.298860639333725,0.23419588804244995,0.08861633390188217,-0.07701483368873596,0.19750171899795532,0.009669840335845947
-0.14079637825489044,0.1484232246875763,-0.10013442486524582,-0.031376615166664124,0.1974848508834839,-0.04823613166809082
-0.07468459755182266,0.07194945961236954,-0.10014749318361282,0.09321635216474533,0.2086702585220337,0.026418685913085938
-0.07222488522529602,0.05365590751171112,-0.014153169468045235,0.09554323554039001,0.2502472400665283,0.10535535216331482
-0.13360942900180817,0.1714901626110077,0.059127502143383026,0.0023141466081142426,0.26366472244262695,0.17950552701950073
-0.03256063163280487,0.23283974826335907,0.09655285626649857,-0.03352164104580879,0.2685772180557251,0.14088821411132812
0.08361803740262985,0.1746544986963272,0.03775268420577049,-0.0386224240064621,0.29386401176452637,0.08259427547454834
0.1610475480556488,0.14096668362617493,-0.02494017221033573,-0.041386548429727554,0.2876914143562317,0.15108636021614075
0.23786474764347076,0.06689521670341492,-0.06259386241436005,-0.05868520960211754,0.27727001905441284,0.1634548306465149
0.32430219650268555,0.00846320390701294,-0.12647385895252228,-0.10561288893222809,0.25586050748825073,0.14705798029899597
0.41353854537010193,0.12185951322317123,-0.14818845689296722,-0.08773121237754822,0.21779155731201172,0.12488007545471191
0.4036332070827484,0.21237708628177643,-0.10101880878210068,-0.06786145269870758,0.2221062183380127,0.11896643042564392
0.2628430128097534,0.2319333255290985,-0.053099554032087326,-0.01769765466451645,0.15816277265548706,0.13783401250839233
0.2336728423833847,0.28179240226745605,-0.12088528275489807,-0.05314303934574127,0.05603992938995361,0.1047055721282959
0.1622602790594101,0.4169256389141083,-0.17377731204032898,-0.07524067908525467,-0.007990479469299316,0.045343637466430664
0.07994331419467926,0.3707104027271271,0.031234487891197205,0.05984145402908325,-0.05576193332672119,0.07696652412414551
-0.15659302473068237,0.35547661781311035,0.28687965869903564,0.11958491802215576,-0.05648607015609741,0.05992257595062256
-0.3564498722553253,0.20595449209213257,0.37439867854118347,0.0762711614370346,-0.07283002138137817,0.09677815437316895
-0.28381022810935974,0.03862419351935387,0.22293925285339355,-0.023891795426607132,-0.06740051507949829,-0.04839205741882324
0.06862610578536987,-0.04528828337788582,-0.03426698222756386,-0.12954460084438324,-0.05524975061416626,-0.23180484771728516
0.23522062599658966,-0.022867143154144287,-0.13662704825401306,-0.1767161786556244,-0.03656160831451416,-0.16007590293884277
0.2956058979034424,-0.00553464237600565,-0.08608629554510117,-0.05222601071000099,-0.0029034018516540527,-0.02103865146636963
0.27049314975738525,0.015860922634601593,-0.06322567164897919,0.005385022610425949,0.0009516477584838867,0.07206887006759644
0.2192840427160263,0.06967572867870331,-0.1480652540922165,0.05343644320964813,0.009322166442871094,0.12287247180938721
0.1570718139410019,0.129439577460289,-0.22610539197921753,0.06485481560230255,0.021645665168762207,0.149160236120224
0.003559867385774851,0.20085129141807556,-0.1399768739938736,0.12425253540277481,0.02728855609893799,0.18305522203445435
-0.03389003500342369,0.17243055999279022,0.1283469796180725,0.29812419414520264,0.022965073585510254,0.08413085341453552
-0.12842057645320892,0.2475672960281372,0.2421737164258957,0.25220954418182373,0.01607954502105713,0.05237013101577759
-0.15787149965763092,0.2605125308036804,0.16826660931110382,0.17703743278980255,0.004673004150390625,0.015313565731048584
-0.08881300687789917,0.1628434807062149,0.004174389876425266,0.05785461515188217,0.011078894138336182,-0.06056344509124756
-0.0028751776553690434,0.06900770962238312,-0.058070480823516846,0.050806306302547455,0.026558518409729004,-0.04148796200752258
0.05896509066224098,0.06116946041584015,-0.029504824429750443,0.05340062081813812,0.04492175579071045,-0.004447519779205322
-0.0032422044314444065,-0.026791628450155258,-0.005744943395256996,0.0576004758477211,0.05108720064163208,0.09712934494018555
-0.03807113319635391,-0.10742665827274323,-0.06673470139503479,0.036680907011032104,0.06414777040481567,0.13990375399589539
0.03236835077404976,-0.1263502985239029,-0.17167867720127106,-0.08545079082250595,0.07123613357543945,0.11215975880622864
-0.014739831909537315,-0.11568544805049896,-0.2159358710050583,-0.08856517821550369,0.07178038358688354,0.16102519631385803
-0.2070750594139099,-0.11270371079444885,-0.1411689817905426,-8.4741972386837e-05,0.050250887870788574,0.19201216101646423
-0.5367525219917297,-0.26530566811561584,-0.019300086423754692,0.06653296947479248,0.05827873945236206,0.30287420749664307
-0.3264719247817993,-0.2709038555622101,-0.03190217912197113,0.052093006670475006,0.08068567514419556,0.05103719234466553
-0.0015373467467725277,-0.29364660382270813,-0.19921013712882996,-0.09686359763145447,0.11156231164932251,-0.07210254669189453
0.250062495470047,-0.2398013472557068,-0.32446160912513733,-0.164019376039505,0.12185060977935791,-0.06195986270904541
0.13346418738365173,-0.09643067419528961,-0.24267025291919708,-0.09881432354450226,0.08718240261077881,0.17104974389076233
-0.0699605718255043,-0.08713677525520325,0.06765832006931305,0.06076173484325409,0.08252191543579102,0.2891051173210144
-0.11042623966932297,-0.03063834458589554,0.2511359751224518,0.06700347363948822,0.12107396125793457,0.18282753229141235
0.04327067360281944,-0.00349446851760149,0.12945665419101715,-0.07396083325147629,0.16371697187423706,0.05339697003364563
0.26293495297431946,-0.12949244678020477,-0.036431703716516495,-0.10284250974655151,0.22073650360107422,-0.04476660490036011
0.2353029102087021,-0.2070084512233734,-0.05920927971601486,-0.06074253469705582,0.24522781372070312,0.06990247964859009
0.26790785789489746,-0.18683254718780518,0.10466057807207108,0.030244508758187294,0.2630993723869324,0.14629241824150085
0.3301168382167816,-0.10597425699234009,0.28140825033187866,0.05016087740659714,0.2679445147514343,0.13046199083328247
0.46719256043434143,0.002707106526941061,0.2808050513267517,-0.04546307772397995,0.3118434548377991,0.06911718845367432
0.8091410994529724,-0.02323477901518345,0.05310707911849022,-0.13158726692199707,0.3364517092704773,-0.1071462631225586
0.9101400375366211,-0.22785703837871552,-0.05708414688706398,-0.08443255722522736,0.31563830375671387,-0.08227670192718506
0.817280113697052,-0.28178671002388,0.10353517532348633,0.01885329559445381,0.27546530961990356,0.04611876606941223
0.7271397113800049,-0.1797400712966919,0.31900912523269653,0.11037793010473251,0.2579229474067688,0.08641374111175537
0.753318190574646,0.011658892035484314,0.3224530816078186,0.022931840270757675,0.30692344903945923,0.01707896590232849
0.8605555295944214,0.035010550171136856,0.12843333184719086,-0.10779668390750885,0.3298727869987488,-0.07023665308952332
0.8983391523361206,-0.19185799360275269,-0.013820762746036053,-0.1507573127746582,0.24504858255386353,-0.09625312685966492
0.7477023005485535,-0.18654155731201172,0.08798875659704208,-0.02800299972295761,0.14234405755996704,-0.026624679565429688
0.658644437789917,-0.06177578493952751,0.250266969203949,0.04716618359088898,0.1091454029083252,-0.030399441719055176
0.635899543762207,0.03141701966524124,0.21637897193431854,-0.023414000868797302,0.07452791929244995,-0.13266438245773315
0.5748082995414734,-0.0357009619474411,0.07362505793571472,-0.12942998111248016,0.022017300128936768,-0.11050553619861603
0.4718354344367981,-0.35834044218063354,-0.01799662597477436,-0.11624649167060852,-0.0642855167388916,-0.09511169791221619
0.3537168502807617,-0.3963860869407654,0.07790271937847137,-0.03960553556680679,-0.13600671291351318,-0.08431857824325562
0.2740708887577057,-0.2078840583562851,0.18056894838809967,0.015189215540885925,-0.1812129020690918,-0.03461933135986328
0.2523799240589142,0.0029691646341234446,0.20239949226379395,-0.108205646276474,-0.19009613990783691,-0.1561015248298645
0.2494344264268875,-0.3496721386909485,0.06511230021715164,-0.1457943469285965,-0.24487042427062988,-0.23836654424667358
0.2911054193973541,-0.555892288684845,-0.07023654878139496,-0.09945451468229294,-0.2766777276992798,-0.28050166368484497
0.181315615773201,-0.451718270778656,-0.01117285992950201,0.010462120175361633,-0.30482345819473267,-0.19821256399154663
0.12307992577552795,-0.34419894218444824,0.004575375467538834,0.001502901315689087,-0.31529587507247925,-0.11146873235702515
0.17043785750865936,-0.034590981900691986,-0.10278724133968353,-0.1543443202972412,-0.3129952549934387,-0.22792017459869385
0.09516734629869461,0.0958407074213028,-0.2104300856590271,-0.09436435997486115,-0.35898202657699585,-0.15111756324768066
0.027301963418722153,0.025283390656113625,-0.20642274618148804,0.0399111732840538,-0.3740956783294678,-0.15761910378932953
-0.02924530953168869,0.024122953414916992,-0.08164822310209274,0.11702682822942734,-0.3979983925819397,-0.1412847489118576
0.027303285896778107,0.047525350004434586,0.004360800608992577,0.08099585771560669,-0.4403232932090759,-0.2601543664932251
0.1066659465432167,0.03046519309282303,-0.025221049785614014,-0.0008619725704193115,-0.4628560543060303,-0.30779922008514404
-0.041438374668359756,-0.024352239444851875,-0.12183205783367157,-0.05995761603116989,-0.44457876682281494,-0.1711627095937729
-0.3846445083618164,0.044816337525844574,-0.04927755519747734,-0.02142190933227539,-0.47672468423843384,0.019710779190063477
-0.6296595931053162,0.29341521859169006,0.05995386093854904,-0.0331418439745903,-0.5102135539054871,0.037466153502464294
-0.7214504480361938,0.2717445194721222,0.15117837488651276,-0.035764336585998535,-0.5302297472953796,-0.07320323586463928
-0.7576153874397278,0.13899601995944977,0.06665316969156265,-0.1127852350473404,-0.5010281801223755,-0.12245047092437744
-0.7818689942359924,0.15957728028297424,-0.06595955789089203,-0.17728331685066223,-0.45598214864730835,-0.20157551765441895
-0.742720365524292,0.19324582815170288,-0.13052992522716522,-0.10312294960021973,-0.4212150573730469,-0.3208546042442322
-0.5589829683303833,0.16176669299602509,-0.04714304581284523,-0.014083251357078552,-0.33814024925231934,-0.4257148504257202
-0.3771262466907501,0.18622373044490814,0.017881538718938828,0.010772928595542908,-0.263965904712677,-0.42889297008514404
-0.31454208493232727,0.18138495087623596,0.0027855054941028357,-0.07892826199531555,-0.18097048997879028,-0.35882052779197693
-0.4737994372844696,0.03440907970070839,-0.005188838578760624,-0.09227027744054794,-0.13053351640701294,-0.12064200639724731
-0.5304135084152222,0.03081028163433075,-0.05157197266817093,0.015201836824417114,-0.1652812957763672,-0.020237982273101807
-0.5120677947998047,0.07601592689752579,-0.032847292721271515,0.093001589179039,-0.11867141723632812,-0.027860909700393677
-0.4637598395347595,0.1381697654724121,0.04552452638745308,0.065493643283844,-0.028904259204864502,-0.10441461205482483
-0.6057960987091064,0.05107070133090019,0.1318150758743286,-0.02571685239672661,-0.009740233421325684,-0.07449689507484436
-0.5987833738327026,0.19541087746620178,0.13543178141117096,-0.03716202825307846,-0.08071041107177734,-0.1377304494380951
-0.5573213696479797,0.2485237568616867,0.23098516464233398,0.06143159419298172,-0.12044763565063477,-0.19089862704277039
-0.5039964914321899,0.22394755482673645,0.2938202917575836,0.1188172698020935,-0.12792903184890747,-0.147173672914505
-0.4495815634727478,0.2803420424461365,0.2194734513759613,-0.010729148983955383,-0.08155590295791626,-0.17508888244628906
-0.3778522312641144,0.2763153314590454,0.14647887647151947,0.03569833189249039,-0.06775540113449097,-0.1956617534160614
-0.32264775037765503,0.20960110425949097,0.09067622572183609,0.04976484924554825,-0.006615757942199707,-0.17574173212051392
-0.22541990876197815,0.11474751681089401,0.08939722180366516,0.08650481700897217,0.03434288501739502,-0.14901643991470337
-0.32842519879341125,0.11945685744285583,0.10988768190145493,0.039471156895160675,0.0976983904838562,-0.02101835608482361
-0.5494076609611511,0.22251327335834503,0.07568912208080292,-0.058875516057014465,0.14048415422439575,0.148960679769516
-0.6149145364761353,0.17992033064365387,0.012872649356722832,-0.06389926373958588,0.1741768717765808,0.09521889686584473
-0.6361693739891052,0.03895479068160057,-0.013231216929852962,-0.04663088172674179,0.20973563194274902,0.05691099166870117
-0.5226899981498718,0.02856350690126419,-0.01885572448372841,0.026996858417987823,0.23734605312347412,0.02548837661743164
-0.4363950788974762,0.13070549070835114,-0.026125755161046982,0.011800110340118408,0.25354069471359253,0.04969477653503418
-0.488323450088501,0.15877893567085266,-0.06072310358285904,-0.03516776114702225,0.27271050214767456,0.09136343002319336
-0.5720412135124207,0.10548378527164459,-0.11976172029972076,-0.04839813709259033,0.2515026926994324,0.1496381163597107
-0.48930856585502625,0.0601506233215332,-0.17818981409072876,-0.016804255545139313,0.20386171340942383,0.12884551286697388
-0.19911199808120728,0.010014954954385757,-0.3120162785053253,-0.0459299236536026,0.22241812944412231,0.022532224655151367
0.043500058352947235,-0.04276710003614426,-0.23538453876972198,0.04052167758345604,0.2218153476715088,0.0049079954624176025
0.09727281332015991,0.01067507453262806,-0.09082065522670746,0.024888038635253906,0.2452242374420166,0.05577510595321655
0.1694524586200714,-0.02862735278904438,-0.02279510907828808,-0.0005098283290863037,0.2326425313949585,0.06430220603942871
0.21401815116405487,-0.04370512813329697,-0.13921350240707397,-0.05865105241537094,0.2179977297782898,0.07546627521514893
0.4376721978187561,-0.10761793702840805,-0.34050223231315613,-0.091867595911026,0.1882653832435608,0.03126034140586853
0.6500707268714905,-0.2532278299331665,-0.32126668095588684,-0.006119363009929657,0.17727142572402954,0.01822054386138916
0.6517702341079712,-0.3581092059612274,-0.15988218784332275,0.03652558848261833,0.18156874179840088,0.07753530144691467
0.5191026926040649,-0.26746946573257446,-0.01724093034863472,0.034454576671123505,0.13720917701721191,0.17820769548416138
0.5010050535202026,-0.1677677482366562,0.0029792129062116146,-0.013464212417602539,0.10794049501419067,0.14943993091583252
0.4799796938896179,-0.06687050312757492,-0.05606333538889885,-0.040645208209753036,0.11751067638397217,0.110455721616745
0.34051239490509033,-0.09411004185676575,-0.06840663403272629,-0.05492384731769562,0.10796040296554565,0.20268458127975464
0.18247653543949127,-0.1255432516336441,-0.04517224431037903,-0.014135874807834625,0.09921848773956299,0.1951146125793457
0.12260522693395615,-0.0732647180557251,0.06044507026672363,-0.004499156028032303,0.07800066471099854,0.1635132133960724
0.0768892839550972,-0.044810712337493896,0.10422618687152863,-0.0008404403924942017,0.09026658535003662,0.12382441759109497
0.08983222395181656,-0.012134188786149025,0.0554012730717659,-0.05055008456110954,0.08736991882324219,0.09572166204452515
0.033234357833862305,0.046580955386161804,-0.004334013909101486,-0.06909890472888947,0.10072922706604004,0.1225975751876831
-0.07660318911075592,0.09105521440505981,0.023040618747472763,-0.0376146137714386,0.0962401032447815,0.20384961366653442
-0.1611361801624298,0.13625115156173706,0.07610457390546799,-0.02081415057182312,0.08587807416915894,0.22330701351165771
-0.2083621472120285,0.12439980357885361,0.0790884718298912,-0.01398390531539917,0.08924210071563721,0.18129712343215942
-0.1769973784685135,0.19998273253440857,0.013242639601230621,-0.04926794394850731,0.10375362634658813,0.15504014492034912
-0.18616938591003418,0.16912530362606049,0.007157459855079651,-0.009038694202899933,0.1081133484840393,0.1323413848876953
-0.091124527156353,0.22314205765724182,-0.006715636234730482,0.01718517392873764,0.13118094205856323,0.0889284610748291
-0.004577600862830877,0.23571757972240448,-0.008840651251375675,0.009847134351730347,0.15078520774841309,0.05508434772491455
0.008612079545855522,0.1696968525648117,0.005537395365536213,-0.011271577328443527,0.19750672578811646,0.09092551469802856
0.11185272783041,0.35333189368247986,-0.04091525822877884,-0.06194766238331795,0.24295777082443237,0.07611420750617981
0.2051248401403427,0.4095207452774048,-0.10542725771665573,-0.08000165969133377,0.2649441957473755,0.12064933776855469
0.417952299118042,0.393474280834198,-0.15136756002902985,-0.029045000672340393,0.2658189535140991,0.056725919246673584
0.3622906804084778,0.1470552682876587,-0.08328226953744888,0.03292220085859299,0.2595580220222473,0.12743258476257324
0.31430938839912415,0.08555298298597336,0.0312203262001276,0.015184909105300903,0.2603297233581543,0.21629703044891357
0.261814683675766,0.17790648341178894,0.12585698068141937,0.0856689065694809,0.2435179352760315,0.19446900486946106
0.4233497381210327,0.2944750189781189,0.04881846904754639,0.021680645644664764,0.23734188079833984,0.0721200704574585
0.37054169178009033,0.18980993330478668,-0.10318220406770706,-0.0978921502828598,0.20709967613220215,0.08659577369689941
0.37386754155158997,0.034690339118242264,-0.04396044462919235,-0.0813959538936615,0.15904349088668823,0.01859930157661438
0.44656336307525635,-0.05487887188792229,0.024044964462518692,-0.07462778687477112,0.16248655319213867,-0.03484269976615906
0.5591572523117065,0.03278142213821411,-0.029965059831738472,-0.11753225326538086,0.19267511367797852,-0.09933328628540039
0.5596355199813843,0.08179579675197601,-0.03618454560637474,-0.07548816502094269,0.21498942375183105,-0.03557196259498596
0.5645340085029602,-0.056780457496643066,0.0018282679375261068,-0.03896704316139221,0.22116124629974365,-0.06263431906700134
0.5857049226760864,-0.16968189179897308,0.05166803300380707,0.06260502338409424,0.17092210054397583,-0.11774551868438721
0.55035001039505,-0.24676166474819183,0.13090120255947113,0.095466248691082,0.14485770463943481,-0.06323319673538208
0.4713214933872223,-0.16145819425582886,0.13440194725990295,-0.03148201107978821,0.19844013452529907,0.032406628131866455
0.5597014427185059,0.08867175132036209,0.07328373938798904,-0.04348722845315933,0.15934425592422485,-0.10134884715080261
0.5463041663169861,0.10076706111431122,-0.01199907436966896,-0.008887656033039093,0.022582828998565674,-0.08769267797470093
0.5319939851760864,0.014056956395506859,-0.03208159655332565,0.06509987264871597,-0.04710590839385986,-0.07095861434936523
0.2371642291545868,-0.11946330964565277,0.14877626299858093,0.11454368382692337,-0.057702064514160156,0.05938942730426788
0.01567489095032215,-0.06957954913377762,0.23693536221981049,0.054165467619895935,-0.05627262592315674,0.04058802127838135
0.19394375383853912,0.03906683996319771,0.11995647847652435,-0.03705921396613121,-0.08902722597122192,-0.28810063004493713
0.2956123948097229,0.054231174290180206,-0.019819015637040138,-0.0704902857542038,-0.14773494005203247,-0.36696505546569824
0.2422797530889511,-0.12335417419672012,-0.03053460270166397,-0.01924065127968788,-0.1967429518699646,-0.22718815505504608
0.22637861967086792,-0.2320268750190735,0.08267828822135925,-0.001425318419933319,-0.24543315172195435,-0.22321702539920807
0.19814932346343994,-0.16973738372325897,0.10763951390981674,-0.07808523625135422,-0.24329698085784912,-0.20053869485855103
0.24624960124492645,-0.029400773346424103,-0.00864977203309536,-0.1668633222579956,-0.25104790925979614,-0.23205167055130005
0.22253194451332092,-0.035291705280542374,-0.09467131644487381,-0.11200938373804092,-0.33840489387512207,-0.18891990184783936
0.13463379442691803,-0.05862472578883171,-0.08947749435901642,-0.04955676570534706,-0.3874943256378174,-0.13534113764762878
0.03276435658335686,0.014921635389328003,-0.0022328593768179417,-0.00013506412506103516,-0.3918319344520569,-0.11321485042572021
-0.047128740698099136,0.2239195853471756,0.08281302452087402,0.019897326827049255,-0.4017537236213684,-0.10988855361938477
-0.03000771626830101,0.2872702181339264,0.025449782609939575,-0.02273596078157425,-0.4041703939437866,-0.17002081871032715
0.028562020510435104,0.13678230345249176,-0.1083882749080658,-0.049137987196445465,-0.42546045780181885,-0.25709640979766846
-0.06258931756019592,-0.08991535007953644,-0.0668320283293724,0.015942201018333435,-0.47765761613845825,-0.21634066104888916
-0.2394663393497467,-0.11434643715620041,0.04487380385398865,0.09105434268712997,-0.4707390069961548,-0.11431461572647095
-0.27622082829475403,0.011391447857022285,0.0055852895602583885,0.042439546436071396,-0.4530821442604065,-0.14749519526958466
-0.27047133445739746,0.13525192439556122,-0.2072271853685379,-0.06886987388134003,-0.4955223798751831,-0.1751563549041748
-0.22024911642074585,0.10691036283969879,-0.3465135097503662,-0.10461074858903885,-0.48512929677963257,-0.2605587840080261
-0.32846391201019287,0.041859328746795654,-0.24490022659301758,0.031148210167884827,-0.45934563875198364,-0.13818269968032837
-0.3304685354232788,0.10354328155517578,-0.10678767412900925,0.1005786657333374,-0.4466795325279236,-0.15139085054397583
-0.2533847391605377,0.14954586327075958,-0.1499537080526352,-0.002602681517601013,-0.41553813219070435,-0.23360192775726318
-0.13772395253181458,0.05582616850733757,-0.2609645128250122,-0.10104398429393768,-0.32260507345199585,-0.271898090839386
-0.11127197742462158,0.021898070350289345,-0.259463906288147,-0.07770417630672455,-0.23100239038467407,-0.22197577357292175
-0.11374562233686447,-0.03386120870709419,-0.13799884915351868,0.0361025333404541,-0.21046286821365356,-0.20128297805786133
-0.11416907608509064,-0.018830815330147743,-0.03927871584892273,0.07308834791183472,-0.19149458408355713,-0.16389301419258118
-0.12141485512256622,-0.12990626692771912,-0.030575476586818695,0.0009662660304456949,-0.13148027658462524,-0.13169637322425842
-0.04529251903295517,-0.1720726490020752,-0.0007357236463576555,-0.044945359230041504,-0.05006331205368042,-0.12906724214553833
-0.1188734695315361,-0.15790113806724548,0.052248526364564896,0.0026714056730270386,-0.03645747900009155,-0.04454338550567627
-0.12332989275455475,-0.13057412207126617,0.12411735206842422,0.043950408697128296,-0.04650229215621948,-0.06785619258880615
-0.1043119803071022,-0.03989485278725624,0.15036073327064514,0.06269897520542145,-0.033588707447052,-0.08853945136070251
-0.1743280589580536,-0.02541666105389595,0.10982062667608261,-0.006276801228523254,0.019655823707580566,-0.08040910959243774
-0.28227272629737854,-0.08850491791963577,0.11709194630384445,-0.033031463623046875,0.07880216836929321,-0.03724139928817749
-0.36619192361831665,-0.02427220344543457,0.10162732005119324,-0.02623049169778824,0.09642744064331055,-0.019223332405090332
-0.3708374500274658,0.014764288440346718,0.0425712987780571,-0.05218590795993805,0.06768465042114258,-0.04211843013763428
-0.35178056359291077,-0.04058946296572685,0.014012330211699009,-0.03586997836828232,0.0902167558670044,-0.04681175947189331
-0.3657454550266266,0.04058726876974106,0.045765623450279236,-0.022242054343223572,0.12930691242218018,-0.03599688410758972
-0.42229023575782776,0.1795305460691452,-0.02031439170241356,-0.030229881405830383,0.1915627121925354,-0.10475486516952515
-0.6000680923461914,-0.04927889630198479,-0.08376536518335342,0.03645668923854828,0.11363798379898071,-0.02601960301399231
-0.6334460973739624,-0.26568150520324707,-0.159652441740036,0.039843909442424774,0.1347779631614685,-0.039017707109451294
-0.6234790086746216,-0.14609847962856293,-0.19158042967319489,-0.0452246367931366,0.18652606010437012,-0.05725526809692383
-0.6971098184585571,-0.028696831315755844,-0.07456064224243164,-0.03346379101276398,0.221554696559906,-0.01852557063102722
-0.7470297813415527,-0.02784883603453636,0.041677091270685196,-0.017265670001506805,0.2611533999443054,0.015859156847000122
-0.7272078394889832,-0.03418342396616936,0.1226610541343689,0.0073110684752464294,0.2855682969093323,-0.021716535091400146
-0.7571727633476257,-0.22083555161952972,0.1918298453092575,0.04607987403869629,0.31410807371139526,0.005603134632110596
-0.9197047352790833,-0.1489323079586029,0.20224548876285553,0.03122125007212162,0.3220503330230713,0.11072614789009094
-1.083417534828186,-0.07530976831912994,0.27335432171821594,0.040778353810310364,0.28776246309280396,0.1718679964542389
-0.9943529367446899,-0.12447939813137054,0.2869797646999359,0.010005652904510498,0.3011009693145752,0.10963952541351318
-0.7547404766082764,-0.07572318613529205,0.2573823630809784,-0.09910166263580322,0.2903675436973572,-0.003688991069793701
-0.4856283664703369,0.08981785923242569,0.24009652435779572,-0.06361831724643707,0.248759925365448,-0.03625619411468506
-0.3552318811416626,0.03642221912741661,0.18717394769191742,-0.019243165850639343,0.23288732767105103,0.02022683620452881
-0.15271523594856262,-0.05377748981118202,0.1356823444366455,0.00942188873887062,0.21353191137313843,0.04868122935295105
0.08217699825763702,0.02181595005095005,0.1114746555685997,0.04374099522829056,0.18563193082809448,0.062016427516937256
0.2765694856643677,0.10979197919368744,0.18726858496665955,0.0648161992430687,0.1785944700241089,0.08682060241699219
0.4586063623428345,0.08048408478498459,0.13034091889858246,0.03465352579951286,0.1563413143157959,0.09265437722206116
0.4668430685997009,0.03372401371598244,-0.039219826459884644,-0.0017610341310501099,0.07527601718902588,0.18904685974121094
0.3566940128803253,0.022213974967598915,-0.07503949850797653,0.023554474115371704,0.017055928707122803,0.2954059839248657
0.07916910946369171,0.10489694029092789,0.023640429601073265,0.06907803565263748,-0.036586880683898926,0.36269956827163696
-0.25726985931396484,0.126549631357193,0.16635935008525848,0.09696223586797714,-0.060652196407318115,0.3740752935409546
-0.3202032446861267,-0.003949063364416361,0.10461343079805374,0.021048635244369507,-0.05494934320449829,0.22634851932525635
-0.27176347374916077,0.04126337170600891,-0.1805601567029953,-0.19751954078674316,-0.036986708641052246,0.034963011741638184
-0.2858065366744995,0.0766746997833252,-0.19731390476226807,-0.15081119537353516,-0.0498996376991272,0.028336405754089355
-0.15895383059978485,0.10276179015636444,0.005319040268659592,-0.011926334351301193,-0.007412612438201904,-0.05030134320259094
-0.0991564467549324,0.13484056293964386,0.04045230150222778,-0.06602151691913605,0.00174635648727417,-0.0024229586124420166
0.0201506819576025,0.07899761199951172,-0.041059114038944244,-0.1003185361623764,-0.001958489418029785,-0.010280251502990723
-0.008202054537832737,-0.05141875520348549,-0.15944808721542358,-0.08549076318740845,-0.010086297988891602,0.07179957628250122
-0.03897200897336006,-0.04097253456711769,-0.14784470200538635,-0.04471351206302643,-0.027228355407714844,0.09231352806091309
-0.09255386143922806,0.01815887540578842,0.007746673654764891,0.021841753274202347,0.007663071155548096,0.1278097927570343
-0.09499134123325348,0.01158815436065197,0.12225425243377686,0.010868620127439499,0.04724085330963135,0.09905844926834106
-0.08478957414627075,0.0906430259346962,0.05874638259410858,-0.03290652856230736,0.05872666835784912,0.093085378408432
-0.14694495499134064,0.10677357763051987,-0.04195157438516617,-0.05038599297404289,0.05531805753707886,0.12194785475730896
-0.1327906996011734,0.12318940460681915,-0.058753713965415955,-0.03100646659731865,0.06502091884613037,0.09689536690711975
-0.005374663043767214,0.08434900641441345,-0.0038372408598661423,0.022573411464691162,0.11420470476150513,0.014797866344451904
0.16918039321899414,0.17842404544353485,0.029894089326262474,0.048311520367860794,0.17749464511871338,-0.0012014806270599365
0.31642812490463257,0.1599108874797821,0.02794092893600464,0.030943546444177628,0.22480285167694092,0.04006803035736084
0.3482482433319092,-0.0028647244907915592,-0.02079087868332863,-0.0035987459123134613,0.2291669249534607,0.14108338952064514
0.3062853217124939,-0.1436634659767151,-0.022146614268422127,0.00716925784945488,0.2266066074371338,0.17091742157936096
0.3913590908050537,-0.13580700755119324,0.07790256291627884,0.06294798851013184,0.24561351537704468,0.14674177765846252
0.4869934022426605,0.0717921033501625,0.06056554242968559,0.004533909261226654,0.2868328094482422,0.10953307151794434
0.5512208938598633,0.06353601813316345,-0.09475821256637573,-0.06191745027899742,0.3047780990600586,0.15771052241325378
0.48903805017471313,-0.05687643960118294,-0.21650330722332,-0.07711228728294373,0.3016386032104492,0.1843211054801941
0.4031119644641876,-0.17727985978126526,-0.1724870502948761,-0.04469531774520874,0.3001629710197449,0.1389065384864807
0.4509982764720917,-0.15877047181129456,-0.048603929579257965,0.013732094317674637,0.3023449182510376,0.15787526965141296
0.5779880285263062,0.1624927520751953,-0.038550667464733124,-0.011987380683422089,0.28480738401412964,0.06120496988296509
0.5694437026977539,0.21823430061340332,-0.10780274868011475,-0.07684339582920074,0.2825974225997925,0.06074708700180054
0.37253427505493164,-0.05297231674194336,-0.061252396553754807,-0.027470387518405914,0.22173047065734863,0.1286475658416748
0.3022654354572296,-0.24004065990447998,0.04667314514517784,0.0597284734249115,0.1360498070716858,0.06659123301506042
0.5388332605361938,-0.2406298667192459,0.14982208609580994,0.17449434101581573,0.06516039371490479,-0.12515205144882202
0.7439844608306885,-0.04277297109365463,0.13547460734844208,0.07145088165998459,0.06588661670684814,-0.21383213996887207
0.6834079027175903,0.08202938735485077,0.06880070269107819,-0.09417986869812012,0.07774627208709717,-0.14554676413536072
0.47782254219055176,0.020408233627676964,0.11899562925100327,-0.06087271496653557,0.02028590440750122,-0.061838001012802124
0.3613818883895874,-0.07940105348825455,0.1842426061630249,0.04611146077513695,-0.03449523448944092,-0.08004072308540344
0.49079039692878723,-0.10588988661766052,-0.0034369807690382004,-0.007349364459514618,-0.016363322734832764,-0.15676796436309814
0.5499617457389832,-0.06771393865346909,-0.22253641486167908,-0.1339644193649292,0.029628753662109375,-0.13544395565986633
0.42160293459892273,0.044056784361600876,-0.19667570292949677,-0.019337408244609833,0.008579850196838379,-0.057379841804504395
0.15898098051548004,0.16838030517101288,-0.03196800872683525,0.04302598536014557,-0.05254298448562622,0.012360632419586182
0.030550353229045868,-0.05110057443380356,0.023514343425631523,0.06988383829593658,-0.12410122156143188,-0.042897552251815796
0.1510571390390396,-0.24377816915512085,-0.16732771694660187,-0.08065979182720184,-0.14496183395385742,-0.2786223888397217
0.24399378895759583,-0.2630821168422699,-0.37416553497314453,-0.108792245388031,-0.21069365739822388,-0.31096553802490234
0.3235371708869934,-0.0950319766998291,-0.38633716106414795,-0.06365735828876495,-0.24980878829956055,-0.2739373445510864
0.2179846614599228,-0.11558066308498383,-0.17444193363189697,0.0013964790850877762,-0.255392849445343,-0.1969514787197113
0.22248853743076324,-0.2637757658958435,-0.10047928243875504,-0.019172517582774162,-0.2527378797531128,-0.19147273898124695
0.3650716543197632,-0.31206774711608887,-0.20647525787353516,-0.07576847076416016,-0.307899534702301,-0.3168473541736603
0.39361658692359924,-0.36855921149253845,-0.2894773483276367,-0.033418454229831696,-0.36092573404312134,-0.2187594473361969
0.22892433404922485,-0.3243115544319153,-0.12108149379491806,0.02133324183523655,-0.34885215759277344,-0.0757506787776947
-0.006474499590694904,-0.14581620693206787,0.05066879466176033,0.05803265422582626,-0.31531471014022827,-0.026325970888137817
-0.08996601402759552,-0.10297468304634094,0.06416238844394684,0.013556414283812046,-0.32433152198791504,-0.06808444857597351
-0.009566755965352058,-0.011597978882491589,-0.11958387494087219,-0.03457752615213394,-0.3840557336807251,-0.26275748014450073
-0.07655895501375198,-0.03796040266752243,-0.09040413051843643,0.03866472840309143,-0.4011526107788086,-0.1967693269252777
-0.21588663756847382,0.036043617874383926,0.09086703509092331,0.15119023621082306,-0.3832997679710388,-0.15548387169837952
-0.5055739283561707,0.021176893264055252,0.24237288534641266,0.2046523541212082,-0.41294896602630615,-0.058980792760849
-0.6067133545875549,0.06785626709461212,0.1404677778482437,0.12611718475818634,-0.4154771566390991,-0.10708078742027283
-0.542002260684967,0.0483529232442379,0.02371826395392418,0.05171386897563934,-0.42795610427856445,-0.19717690348625183
-0.6829112768173218,0.10495918989181519,0.033523768186569214,-0.02333568036556244,-0.3940921425819397,-0.15507644414901733
-0.8051158785820007,0.30737853050231934,0.19142501056194305,-0.05243339389562607,-0.36250174045562744,-0.11909961700439453
-0.741787314414978,0.1727074682712555,0.2635902464389801,-0.07499309629201889,-0.31184232234954834,-0.2913667857646942
-0.5544719099998474,0.019383490085601807,0.19759628176689148,-0.08748170733451843,-0.2515333890914917,-0.343594491481781
-0.38578975200653076,0.00857451744377613,0.15550552308559418,-0.09745776653289795,-0.21351826190948486,-0.4322901666164398
-0.38490307331085205,0.06073524430394173,0.13474813103675842,-0.05852506309747696,-0.13908261060714722,-0.3199411630630493
-0.5462905764579773,0.036121584475040436,0.12606215476989746,-0.03287035971879959,-0.12778109312057495,-0.13366097211837769
-0.5848174691200256,-0.021156979724764824,0.10340239107608795,-0.054936908185482025,-0.08548516035079956,-0.05763983726501465
-0.5554867386817932,-0.13349181413650513,0.10765126347541809,-0.07268499583005905,-0.045373618602752686,-0.08484387397766113
-0.5901729464530945,-0.09568561613559723,0.12221565842628479,-0.08275684714317322,-0.023616373538970947,-0.06773161888122559
-0.5761808156967163,-0.11332523077726364,0.10397575050592422,-0.03201507404446602,-0.010211944580078125,-0.0940302312374115
-0.5868144631385803,-0.16728036105632782,0.013261878862977028,-0.016710516065359116,-0.0216749906539917,-0.09780094027519226
-0.6945668458938599,-0.1574697643518448,-0.01945742592215538,0.002805795520544052,-0.04455465078353882,-0.04087492823600769
-0.7269685864448547,-0.11147412657737732,0.03406807780265808,-0.008445248007774353,-0.035913288593292236,-0.04438436031341553
-0.6268292665481567,0.12856675684452057,0.11330591887235641,-0.03510482981801033,-0.02388209104537964,-0.18896237015724182
-0.4919319152832031,0.25671353936195374,0.13671191036701202,0.02140337973833084,-0.024500250816345215,-0.2320159673690796
-0.48832276463508606,0.11930897831916809,0.17563867568969727,0.116780586540699,-0.03267604112625122,-0.16949957609176636
-0.41630464792251587,0.044961877167224884,0.0980316698551178,0.07519689947366714,-0.011599719524383545,-0.1434868574142456
-0.39613598585128784,0.26813194155693054,0.08544176071882248,0.01761849969625473,0.00903099775314331,-0.09593099355697632
-0.2932082414627075,0.39941418170928955,0.2273731231689453,0.02974725514650345,0.023469746112823486,-0.07266312837600708
-0.20864242315292358,0.3758104145526886,0.2091064155101776,-0.04797159135341644,0.059144675731658936,-0.09340667724609375
-0.20997121930122375,0.20077471435070038,0.08325480669736862,-0.06641773879528046,0.055917441844940186,-0.020708739757537842
-0.18570144474506378,0.18565784394741058,-0.037612006068229675,-0.037187181413173676,0.0630946159362793,-0.006441593170166016
-0.12862525880336761,0.2252516746520996,-0.005223534535616636,-0.02689409628510475,0.09741908311843872,-0.024859726428985596
-0.07467861473560333,0.17950525879859924,0.10094311088323593,0.04922455549240112,0.13400620222091675,-0.019899308681488037
-0.17594259977340698,0.13230793178081512,0.04175886511802673,0.008399374783039093,0.16361969709396362,0.07313525676727295
-0.13820017874240875,0.16615185141563416,-0.08390342444181442,-0.010635145008563995,0.20320576429367065,0.07998526096343994
0.08101357519626617,0.25488871335983276,-0.20507895946502686,-0.039457451552152634,0.26672297716140747,0.04886823892593384
0.3082985281944275,0.32308024168014526,-0.1669011265039444,0.004341065883636475,0.2688925862312317,0.02789616584777832
0.23038005828857422,0.2340882569551468,-0.015910545364022255,0.03614744544029236,0.2850712537765503,0.15004003047943115
0.1255338490009308,0.15669576823711395,0.10881326347589493,0.044392526149749756,0.301736056804657,0.26010745763778687
0.29417338967323303,0.09184461832046509,0.04189923778176308,0.0037174969911575317,0.3082890510559082,0.1722414493560791
0.4460342526435852,0.13200028240680695,-0.02124376781284809,-0.025304146111011505,0.2879825234413147,0.13228237628936768
0.5171192288398743,0.09693650901317596,-0.04061717540025711,-0.020081138238310814,0.27601540088653564,0.14934983849525452
0.7362534403800964,0.004508999641984701,0.0005471017211675644,-0.0007115304470062256,0.2730485200881958,-0.006891906261444092
0.909419059753418,-0.00943771656602621,-0.05168059840798378,-0.02661243826150894,0.29093021154403687,-0.05834287405014038
0.9849094748497009,-0.031765416264534,-0.11239666491746902,-0.013502789661288261,0.26300346851348877,-0.02146318554878235
1.0271573066711426,-0.058557070791721344,-0.146381214261055,-0.04761360585689545,0.2247312068939209,0.05648893117904663
0.9267264604568481,0.013131264597177505,-0.04239469766616821,-0.04732838273048401,0.14226537942886353,0.14110231399536133
0.5543015003204346,0.23329177498817444,0.23072636127471924,0.06006327271461487,0.04953157901763916,0.3056294322013855
-8.45431350171566e-05,0.251958966255188,0.3590347170829773,0.10417445003986359,-0.0011606812477111816,0.38722920417785645
-0.5621819496154785,0.029595866799354553,0.21123497188091278,0.04070580005645752,-0.003108382225036621,0.38268640637397766
-0.6254714131355286,-0.08446165919303894,-0.06278174370527267,-0.028553634881973267,0.03388577699661255,0.14092254638671875
-0.49657195806503296,-0.10564681142568588,-0.18859800696372986,-0.053030386567115784,0.08136630058288574,-0.04126596450805664
-0.3103746175765991,-0.01258775219321251,-0.10186650604009628,-0.04482724890112877,0.08600258827209473,-0.03658246994018555
-0.1554068624973297,-0.055883608758449554,-0.04773716256022453,-0.02924792468547821,0.06118196249008179,-0.03969091176986694
-0.009878018870949745,-0.12757834792137146,-0.113802969455719,-0.07553459703922272,0.021681606769561768,-0.02019152045249939
0.09383591264486313,-0.1581292599439621,-0.16938774287700653,-0.0882960855960846,-0.01302480697631836,0.02579781413078308
0.12515093386173248,-0.1676633358001709,-0.06649251282215118,-0.05878476798534393,-0.010365188121795654,0.07364821434020996
0.03255922347307205,-0.06236327812075615,0.14718987047672272,-0.00028746388852596283,-0.015172123908996582,0.15006014704704285
-0.14289221167564392,0.031895000487565994,0.24372152984142303,-0.01455327682197094,-0.015393078327178955,0.21988984942436218
-0.18261736631393433,0.04507919400930405,0.1523599624633789,-0.06572926789522171,-0.029327213764190674,0.16669487953186035
-0.20054280757904053,-0.030616771429777145,0.04309864342212677,-0.0773686096072197,-0.029492557048797607,0.0860065221786499
-0.24640107154846191,-0.0847979187965393,0.012345178052783012,-0.04300416633486748,-0.0052353739738464355,0.06304493546485901
-0.2682476341724396,-0.013103983364999294,0.020395811647176743,-0.02011089399456978,0.0350765585899353,0.064801424741745
-0.22128385305404663,0.049288246780633926,0.048462215811014175,0.0036440975964069366,0.06895411014556885,0.09553143382072449
-0.15919886529445648,-0.04267653822898865,0.006806282792240381,-0.017465032637119293,0.11979538202285767,0.0739145278930664
-0.15733765065670013,-0.1432502567768097,-0.09025685489177704,-0.04110965505242348,0.14176112413406372,0.14625215530395508
-0.11205727607011795,-0.039868373423814774,-0.1727910190820694,-0.08023235201835632,0.1512640118598938,0.15138933062553406
-0.05024201422929764,0.15964379906654358,-0.12460837513208389,-0.04685450345277786,0.18149828910827637,0.11794281005859375
0.10033520311117172,0.18266059458255768,-0.04699794948101044,-0.032233379781246185,0.2490379810333252,0.05012476444244385
0.31791287660598755,0.02290312759578228,-0.012616747990250587,0.026449542492628098,0.27979397773742676,-0.021195828914642334
0.4017705023288727,-0.045300744473934174,-0.08054867386817932,-0.03352614492177963,0.2674790620803833,0.05016756057739258
0.24271568655967712,-0.1327110379934311,-0.1148059293627739,-0.010942630469799042,0.21841967105865479,0.13901782035827637
0.3409883379936218,-0.14867453277111053,-0.058542221784591675,0.1115116998553276,0.20456242561340332,0.07725450396537781
0.5637337565422058,-0.12914998829364777,0.030168408527970314,0.1156427338719368,0.26828575134277344,-0.10808655619621277
0.5825436115264893,-0.10375618189573288,3.5572098568081856e-05,0.05506876856088638,0.3329355716705322,-0.04935097694396973
0.5399155616760254,-0.11720936745405197,-0.13361972570419312,-0.060674380511045456,0.30269551277160645,0.0319061279296875
0.4577617943286896,-0.14175908267498016,-0.17144660651683807,-0.03974549472332001,0.26504838466644287,0.04549732804298401
0.426758348941803,-0.1445290893316269,-0.11921927332878113,-0.03566093370318413,0.28160881996154785,0.1304301619529724
0.6257907748222351,-0.11562085151672363,-0.11381185054779053,-0.033002376556396484,0.2724665403366089,0.04560345411300659
0.8847830891609192,0.023746667429804802,-0.1336657702922821,0.00040585175156593323,0.17374086380004883,-0.09292003512382507
0.7740452885627747,-0.04257264733314514,-0.12128831446170807,-0.0001941286027431488,0.10284656286239624,0.00012445449829101562
0.5255502462387085,-0.23674653470516205,-0.12686458230018616,0.027689598500728607,0.08404749631881714,-0.0009973645210266113
0.539250373840332,-0.09991104155778885,-0.12188646197319031,0.04637421667575836,0.07789510488510132,-0.07231840491294861
0.7869283556938171,0.004788236226886511,-0.04774247482419014,0.010510474443435669,0.05750918388366699,-0.23557448387145996
0.914031982421875,-0.10109741240739822,0.0009121724870055914,0.06886574625968933,0.04775083065032959,-0.29829081892967224
0.8226388096809387,-0.12649843096733093,-0.04492062330245972,0.0190364271402359,0.05704081058502197,-0.14242392778396606
0.6481174230575562,-0.26008468866348267,-0.10694263875484467,0.010556228458881378,0.05895590782165527,-0.055755555629730225
0.5867180228233337,-0.12717539072036743,-0.1688385307788849,-0.017863234505057335,-0.00039464235305786133,-0.11156484484672546
0.6501520872116089,0.1080968976020813,-0.06086983531713486,0.006358543410897255,-0.04125106334686279,-0.2110261619091034
0.5786555409431458,-0.07969696819782257,0.06788761168718338,0.07004404813051224,-0.0327455997467041,-0.18567480146884918
0.5447353720664978,-0.16528795659542084,-0.007340605370700359,-0.014425726607441902,-0.06098443269729614,-0.19820615649223328
0.5295369625091553,-0.13566365838050842,-0.11838677525520325,-0.07602068036794662,-0.16145479679107666,-0.17279067635536194
0.4374876916408539,-0.012024469673633575,-0.06072414666414261,0.010957164689898491,-0.19275885820388794,-0.12989524006843567
0.06943929195404053,0.023119596764445305,0.2130206674337387,0.08154014497995377,-0.17624163627624512,0.03312750160694122
-0.07640336453914642,-0.04058950021862984,0.25695157051086426,0.037243254482746124,-0.17188924551010132,-0.0055923908948898315
0.2623906135559082,0.02733013965189457,-0.01605916954576969,-0.11899397522211075,-0.24740737676620483,-0.3420064449310303
0.3933694362640381,-0.019238829612731934,-0.1714686155319214,-0.05854368209838867,-0.3354814052581787,-0.3404267430305481
0.151438906788826,-0.20613497495651245,-0.11119172722101212,0.09040825814008713,-0.32305020093917847,-0.15051895380020142
-0.19249998033046722,-0.10816410928964615,0.04805917665362358,0.09771515429019928,-0.35482603311538696,-0.014130696654319763
-0.32115861773490906,0.07105967402458191,0.1377118080854416,0.005067495629191399,-0.4598410725593567,-0.06332488358020782
-0.17822495102882385,0.20359958708286285,0.1519181877374649,-0.07906264811754227,-0.5514087677001953,-0.251315176486969
-0.2068016678094864,0.22470328211784363,0.11385387927293777,-0.08185981214046478,-0.5747101902961731,-0.2687877416610718
-0.41400784254074097,0.03409595787525177,0.0736517384648323,-0.05298663303256035,-0.5886291265487671,-0.21530941128730774
-0.4618297815322876,-0.1088709756731987,0.08035798370838165,-0.05626583844423294,-0.6145471930503845,-0.2872503995895386
-0.3632194995880127,-0.1509692370891571,0.03297088295221329,-0.09096252173185349,-0.665172815322876,-0.3883821368217468
-0.13137343525886536,-0.14833024144172668,-0.011692538857460022,-0.12152603268623352,-0.6524969339370728,-0.43833398818969727
-0.16381622850894928,-0.09084415435791016,-0.004788454622030258,-0.042301636189222336,-0.6127549409866333,-0.2978452146053314
-0.3029560446739197,-0.09807317703962326,-0.0633145421743393,-0.07672001421451569,-0.5385735034942627,-0.08059942722320557
-0.41780707240104675,-0.06162801384925842,-0.0950055718421936,-0.10601840913295746,-0.40261828899383545,-0.13217738270759583
-0.4049862027168274,-0.075779989361763,0.04911605268716812,-0.03662465140223503,-0.25431281328201294,-0.2230508029460907
-0.2602829933166504,-0.0003613010048866272,0.11812059581279755,-0.016910649836063385,-0.1638733148574829,-0.37016624212265015
-0.1379835158586502,-0.018891897052526474,0.058517567813396454,0.006368834525346756,-0.1496800184249878,-0.36398541927337646
-0.2100447416305542,-0.13986296951770782,-0.015154657885432243,0.03414033353328705,-0.10864657163619995,-0.21283286809921265
-0.31311750411987305,-0.11543416976928711,0.06039559841156006,0.016363415867090225,-0.04097247123718262,-0.06122681498527527
-0.493770956993103,-0.06395052373409271,0.25242775678634644,0.08150514960289001,-0.01886117458343506,-0.01896098256111145
-0.4800199568271637,0.07562446594238281,0.28159481287002563,0.03667853772640228,0.016306161880493164,-0.08916115760803223
-0.38090091943740845,0.014149078167974949,0.08073950558900833,0.04491889476776123,-0.018106043338775635,-0.1748395562171936
-0.33022621273994446,-0.14367128908634186,7.83249270170927e-05,0.07406328618526459,0.00897127389907837,-0.14361140131950378
-0.44897860288619995,-0.18372026085853577,0.11023823916912079,0.042860325425863266,0.0630255937576294,-0.05343487858772278
-0.6149126887321472,-0.027486179023981094,0.3512157201766968,0.08285664767026901,0.09473228454589844,0.04404944181442261
-0.6003276109695435,0.1758270114660263,0.27590522170066833,-0.052465833723545074,0.11689287424087524,0.0012759566307067871
-0.5008067488670349,0.14351849257946014,-0.024859830737113953,-0.11633508652448654,0.07525336742401123,-0.0809766948223114
