rotation_x,rotation_y,rotation_z,acceleration_x,acceleration_y,acceleration_z
-0.5755375027656555,-0.10889449715614319,0.1312026083469391,-0.07912533730268478,0.14716649055480957,0.10520398616790771
-0.4598604440689087,-0.16487309336662292,0.05239534005522728,-0.05315246060490608,0.16619151830673218,0.05258899927139282
-0.31573909521102905,-0.2020709365606308,0.02250475063920021,-0.006663840264081955,0.15798550844192505,0.08576273918151855
-0.1051996648311615,-0.20500409603118896,0.011228859424591064,0.04926694929599762,0.16128867864608765,0.07458174228668213
-0.012385789304971695,-0.051361773163080215,0.05748014897108078,0.033362582325935364,0.1710091233253479,0.17553573846817017
-0.026375900954008102,0.02764384262263775,0.1426864117383957,0.04540722444653511,0.17594140768051147,0.22038376331329346
-0.1542031615972519,0.041606202721595764,0.121564120054245,-0.012323930859565735,0.203660786151886,0.24014127254486084
-0.14063183963298798,-0.04743674397468567,0.019453635439276695,0.011621914803981781,0.20637893676757812,0.11707079410552979
0.12663325667381287,-0.16295364499092102,-0.042598918080329895,0.035056695342063904,0.2193286418914795,0.0016595125198364258
0.38340380787849426,-0.06837465614080429,-0.0931924507021904,-0.017632070928812027,0.2585965394973755,0.06261873245239258
0.37550994753837585,0.014739405363798141,-0.04534004628658295,-0.01836642622947693,0.26612502336502075,0.17577093839645386
0.3588942885398865,0.04035988077521324,-0.0019281913992017508,-0.029186531901359558,0.26496410369873047,0.21154505014419556
0.3812350630760193,-0.01982535794377327,-0.002996280323714018,-0.016679823398590088,0.27870821952819824,0.23014551401138306
0.49709951877593994,-0.007459092419594526,-0.139644593000412,-0.026091620326042175,0.2620527744293213,0.15295350551605225
0.602069079875946,-0.007722150068730116,-0.20783647894859314,0.046506572514772415,0.23590850830078125,0.08977007865905762
0.6641445755958557,0.12046150118112564,-0.12680932879447937,0.05781633034348488,0.23591887950897217,0.10338425636291504
0.5059542655944824,0.11341623961925507,0.010967480018734932,0.06366947293281555,0.24179863929748535,0.18508809804916382
0.5524532794952393,-0.10759403556585312,0.13909664750099182,0.015606623142957687,0.19152599573135376,-0.006322741508483887
0.6611437201499939,0.12345194071531296,-0.050227005034685135,-0.12158418446779251,0.10210365056991577,-0.0707736611366272
0.7054112553596497,0.2539941966533661,-0.1591011881828308,-0.004899103194475174,0.062088072299957275,-0.11310675740242004
0.6153323650360107,-0.02199786901473999,-0.015355607494711876,0.13480161130428314,0.061176955699920654,-0.08620980381965637
0.43138638138771057,-0.5043709874153137,0.19284115731716156,0.09104843437671661,0.04576295614242554,0.008090883493423462
0.47002267837524414,-0.3442103862762451,0.17708246409893036,-0.08866041153669357,-0.03300809860229492,-0.2003617286682129
0.7670286893844604,0.2764413058757782,-0.1554495245218277,-0.15417319536209106,-0.07275789976119995,-0.3253162205219269
0.7761948704719543,0.2182958424091339,-0.2581663131713867,-0.007148165255784988,-0.07881432771682739,-0.19971460103988647
0.6187534928321838,-0.05195867270231247,-0.12869834899902344,0.042639054358005524,-0.11419755220413208,-0.15504688024520874
0.5263919234275818,-0.06334439665079117,-0.027767902240157127,-0.02448436990380287,-0.19153815507888794,-0.24048301577568054
0.5500996112823486,-0.12412100285291672,0.018198292702436447,-0.029515404254198074,-0.2270229458808899,-0.3406215012073517
0.6220125555992126,-0.03264791890978813,-0.05878697335720062,-0.04158430173993111,-0.2535254955291748,-0.31938931345939636
0.6117455363273621,-0.05728882551193237,-0.11326120793819427,-0.011469677090644836,-0.29670530557632446,-0.3003893494606018
0.6007537245750427,-0.18049773573875427,-0.07946529239416122,0.008505307137966156,-0.3563011884689331,-0.26205939054489136
0.42603763937950134,-0.1097467690706253,0.11625827103853226,0.00938677042722702,-0.368319571018219,-0.11691373586654663
0.21938325464725494,-0.03255586326122284,0.24831189215183258,-0.050198204815387726,-0.3846195936203003,-0.15206891298294067
0.17501527070999146,0.18587157130241394,0.1678735613822937,-0.11665263772010803,-0.4235057234764099,-0.2536640167236328
0.08120379596948624,0.3239037096500397,0.06562988460063934,-0.03674333915114403,-0.5077617764472961,-0.269562691450119
-0.18011820316314697,0.09439422935247421,0.08872830867767334,0.07462385296821594,-0.5535555481910706,-0.21464264392852783
-0.3653077483177185,0.017284540459513664,0.1344497948884964,0.013361245393753052,-0.5364794135093689,-0.25570058822631836
-0.4155249297618866,0.19602489471435547,0.08058270066976547,-0.11613576859235764,-0.5388617515563965,-0.3894978165626526
-0.3727075755596161,0.24729594588279724,-0.035599034279584885,-0.13920003175735474,-0.5435400009155273,-0.43479400873184204
-0.25199729204177856,0.04572485014796257,-0.07060451805591583,-0.06455010175704956,-0.5450353026390076,-0.5024816989898682
-0.12344810366630554,0.0005935996305197477,-0.03246882185339928,-0.024679478257894516,-0.5182657837867737,-0.4977858364582062
-0.21276971697807312,0.23788738250732422,-0.06703981012105942,-0.03602326288819313,-0.4267440438270569,-0.27383527159690857
-0.2587130665779114,0.2189633995294571,-0.2123432755470276,-0.07737129181623459,-0.3456854224205017,-0.23896533250808716
-0.2227485179901123,0.14255374670028687,-0.26689377427101135,-0.010605661198496819,-0.2844409942626953,-0.2403428852558136
-0.12854844331741333,0.14783699810504913,-0.16617248952388763,-0.025206422433257103,-0.16065150499343872,-0.25300219655036926
-0.12711264193058014,0.09511952847242355,-0.04815443232655525,0.01251942664384842,-0.08068585395812988,-0.18134844303131104
-0.19365286827087402,0.02855854667723179,0.0121424226090312,0.0323462188243866,-0.06015509366989136,-0.12478521466255188
-0.18230362236499786,-0.0167072806507349,-0.04983868449926376,-0.014702141284942627,-0.027304410934448242,-0.13395333290100098
-0.1591789573431015,-0.08077292144298553,-0.08246923238039017,-0.0007366612553596497,-0.005038619041442871,-0.06878143548965454
-0.1384878307580948,-0.011350736021995544,-0.0484437569975853,-0.009379824623465538,0.01163262128829956,-0.05113685131072998
-0.24551847577095032,0.025645550340414047,0.04862896725535393,0.008973531424999237,0.03386300802230835,0.00677490234375
-0.3067067563533783,-0.047574885189533234,0.08178237080574036,0.028532303869724274,0.04524034261703491,-0.05259448289871216
-0.312570184469223,-0.04871547594666481,-0.02894406020641327,-0.04705815762281418,0.08879303932189941,-0.09177809953689575
-0.23400934040546417,-0.04259312525391579,-0.10511492937803268,-0.014545515179634094,0.09817010164260864,-0.13246995210647583
-0.263916015625,-0.0038834474980831146,-0.10098985582590103,-0.023357106372714043,0.11478406190872192,-0.04967114329338074
-0.33746302127838135,-0.024476980790495872,0.008886675350368023,0.03690601885318756,0.10027766227722168,-0.01830422878265381
-0.35617032647132874,0.01134503073990345,0.11493361741304398,0.011215800419449806,0.10976272821426392,0.005011707544326782
-0.36238518357276917,0.024855922907590866,0.07861535996198654,-0.029437072575092316,0.13311392068862915,0.008181273937225342
-0.3436868190765381,-0.03282541036605835,0.028847001492977142,-0.003856917843222618,0.1506035327911377,-0.037645965814590454
-0.3112507164478302,0.014313720166683197,0.006318805273622274,0.020576447248458862,0.17146706581115723,-0.033573269844055176
-0.28685304522514343,-0.005350091494619846,-0.002789881080389023,0.07000777125358582,0.14519762992858887,-0.027052342891693115
-0.334319531917572,-0.09334375709295273,0.08672921359539032,0.07309775799512863,0.17472589015960693,0.02696111798286438
-0.4374988377094269,-0.05230889096856117,0.12475171685218811,0.010548323392868042,0.18608397245407104,0.06949388980865479
-0.5147875547409058,0.020725060254335403,0.058095533400774,-0.04551020264625549,0.20935851335525513,0.07167848944664001
-0.47984084486961365,0.008213169872760773,-0.03843030706048012,-0.04364628344774246,0.23309040069580078,0.047064363956451416
-0.4385847747325897,-0.032778237015008926,-0.09373919665813446,0.008504167199134827,0.2232341170310974,0.0862763524055481
-0.4532582461833954,-0.021003056317567825,0.004041188396513462,0.061712220311164856,0.23086851835250854,0.1293109655380249
-0.48292025923728943,0.022763609886169434,0.08965173363685608,0.03906605392694473,0.23783761262893677,0.1339339017868042
-0.4312198758125305,0.06784071028232574,0.04051973670721054,-0.010051710531115532,0.25604498386383057,0.04914027452468872
-0.3105199933052063,0.05282856523990631,-0.0889931172132492,0.01942705735564232,0.23431158065795898,-0.016383826732635498
-0.13572397828102112,-0.05028587207198143,-0.11937854439020157,0.0794263631105423,0.2243804931640625,-0.024675726890563965
-0.04941564053297043,-0.13170339167118073,-0.0860586166381836,0.015959836542606354,0.2060036063194275,0.04127711057662964
-0.010337645187973976,0.06567688286304474,-0.032758504152297974,-0.04786292463541031,0.19609665870666504,0.0862380862236023
0.037893958389759064,0.2172098308801651,-0.06084569916129112,-0.08139389008283615,0.1937350630760193,0.1243811845779419
0.1908790022134781,0.13248272240161896,-0.1366860717535019,-0.01758836954832077,0.15651065111160278,0.10923808813095093
0.3029584586620331,-0.02928081527352333,-0.11620712280273438,0.07111475616693497,0.10534119606018066,0.13924956321716309
0.265482097864151,-0.029988236725330353,-0.09138470143079758,-0.03779011219739914,0.0835302472114563,0.2081558108329773
0.09091117233037949,0.15500910580158234,-0.06119270995259285,-0.04446667432785034,0.05639207363128662,0.23455828428268433
0.044608477503061295,0.13052277266979218,-0.05113065615296364,-0.03201328217983246,0.05248129367828369,0.1182246208190918
0.03577689826488495,-0.0037168036215007305,-0.013199016451835632,0.06413961201906204,0.012148916721343994,0.05448883771896362
0.014060480520129204,-0.077876977622509,0.03513788431882858,0.042953066527843475,-0.013352155685424805,0.03851318359375
-0.053285304456949234,-0.02771878056228161,0.0854232981801033,0.03407749533653259,-0.020303547382354736,0.04367178678512573
-0.12847737967967987,-0.04458308964967728,0.12203569710254669,-1.586228609085083e-05,-0.009372115135192871,0.024690747261047363
-0.04112061485648155,0.014715122990310192,0.06025390326976776,-0.04733790457248688,-0.009357810020446777,-0.053451478481292725
0.04514557123184204,0.04240453615784645,-0.029369689524173737,-0.03807545453310013,-0.023294925689697266,-0.02994084358215332
0.0497858002781868,0.002684494014829397,-0.03076757863163948,0.0026462525129318237,-0.03577101230621338,0.021590232849121094
0.017193207517266273,0.00794316828250885,-0.011905588209629059,-0.028869442641735077,-0.020433366298675537,0.01962953805923462
-0.016247665509581566,0.046727221459150314,0.007210481911897659,-0.006439514458179474,-0.012929379940032959,0.013594985008239746
-0.02062174864113331,0.05227501317858696,0.021385256201028824,-0.01746738702058792,0.0006172060966491699,0.0005086064338684082
0.05898626521229744,0.013322822749614716,0.007270537316799164,-0.029973000288009644,0.01314312219619751,-0.03355824947357178
0.05778266489505768,-0.004012344405055046,0.0492427833378315,-0.0024752169847488403,0.016710519790649414,0.03704488277435303
0.006068775430321693,0.04463046044111252,0.0931350439786911,-0.031243614852428436,0.029385745525360107,0.08956938982009888
-0.04206749424338341,0.06979690492153168,0.0827975869178772,-0.04730360954999924,0.03334760665893555,0.11325287818908691
-0.0689702183008194,0.10489976406097412,0.063358373939991,-0.03285440057516098,0.03907233476638794,0.11231386661529541
-0.07851270586252213,0.12121737003326416,0.06976120918989182,-0.03788207471370697,0.07409656047821045,0.11649096012115479
-0.04369927942752838,0.07125039398670197,0.07206451147794724,-0.04770021140575409,0.1035357117652893,0.0817064642906189
-0.0545257031917572,0.06718439608812332,0.023653537034988403,-0.0684690997004509,0.1314181685447693,0.09527045488357544
-0.05777396261692047,0.10349313914775848,-0.012019770219922066,-0.04583112895488739,0.16050374507904053,0.09388047456741333
-0.04723908007144928,0.09961177408695221,-0.011497437953948975,-0.0027627721428871155,0.1845577359199524,0.08870464563369751
-0.025357523933053017,-0.04216989129781723,0.025182630866765976,0.01574961096048355,0.22056496143341064,0.08054184913635254
0.13772042095661163,-0.09028380364179611,-0.029398325830698013,-0.058431223034858704,0.273381769657135,0.02887362241744995
0.30032017827033997,0.10434714704751968,-0.039055414497852325,-0.0009296983480453491,0.253872811794281,0.09380817413330078
0.27317750453948975,0.15701138973236084,0.007949582301080227,0.02802775800228119,0.22018492221832275,0.18007802963256836
0.10538320243358612,-0.10645748674869537,0.08328890800476074,0.05776660889387131,0.18425345420837402,0.23798143863677979
-0.13999713957309723,-0.5321152210235596,0.24932336807250977,0.1025824174284935,0.20799243450164795,0.22184109687805176
0.13767945766448975,-0.5570951700210571,0.17481470108032227,-0.08624956011772156,0.24908822774887085,-0.02719902992248535
0.7372410297393799,-0.04075149446725845,-0.01405539270490408,-0.1257922500371933,0.2500155568122864,-0.1416720747947693
0.884214460849762,0.09359212219715118,-0.09485439956188202,-0.08547894656658173,0.2533265948295593,0.038614362478256226
0.6456103920936584,-0.13513030111789703,-0.05040900409221649,0.052291303873062134,0.23849362134933472,0.15136966109275818
0.4633544683456421,-0.15571577847003937,0.07207726687192917,0.10979913175106049,0.215307354927063,0.15059471130371094
0.517242968082428,-0.05459875613451004,-0.005138428881764412,-0.026035752147436142,0.21672987937927246,-0.005335122346878052
0.82212233543396,0.41043272614479065,-0.23970316350460052,-0.13498333096504211,0.20030593872070312,-0.14840161800384521
0.9287620782852173,0.1508159190416336,-0.2878183424472809,-0.01235973834991455,0.2072070837020874,-0.06523460149765015
0.7963590621948242,0.07389108091592789,-0.1918061524629593,0.05366935580968857,0.14056295156478882,-0.006924241781234741
0.5755394101142883,0.026859933510422707,0.07645676285028458,0.16526733338832855,0.07486552000045776,-0.0727454423904419
0.4573115408420563,0.058546748012304306,0.1921183466911316,0.06628035008907318,0.0480266809463501,-0.13208717107772827
0.47650346159935,0.009119927883148193,0.013162682764232159,-0.09258488565683365,0.065754234790802,-0.18550649285316467
0.6712495684623718,0.15517012774944305,-0.14754322171211243,-0.07050900161266327,0.07338762283325195,-0.2491193413734436
0.717568576335907,0.10682547837495804,-0.02609088085591793,0.10495849698781967,0.028142213821411133,-0.20294934511184692
0.5969059467315674,0.06207358092069626,0.20167326927185059,0.16312238574028015,-0.0357593297958374,-0.10767078399658203
0.3620884120464325,0.10069053620100021,0.26009058952331543,0.03951609879732132,-0.031073331832885742,0.024020612239837646
0.3003934919834137,0.009514698758721352,0.003837688360363245,-0.21268220245838165,0.04898923635482788,-0.055770307779312134
0.39001086354255676,-0.15310470759868622,-0.2687927782535553,-0.13018672168254852,-0.007166028022766113,-0.21083912253379822
0.3671857714653015,-0.3196454644203186,-0.19038642942905426,0.1283641904592514,-0.10953640937805176,-0.24687829613685608
0.2617039382457733,-0.07588538527488708,0.06393874436616898,0.08003509044647217,-0.1457277536392212,-0.2135833501815796
0.19023601710796356,0.13071613013744354,0.0882723480463028,-0.09410137683153152,-0.13408660888671875,-0.21157550811767578
0.15791885554790497,0.21030154824256897,-0.06552796810865402,-0.18879657983779907,-0.20058685541152954,-0.19301703572273254
0.141017884016037,0.08303867280483246,-0.30216771364212036,-0.07073058933019638,-0.3420860767364502,-0.23970207571983337
0.17522162199020386,-0.008907817304134369,-0.24698083102703094,0.2597173750400543,-0.4474867582321167,-0.279977023601532
0.19335505366325378,-0.022903040051460266,0.03266964107751846,0.25265026092529297,-0.40413767099380493,-0.1565883457660675
0.007438048254698515,0.16320198774337769,0.09301550686359406,-0.021690480411052704,-0.42141032218933105,-0.0826779305934906
-0.06349541991949081,0.1620960682630539,0.07543101906776428,-0.03608597815036774,-0.49091947078704834,-0.17812737822532654
-0.10372760891914368,0.18611665070056915,0.05023081973195076,-0.015995554625988007,-0.49928659200668335,-0.21301400661468506
-0.14304111897945404,0.023796236142516136,0.09852911531925201,0.030901804566383362,-0.48468154668807983,-0.21900293231010437
-0.18736401200294495,-0.031960662454366684,0.12220820784568787,-0.04315321892499924,-0.5150668025016785,-0.22243747115135193
-0.21987928450107574,0.1546044796705246,0.12284626811742783,-0.12241098284721375,-0.513479471206665,-0.2766970694065094
-0.18928726017475128,0.34931063652038574,0.05907328054308891,-0.13599148392677307,-0.4857146143913269,-0.3369046747684479
-0.23179267346858978,0.29770517349243164,0.01675335317850113,-0.03980955481529236,-0.46993911266326904,-0.238290935754776
-0.3501937985420227,-0.044818781316280365,-0.017839111387729645,0.034467145800590515,-0.4245328903198242,-0.19694721698760986
-0.23112985491752625,-0.13513337075710297,-0.13577106595039368,-0.03300481289625168,-0.34791386127471924,-0.3272562026977539
-0.14045238494873047,-0.15103374421596527,-0.21827730536460876,-0.09191342443227768,-0.27095943689346313,-0.29779690504074097
-0.06751302629709244,0.010768904350697994,-0.16371189057826996,-0.10263463854789734,-0.19080084562301636,-0.28182658553123474
-0.0658208504319191,0.1878848373889923,-0.08253581076860428,-0.08387574553489685,-0.1621185541152954,-0.22691050171852112
-0.11269386857748032,0.1264943778514862,-0.05986718460917473,0.005809471011161804,-0.12287276983261108,-0.14674881100654602
-0.3269246816635132,-0.23026028275489807,-0.08974423259496689,0.01940203458070755,-0.07896661758422852,-0.020331114530563354
-0.3737105429172516,-0.3674412965774536,-0.11958906054496765,0.013027116656303406,-0.05326050519943237,-0.07545596361160278
-0.4850110709667206,-0.11615777760744095,0.004552651662379503,0.009943544864654541,-0.005124151706695557,-0.05872884392738342
-0.4249275326728821,-0.006186542101204395,0.09263450652360916,0.01915043592453003,0.0182378888130188,-0.18165281414985657
-0.305399090051651,-0.01233987882733345,0.018126580864191055,-0.020866401493549347,-0.006502270698547363,-0.16853117942810059
-0.2831166088581085,-0.16671310365200043,-0.1107383593916893,-0.04103589057922363,-0.009519398212432861,-0.10543382167816162
-0.3278813362121582,-0.22952263057231903,-0.0736069306731224,-0.01261717826128006,0.019409239292144775,-0.07943621277809143
-0.440305233001709,-0.09201788157224655,0.035377904772758484,-0.020388856530189514,0.05231213569641113,-0.05813324451446533
-0.45680245757102966,0.04029776528477669,0.09105245023965836,0.04719921201467514,0.05817073583602905,-0.11179953813552856
-0.4004555642604828,0.05666981637477875,0.05973854660987854,0.0020363181829452515,0.05817055702209473,-0.09780138731002808
-0.3652578294277191,-0.10160499066114426,0.03874603658914566,-0.01941026747226715,0.05862468481063843,-0.05931800603866577
-0.40600547194480896,-0.15210352838039398,0.05934825912117958,-0.009323090314865112,0.05452311038970947,-0.02354326844215393
-0.45304346084594727,-0.1109543889760971,0.07117921859025955,0.002183854579925537,0.032997727394104004,-0.02580505609512329
-0.4068748652935028,-0.11942344903945923,0.07019563764333725,-0.04734322428703308,0.06276220083236694,-0.0414007306098938
-0.42934179306030273,-0.11405052244663239,0.04193398356437683,-0.10152174532413483,0.06605470180511475,0.00177842378616333
-0.34374886751174927,-0.05707566440105438,-0.09809711575508118,-0.09899385273456573,0.07913029193878174,-0.022008121013641357
-0.16043713688850403,-0.017972752451896667,-0.22045813500881195,-0.03287125378847122,0.12064266204833984,-0.02765214443206787
-0.13668736815452576,-0.04769233241677284,-0.16241998970508575,0.06551344692707062,0.19153374433517456,0.09801268577575684
-0.24667559564113617,-0.11831797659397125,-0.02062584087252617,0.08520089834928513,0.23737412691116333,0.17546093463897705
-0.27154046297073364,-0.09791416674852371,-0.0327935554087162,0.028254948556423187,0.2729206681251526,0.11681696772575378
-0.19251832365989685,-0.0667666345834732,-0.2133728414773941,0.01985267549753189,0.24386066198349,0.11689341068267822
-0.09864514321088791,-0.04526033625006676,-0.24353812634944916,0.03189980983734131,0.2623382806777954,0.09413576126098633
-0.05225146561861038,-0.10880457609891891,-0.08916688710451126,0.07695322483778,0.2687617540359497,0.08184888958930969
-0.12154045701026917,-0.16130420565605164,0.06434864550828934,0.04454614967107773,0.285000205039978,0.09158441424369812
-0.03141248598694801,-0.009500624611973763,0.022523202002048492,-0.05735111981630325,0.27682220935821533,0.031692177057266235
0.14453095197677612,0.12728501856327057,-0.14159001410007477,-0.03009418398141861,0.22119396924972534,-0.010569632053375244
0.3039235770702362,0.03425631299614906,-0.12749509513378143,0.03576486557722092,0.22844409942626953,0.010894596576690674
0.35749098658561707,-0.09820950776338577,0.07136955857276917,0.05819854140281677,0.23352110385894775,0.06484892964363098
0.2705529034137726,0.00025504594668745995,0.19055867195129395,-0.01322772353887558,0.23632705211639404,0.10466751456260681
0.31296640634536743,0.11840534955263138,0.17011268436908722,-0.03885405510663986,0.22023648023605347,0.028734833002090454
0.3652578592300415,0.07234757393598557,0.03053755685687065,-0.015933580696582794,0.19249475002288818,0.02943482995033264
0.388370156288147,-0.16511866450309753,-0.020639857277274132,0.041602857410907745,0.1933215856552124,0.02047067880630493
0.2503354549407959,-0.19980579614639282,0.019568271934986115,0.037836574018001556,0.15221327543258667,0.1300395131111145
0.11571674793958664,-0.04310120642185211,0.07704518735408783,-0.03936406970024109,0.11603862047195435,0.128770112991333
0.05477946624159813,0.005823558196425438,0.030299123376607895,-0.03887315094470978,0.07809549570083618,0.08546322584152222
0.0010019447654485703,-0.05318520963191986,-0.09371060132980347,-0.03327307105064392,0.04698669910430908,0.07433605194091797
-0.08964861184358597,-0.061251141130924225,-0.14113359153270721,0.017877615988254547,0.02747136354446411,0.08587613701820374
-0.18178690969944,-0.006550491787493229,-0.13712860643863678,0.006907887756824493,0.011660337448120117,0.07644939422607422
-0.2204263061285019,0.07184167951345444,-0.07828237861394882,0.01523318886756897,0.0057373046875,0.03390654921531677
-0.16691404581069946,0.09927494823932648,-0.06763462722301483,0.0076383426785469055,0.0068708062171936035,-0.01528063416481018
-0.1252945512533188,0.0997280701994896,-0.04202639311552048,0.027381017804145813,0.004200935363769531,0.007765769958496094
-0.09303081780672073,0.05114118754863739,-0.018595648929476738,0.010289713740348816,-0.009204745292663574,0.014350473880767822
-0.09012462198734283,0.050075236707925797,0.037399791181087494,0.016117632389068604,-0.0049283504486083984,0.015049189329147339
-0.11791370809078217,0.04720909148454666,0.09878568351268768,0.012404821813106537,0.01731574535369873,0.02937808632850647
-0.10247790068387985,0.10855063796043396,0.1325736939907074,-0.020679466426372528,0.04910522699356079,0.05067339539527893
-0.09081322699785233,0.25119516253471375,0.12368045002222061,-0.029918178915977478,0.06793016195297241,0.06730350852012634
-0.09870513528585434,0.19487924873828888,0.11840036511421204,-0.029515735805034637,0.08616721630096436,0.11057767271995544
-0.2187388390302658,0.03905048966407776,0.08484913408756256,-0.04806841164827347,0.10121911764144897,0.14684361219406128
-0.19087538123130798,0.021284181624650955,0.0614071786403656,-0.05330889672040939,0.13011538982391357,0.044803112745285034
-0.13728390634059906,0.16751718521118164,0.04986540228128433,-0.044613368809223175,0.14798259735107422,0.046170949935913086
-0.009907934814691544,0.17600378394126892,0.021810241043567657,-0.01191895455121994,0.1580212116241455,0.00782737135887146
0.11359167844057083,0.1476941704750061,0.01081287581473589,-0.0033621492329984903,0.1601352095603943,0.05182024836540222
-0.0010661077685654163,0.0664268359541893,0.05658205971121788,0.012243159115314484,0.15770822763442993,0.15262341499328613
-0.09108324348926544,-0.014179819263517857,0.134147047996521,0.0363258421421051,0.1734001636505127,0.11318972706794739
-0.06288416683673859,-0.052640169858932495,0.1807297170162201,0.025321029126644135,0.20137524604797363,0.014307022094726562
0.15461671352386475,-0.07215341180562973,0.10402238368988037,-0.02527254819869995,0.222065269947052,-0.04711708426475525
0.3514562249183655,-0.021345941349864006,0.017776744440197945,-0.03709349036216736,0.22695308923721313,-0.031013667583465576
0.3129573464393616,-0.01998608373105526,0.007923325523734093,-0.05118855834007263,0.23499876260757446,0.09496739506721497
0.19140109419822693,-0.07104500383138657,0.08596532046794891,0.006051987409591675,0.2272159457206726,0.18508636951446533
0.22950959205627441,-0.18910479545593262,0.17495541274547577,0.052547164261341095,0.20887678861618042,0.12130171060562134
0.45150452852249146,-0.04280516132712364,0.07825843244791031,0.018288247287273407,0.20946770906448364,-0.02911919355392456
0.6150463819503784,0.15176038444042206,-0.0338020958006382,-0.007440648972988129,0.23099231719970703,-0.023917794227600098
0.5012485980987549,-0.014889165759086609,-0.041516829282045364,0.008676283061504364,0.25327277183532715,0.04080486297607422
0.3101074993610382,-0.03891982138156891,0.09633220732212067,0.11277106404304504,0.22482359409332275,0.09844061732292175
0.2771456241607666,0.22174835205078125,0.1723756641149521,0.05993184447288513,0.1730024814605713,0.014851659536361694
0.4267997145652771,0.26040583848953247,0.23039557039737701,0.06939852982759476,0.1257193684577942,-0.07219481468200684
0.5704293847084045,0.14018522202968597,0.2390960156917572,0.050706036388874054,0.11302858591079712,-0.14138144254684448
0.5435984134674072,-0.06083407253026962,0.23763146996498108,0.05543114244937897,0.09988045692443848,-0.09537696838378906
0.4261704683303833,-0.13777956366539001,0.26987555623054504,0.049233242869377136,0.07921361923217773,-0.055299848318099976
0.4063377380371094,-0.058081161230802536,0.25291451811790466,-0.011176962405443192,0.058990657329559326,-0.053696125745773315
0.5552580952644348,-0.03564924746751785,0.1595594435930252,-0.07204461097717285,0.04315716028213501,-0.1252756416797638
0.6394816637039185,-0.06952087581157684,0.1047949343919754,-0.08284502476453781,0.036806702613830566,-0.12828654050827026
0.6596793532371521,-0.11281322687864304,0.10591471940279007,-0.0790628045797348,0.055148959159851074,-0.09505036473274231
0.5194125175476074,-0.07552716135978699,0.10125197470188141,-0.03801325708627701,0.04836934804916382,-0.022979557514190674
0.411643922328949,-0.014199054799973965,0.050202127546072006,-0.008060716092586517,0.01695716381072998,-0.011868476867675781
0.3501523733139038,-0.04979303851723671,-0.04538669437170029,-0.06535697728395462,-0.007161557674407959,-0.08753415942192078
0.3031879961490631,-0.16862627863883972,-0.13237127661705017,-0.061321601271629333,-0.04009157419204712,-0.10957235097885132
0.3260762691497803,-0.11819739639759064,-0.18149009346961975,-0.07500922679901123,-0.07936561107635498,-0.19011303782463074
0.36348727345466614,0.01760459505021572,-0.12505753338336945,-0.0374530665576458,-0.15294820070266724,-0.23811599612236023
0.4279136061668396,0.012999141588807106,-0.18074104189872742,-0.05730093643069267,-0.21910351514816284,-0.28598228096961975
0.3278889060020447,-0.13501518964767456,-0.22917532920837402,-0.025782126933336258,-0.28815245628356934,-0.1269555389881134
0.1738506704568863,-0.0876588225364685,-0.23381076753139496,-0.04001287370920181,-0.3549877405166626,-0.10837644338607788
0.1485632061958313,0.021755341440439224,-0.07287335395812988,0.02476794645190239,-0.3903406262397766,-0.19798359274864197
0.17509694397449493,0.08564207702875137,0.034615807235240936,-0.04238632693886757,-0.36744624376296997,-0.20848825573921204
0.062216032296419144,0.1229647845029831,0.03208860009908676,-0.005756467580795288,-0.3757457137107849,-0.11983662843704224
-0.0639023706316948,0.09497320652008057,-0.002136279596015811,-0.03549595922231674,-0.39713621139526367,-0.14531612396240234
-0.2665354013442993,0.03946089372038841,0.04573388025164604,-0.008925303816795349,-0.41717618703842163,-0.13004863262176514
-0.49866607785224915,0.11148401349782944,0.06883034110069275,0.0038154907524585724,-0.4257655739784241,-0.1171286404132843
-0.6526733040809631,0.10565933585166931,0.09369274973869324,0.010079793632030487,-0.41696804761886597,-0.18469536304473877
-0.7377238273620605,0.012391352094709873,0.06283219903707504,-0.054273057729005814,-0.42885804176330566,-0.2010771930217743
-0.7218060493469238,-0.08361667394638062,-0.06637303531169891,-0.11247602105140686,-0.47120189666748047,-0.24807485938072205
-0.6624408960342407,-0.07096222788095474,-0.17730006575584412,-0.09156744182109833,-0.4938206076622009,-0.27599895000457764
-0.6415349245071411,0.02372043952345848,-0.11492037028074265,-0.004521921277046204,-0.47371387481689453,-0.26792848110198975
-0.6131221652030945,0.05693787336349487,0.012556876987218857,-0.016225308179855347,-0.4057415723800659,-0.3408128023147583
-0.532743513584137,0.07915280759334564,-0.015732616186141968,-0.086139976978302,-0.3242764472961426,-0.38008710741996765
-0.37045127153396606,0.026698388159275055,-0.11567971855401993,-0.0958407074213028,-0.2649051547050476,-0.39564046263694763
-0.23102296888828278,-0.033459652215242386,-0.21160422265529633,-0.0406453013420105,-0.2412329912185669,-0.330030620098114
-0.18899595737457275,-0.12373314797878265,-0.2019377499818802,0.006452934816479683,-0.17987066507339478,-0.23036137223243713
-0.13079343736171722,-0.16449107229709625,-0.0921982154250145,0.015882588922977448,-0.10943567752838135,-0.19663375616073608
-0.11317382007837296,-0.05128711834549904,-0.07155093550682068,-0.049429550766944885,-0.042547523975372314,-0.15181690454483032
-0.12094759196043015,-0.09435176104307175,-0.15937483310699463,-0.011314593255519867,-0.03370755910873413,-0.12051481008529663
-0.22098779678344727,-0.22125446796417236,-0.21356201171875,0.03035935014486313,-0.06165122985839844,-0.06638801097869873
-0.28376802802085876,-0.23937585949897766,-0.13231979310512543,-0.005305051803588867,-0.029234647750854492,-0.09152644872665405
-0.28003767132759094,-0.18371839821338654,0.037481702864170074,-0.0026291674003005028,0.00030535459518432617,-0.11795461177825928
-0.36187049746513367,-0.15533336997032166,0.13232481479644775,0.0032590478658676147,0.023796498775482178,-0.06474804878234863
-0.40691113471984863,-0.13279075920581818,0.08755992352962494,0.026168005540966988,0.03197115659713745,-0.08326461911201477
-0.44711440801620483,-0.2166367918252945,0.0017820943612605333,0.03465922921895981,0.06548094749450684,-0.06762754917144775
-0.4933820068836212,-0.38320955634117126,0.028679778799414635,0.026511430740356445,0.08031988143920898,-0.06779229640960693
-0.4957239627838135,-0.23247751593589783,0.14815089106559753,-0.03694867342710495,0.0867236852645874,-0.07900360226631165
-0.43889328837394714,-0.0569918192923069,0.19202041625976562,-0.07187706232070923,0.1167217493057251,-0.09369224309921265
-0.34347349405288696,-0.08144038915634155,0.07733222842216492,-0.09791411459445953,0.14271390438079834,-0.1106255054473877
-0.3097924590110779,-0.15886755287647247,-0.037398308515548706,-0.0058527737855911255,0.15081548690795898,-0.05724865198135376
-0.33962658047676086,-0.12224294245243073,-0.008829936385154724,0.03762628883123398,0.18848663568496704,0.01725149154663086
-0.4082798361778259,-0.08572530746459961,0.10509410500526428,0.05315691605210304,0.20079290866851807,0.05802714824676514
-0.3519243896007538,-0.049168363213539124,0.10971483588218689,-0.007929082959890366,0.19103169441223145,0.043941348791122437
-0.2256499081850052,-0.05990315228700638,-0.09146340936422348,-0.05189041793346405,0.17358899116516113,0.016188472509384155
-0.14838264882564545,-0.06292514503002167,-0.2221909612417221,-0.015155009925365448,0.19519543647766113,0.03307467699050903
-0.12083085626363754,-0.05151285231113434,-0.112684465944767,0.04028156027197838,0.22007310390472412,0.06316551566123962
-0.27047064900398254,0.03441191464662552,0.055255912244319916,0.04202572628855705,0.22516435384750366,0.16410565376281738
-0.3467342257499695,-0.05275656282901764,0.14993993937969208,0.0470205694437027,0.23288393020629883,0.17236736416816711
-0.23840948939323425,-0.06659764051437378,0.05156468600034714,-0.019480139017105103,0.23585575819015503,0.09598338603973389
-0.08376462757587433,-0.0891115739941597,-0.02248627506196499,0.001197580248117447,0.25313711166381836,0.009440839290618896
0.18887999653816223,-0.009191649034619331,-0.043732818216085434,0.0010178722441196442,0.26511484384536743,-0.051256150007247925
0.3070105314254761,0.1282142996788025,-0.011478868313133717,0.010287176817655563,0.2629021406173706,0.03804737329483032
0.2895020842552185,0.03091917559504509,-0.024962451308965683,0.0036583133041858673,0.24409866333007812,0.10827165842056274
0.2951330244541168,-0.08981901407241821,-0.1239226758480072,-0.05290417745709419,0.2395855188369751,0.12469866871833801
0.3104148209095001,-0.10970985144376755,-0.14585548639297485,-0.013285346329212189,0.22004252672195435,0.10578107833862305
0.3756767213344574,-0.010550444945693016,-0.09514648467302322,-0.01268484815955162,0.19520747661590576,0.10057434439659119
0.2781055271625519,0.05648133158683777,-0.04312118515372276,0.037037137895822525,0.1244310736656189,0.13892605900764465
0.09550733864307404,0.07776950299739838,-0.03169811889529228,0.0061578042805194855,0.09972268342971802,0.1539631187915802
-0.052373211830854416,0.056408025324344635,-0.07308821380138397,0.012128755450248718,0.06970655918121338,0.10323929786682129
-0.1364995837211609,0.07680671662092209,-0.0910244882106781,0.020658137276768684,0.051896631717681885,0.056752294301986694
-0.11576355993747711,-0.004338308237493038,-0.08637865632772446,0.018698692321777344,0.03293931484222412,-0.04185676574707031
-0.032605890184640884,0.06899705529212952,-0.06340038776397705,-0.004269227385520935,0.00996863842010498,-0.049375057220458984
-0.009594472125172615,0.05555831640958786,-0.055118054151535034,-0.017661958932876587,-0.006748080253601074,-0.028719723224639893
0.038102518767118454,-0.026528507471084595,-0.08199718594551086,-0.046912387013435364,-0.024159371852874756,-0.028440535068511963
0.04285738244652748,-0.07207304239273071,-0.13795502483844757,-0.07864197343587875,-0.025393187999725342,0.010422199964523315
0.07172739505767822,-0.10112466663122177,-0.1448989063501358,-0.049171678721904755,-0.013874650001525879,0.01168927550315857
0.08933917433023453,-0.007197046186774969,-0.09369498491287231,-0.0112284105271101,-0.006065964698791504,0.07891428470611572
0.04157918319106102,-0.03434579819440842,-0.03704497590661049,0.01242772489786148,0.0014861822128295898,0.1381007432937622
0.003911939915269613,-0.046036798506975174,-0.038282666355371475,0.00808454304933548,0.013360857963562012,0.1622028946876526
-0.0823628380894661,-0.04264324903488159,-0.07361407577991486,0.0037472769618034363,0.03714632987976074,0.18073302507400513
-0.14976902306079865,-0.05638669431209564,-0.11730816960334778,0.016789063811302185,0.05633044242858887,0.16041219234466553
-0.16765421628952026,-0.026360303163528442,-0.05449378117918968,0.053020358085632324,0.06106925010681152,0.11674097180366516
-0.10159023851156235,0.1327582448720932,0.012204781174659729,0.03715796023607254,0.061260104179382324,0.07098925113677979
-0.07601793855428696,0.16908973455429077,0.01255911123007536,0.013985425233840942,0.07178354263305664,0.08026200532913208
-0.16002538800239563,0.04598574340343475,-0.07783430814743042,-0.03729086369276047,0.10107928514480591,0.08499979972839355
-0.09981034696102142,-0.10430613160133362,-0.16500525176525116,-0.05232468247413635,0.1301400065422058,-0.024954259395599365
0.12028344720602036,0.014492749236524105,-0.18454547226428986,-0.038056448101997375,0.1637263298034668,-0.0651734471321106
0.36677175760269165,0.20152756571769714,-0.08306826651096344,0.007656000088900328,0.1930413842201233,-0.006135225296020508
0.45391079783439636,0.17972619831562042,-0.015378936193883419,0.009822607040405273,0.21216464042663574,0.09130027890205383
0.39452916383743286,0.0286986343562603,-0.04045524075627327,-0.010105021297931671,0.21974456310272217,0.15481147170066833
0.3772309720516205,0.0002170288935303688,-0.0992095023393631,-0.008895725011825562,0.23201489448547363,0.1017497181892395
0.41540151834487915,-0.005009224638342857,-0.1014617383480072,0.02336978167295456,0.2561710476875305,0.07353594899177551
0.5269300937652588,-0.06634154170751572,0.025956545025110245,0.04602206498384476,0.3081165552139282,0.051260292530059814
0.5391260385513306,0.014699941501021385,0.07950513064861298,-0.02245604246854782,0.2981208562850952,0.07121354341506958
0.47616785764694214,0.011157725006341934,0.02231554128229618,-0.05391715466976166,0.27237820625305176,0.08952900767326355
0.30197393894195557,-0.12192124128341675,-0.05095532163977623,-0.04803901165723801,0.25189441442489624,0.14596816897392273
0.3577905297279358,-0.03835822641849518,-0.08857616782188416,-0.017831459641456604,0.24212664365768433,0.014260083436965942
0.48857662081718445,0.09144455939531326,-0.033419810235500336,0.02670186758041382,0.23848235607147217,-0.05208992958068848
0.5087160468101501,0.10725345462560654,0.061115652322769165,0.058634474873542786,0.19863754510879517,-0.027360916137695312
0.464436799287796,0.013238593935966492,0.08560685068368912,0.019418366253376007,0.1478961706161499,-0.010568827390670776
0.3794044852256775,-0.07578342407941818,0.07451558858156204,0.030857540667057037,0.1361902952194214,0.011770874261856079
0.3281702399253845,0.06163324415683746,0.05404362455010414,0.04571980983018875,0.10924786329269409,-0.0065573155879974365
0.36842650175094604,0.15959352254867554,0.09117404371500015,0.09406004101037979,0.09090673923492432,-0.15556815266609192
0.622590959072113,-0.008540772832930088,0.195943683385849,0.05903581529855728,0.11287271976470947,-0.23272326588630676
0.6976370811462402,-0.08291245251893997,0.16385003924369812,-0.05761607736349106,0.09189677238464355,-0.09422814846038818
0.5340869426727295,-0.03932318836450577,0.056840550154447556,-0.08215358108282089,0.07379382848739624,0.011177271604537964
0.32554948329925537,0.0813063532114029,0.07380759716033936,-0.01596701890230179,0.06969976425170898,-0.012335151433944702
0.18271934986114502,0.0861988365650177,0.21890756487846375,0.06149943172931671,0.04115360975265503,-0.10214939713478088
0.2438877373933792,0.054573904722929,0.3275086581707001,-0.009463263675570488,0.009953916072845459,-0.23619064688682556
0.3410455584526062,-0.08448748290538788,0.20127595961093903,-0.08572369068861008,-0.019139587879180908,-0.27091965079307556
0.3558819591999054,-0.06106748804450035,0.006656278856098652,-0.10354922711849213,-0.08409357070922852,-0.19664138555526733
0.14540722966194153,-0.06878647208213806,-0.040180619806051254,-0.010904502123594284,-0.13906627893447876,-0.1674078106880188
0.1712542027235031,-0.06568524241447449,0.0799393355846405,0.06861871480941772,-0.18350273370742798,-0.2659836411476135
0.2545039653778076,-0.10842876136302948,0.06041291356086731,-0.02949363738298416,-0.21326404809951782,-0.2408076524734497
0.2686820328235626,-0.2687245309352875,-0.030517086386680603,-0.0606827586889267,-0.23388046026229858,-0.16598579287528992
0.2062871903181076,-0.26941052079200745,-0.0946919396519661,-0.018936168402433395,-0.2748732566833496,-0.09204420447349548
0.07205336540937424,-0.05407434329390526,0.017946777865290642,0.05068059638142586,-0.30225473642349243,-0.028482526540756226
0.00332514476031065,0.09480569511651993,0.07696203887462616,0.005191417410969734,-0.3337605595588684,-0.07751938700675964
-0.01968102902173996,0.02657581865787506,0.05612684786319733,-0.0690758228302002,-0.35353362560272217,-0.10106644034385681
-0.030008826404809952,0.11994805932044983,-0.002170251216739416,-0.05733974650502205,-0.3961915969848633,-0.1686897575855255
-0.07616470009088516,0.21769048273563385,0.058350756764411926,0.02540832944214344,-0.4504174590110779,-0.22630807757377625
-0.18515029549598694,0.151763916015625,0.13941822946071625,-0.008294478058815002,-0.4706689715385437,-0.28383469581604004
-0.08321098238229752,0.015324028208851814,0.017666887491941452,-0.12569257616996765,-0.4730952978134155,-0.3936860263347626
-0.01941150613129139,-0.005658293608576059,-0.10238578170537949,-0.13047000765800476,-0.4958087205886841,-0.33222171664237976
-0.03897535428404808,-0.014934083446860313,-0.07998619973659515,-0.05160647630691528,-0.516776978969574,-0.25745636224746704
-0.14026233553886414,-0.007987739518284798,-0.06479276716709137,-0.046881046146154404,-0.5210469365119934,-0.21973559260368347
-0.17119362950325012,-0.05686534568667412,-0.05222480744123459,-0.05263881757855415,-0.4641287922859192,-0.20755746960639954
-0.23592285811901093,-0.08330651372671127,-0.12308742851018906,-0.12166165560483932,-0.4114192724227905,-0.19959133863449097
-0.26789939403533936,-0.020475411787629128,-0.1983310580253601,-0.11007216572761536,-0.3535577654838562,-0.21085527539253235
-0.3033171594142914,0.08344904333353043,-0.15919430553913116,-0.00534605048596859,-0.29835182428359985,-0.21471408009529114
-0.30489856004714966,0.07910223305225372,-0.07768426090478897,0.0015674158930778503,-0.20768076181411743,-0.22772151231765747
-0.29281672835350037,0.015876512974500656,-0.08090390264987946,-0.045945532619953156,-0.11845511198043823,-0.2563048303127289
-0.26701676845550537,-0.1172759085893631,-0.12215256690979004,-0.025675281882286072,-0.06504273414611816,-0.24590855836868286
-0.28722089529037476,-0.1914965808391571,-0.08249742537736893,0.029817990958690643,-0.04599696397781372,-0.18296825885772705
-0.2606081962585449,-0.017824983224272728,0.03027157671749592,0.08365000784397125,-0.049292922019958496,-0.17202851176261902
-0.29581451416015625,0.07728412002325058,0.06218962371349335,0.015656515955924988,-0.03955262899398804,-0.08317214250564575
-0.3342714309692383,-0.03409205377101898,0.025253089144825935,-0.023136720061302185,-0.006133079528808594,-0.09451991319656372
-0.3937855064868927,-0.18554185330867767,-0.020770804956555367,-0.04024990648031235,0.026809632778167725,-0.05279219150543213
-0.39849036931991577,-0.1844320297241211,-0.041901975870132446,0.001238115131855011,0.03951454162597656,-0.060051679611206055
-0.38251498341560364,-0.13376684486865997,0.029488766565918922,0.05073636770248413,0.05399644374847412,-0.06106048822402954
-0.45392540097236633,-0.10351427644491196,0.08239999413490295,-0.009027650579810143,0.06612259149551392,-0.02157023549079895
-0.48435840010643005,-0.04414995387196541,0.061154939234256744,-0.05766214430332184,0.04463851451873779,-0.05944859981536865
-0.5735231041908264,0.025825459510087967,0.09074186533689499,-0.028755581006407738,0.05379742383956909,-0.05437168478965759
-0.4938448369503021,0.07401974499225616,0.04034104943275452,-0.04561615735292435,0.06990581750869751,-0.14745333790779114
-0.42503249645233154,0.05682505667209625,0.035946257412433624,0.007448066025972366,0.11471754312515259,-0.12219411134719849
-0.3699018955230713,0.017782600596547127,0.11662103980779648,0.014660194516181946,0.1596546173095703,-0.12256121635437012
-0.39924511313438416,0.06400467455387115,0.20346520841121674,-0.0057632047683000565,0.1660342812538147,-0.040671199560165405
-0.5068319439888,0.008797522634267807,0.09867037087678909,-0.08538447320461273,0.14977800846099854,0.007981419563293457
-0.3760407567024231,-0.04822704568505287,-0.15253213047981262,-0.105873703956604,0.11418020725250244,-0.04296049475669861
-0.3163022994995117,-0.003822589758783579,-0.22500406205654144,-0.06308571994304657,0.13711273670196533,0.02049010992050171
-0.37630677223205566,-0.015407850965857506,-0.13085022568702698,0.03044392354786396,0.13608312606811523,0.08778628706932068
-0.39930081367492676,0.0017423850949853659,-0.0482848584651947,-0.005305036902427673,0.18330007791519165,0.08811497688293457
-0.3802010416984558,-0.17030446231365204,-0.06340134888887405,0.03417304530739784,0.2145259976387024,0.08202940225601196
-0.24843834340572357,-0.2194334864616394,-0.18266378343105316,-0.005990723147988319,0.20227527618408203,0.108050137758255
-0.2916288673877716,-0.17756228148937225,-0.1923311948776245,0.020942043513059616,0.18749886751174927,0.2513173818588257
-0.4979787766933441,-0.1095845103263855,-0.005555444397032261,0.06586790829896927,0.1930585503578186,0.2671467065811157
-0.45764270424842834,-0.012994593009352684,0.18746857345104218,0.05454978719353676,0.2071157693862915,0.08614271879196167
-0.34123384952545166,0.01587519608438015,0.14790119230747223,-0.02566322311758995,0.23018932342529297,0.012483596801757812
-0.11280937492847443,-0.009949169121682644,-0.0824747085571289,-0.020087458193302155,0.22256088256835938,-0.040186285972595215
0.034203361719846725,-0.061976585537195206,-0.1558038294315338,0.02896421030163765,0.22114241123199463,0.03443247079849243
0.061708223074674606,-0.006044348236173391,-0.11021184176206589,0.04938163608312607,0.23955613374710083,0.092212975025177
0.12310734391212463,0.11081591248512268,0.006748620420694351,0.03513102978467941,0.24412518739700317,0.08305665850639343
0.21701228618621826,0.16923469305038452,-4.94916457682848e-05,-0.05045585706830025,0.23836380243301392,0.07325118780136108
0.2770814001560211,0.11478104442358017,-0.17266052961349487,-0.0750664696097374,0.17194592952728271,0.07135820388793945
0.2774158716201782,-0.021953091025352478,-0.24826215207576752,-0.001364249736070633,0.11691606044769287,0.09385436773300171
0.12467094510793686,-0.001549731008708477,-0.21381333470344543,0.01060226559638977,0.0934901237487793,0.17461389303207397
-0.03128916397690773,0.0019711963832378387,-0.07285570353269577,0.04855162650346756,0.0633198618888855,0.15524503588676453
-0.1372458040714264,0.02783837541937828,-0.03721265494823456,-0.030175507068634033,0.034515321254730225,0.10350045561790466
-0.1717761904001236,0.01955343410372734,-0.19270063936710358,-0.05279366672039032,-0.0045490264892578125,0.047332167625427246
-0.1971934586763382,-0.06467493623495102,-0.2600458562374115,0.011409655213356018,-0.01724034547805786,0.00720977783203125
-0.2370973378419876,-0.07318951189517975,-0.14902855455875397,0.07249722629785538,-0.011185705661773682,0.008295834064483643
-0.22310392558574677,0.0020116197410970926,-0.007399662397801876,0.0434022918343544,-0.011959433555603027,-0.030134260654449463
-0.09655903279781342,0.07741742581129074,0.02005699649453163,0.007272310554981232,-0.022327423095703125,-0.0715678334236145
-0.06317974627017975,0.15172091126441956,-0.07414313405752182,-0.005125097930431366,-0.039037883281707764,-0.012104630470275879
-0.06544343382120132,0.026007743552327156,-0.0988253653049469,0.06688407063484192,-0.03054147958755493,0.03172120451927185
-0.08427944034337997,-0.04984016343951225,0.005676594562828541,0.11279886960983276,-0.010003805160522461,0.037050724029541016
-0.10957711935043335,0.055834002792835236,0.11814888566732407,0.0826796442270279,-0.002486109733581543,0.035744696855545044
-0.11294581741094589,0.15811587870121002,0.14216764271259308,-0.01165980938822031,0.009398281574249268,0.053914874792099
-0.08870851993560791,0.22966589033603668,0.08576026558876038,-0.0321970134973526,0.018577277660369873,0.06690248847007751
-0.09733667224645615,0.20330211520195007,0.0679243877530098,-0.0039956653490662575,0.04428297281265259,0.10310700535774231
-0.14369352161884308,0.07113555818796158,0.08745627105236053,0.019569717347621918,0.08318781852722168,0.1255183219909668
-0.07814624160528183,0.03795943409204483,0.12660245597362518,0.01792994886636734,0.13413280248641968,0.07419133186340332
0.026393787935376167,0.1370173692703247,0.08899851143360138,-0.05737607181072235,0.17822551727294922,0.060741931200027466
0.10513553023338318,0.19169823825359344,0.04243258386850357,-0.06037735193967819,0.19860047101974487,0.07213550806045532
0.16467566788196564,0.14178617298603058,0.035098135471343994,-0.013002836145460606,0.2062891125679016,0.07481822371482849
0.21950142085552216,0.03962364420294762,0.06795166432857513,0.035083599388599396,0.20312678813934326,0.08722007274627686
0.18935705721378326,-0.06500590592622757,0.10076165944337845,0.02785768359899521,0.2232113480567932,0.1349094808101654
0.17537859082221985,-0.14739109575748444,0.0629788488149643,-0.02938414365053177,0.2474847435951233,0.11511349678039551
0.23020656406879425,-0.056269265711307526,0.015759186819195747,-0.06041046231985092,0.26150864362716675,0.10784080624580383
0.25895819067955017,0.03827514871954918,-0.0048062363639473915,-0.03117663413286209,0.27019423246383667,0.10979527235031128
0.3058760464191437,-0.07897966355085373,0.04591184854507446,-0.005787842907011509,0.29456406831741333,0.06144896149635315
0.37325429916381836,-0.07404293864965439,0.07581879198551178,-0.04526350647211075,0.27417880296707153,0.05933907628059387
0.2552245259284973,-0.059163641184568405,0.1089954599738121,-0.027808576822280884,0.2433871030807495,0.1664964258670807
0.16187644004821777,0.004996330942958593,0.10443234443664551,-0.024485960602760315,0.21101081371307373,0.12948894500732422
0.184199258685112,0.07106480002403259,0.04192207008600235,-0.018106773495674133,0.21197164058685303,0.08839014172554016
0.28732621669769287,0.004625940229743719,0.025686750188469887,-0.002659939229488373,0.2141140103340149,-0.005946516990661621
0.395097017288208,-0.03609476238489151,0.10499589890241623,0.041998013854026794,0.2139216661453247,-0.06590282917022705
0.39206114411354065,-0.019932687282562256,0.16122575104236603,0.029492847621440887,0.17254018783569336,-0.05079144239425659
0.3567354381084442,0.01773618534207344,0.17361684143543243,0.015343330800533295,0.09345078468322754,-0.03810250759124756
0.3450712561607361,-0.04736676812171936,0.06434562057256699,-0.05441860854625702,0.07839196920394897,-0.039532244205474854
0.6209307312965393,0.1737126111984253,-0.0997178852558136,-0.12324923276901245,0.08842533826828003,-0.1929781436920166
0.792068362236023,0.21984891593456268,-0.12332335859537125,-0.03545615077018738,0.06272053718566895,-0.229527086019516
0.8429542183876038,0.14909939467906952,-0.011919116601347923,0.07797085493803024,0.01607614755630493,-0.21040481328964233
0.7712821364402771,0.026697752997279167,-0.020315058529376984,0.006708495318889618,-0.010059177875518799,-0.129502534866333
0.6573156118392944,-0.006564903073012829,-0.13586606085300446,-0.10323252528905869,-0.003705263137817383,-0.1042136549949646
0.6217034459114075,0.11759327352046967,-0.21369147300720215,-0.12484776973724365,-0.0042098164558410645,-0.11080530285835266
0.7612150311470032,0.19468970596790314,-0.1647154837846756,-0.038996800780296326,-0.04506880044937134,-0.22101661562919617
0.7672598958015442,0.0016643337439745665,-0.14122213423252106,0.036890119314193726,-0.09133541584014893,-0.25987115502357483
0.6338209509849548,-0.2195039987564087,-0.18078677356243134,-0.032375022768974304,-0.10086417198181152,-0.17990458011627197
0.593979001045227,-0.19223536550998688,-0.27438750863075256,-0.10049784928560257,-0.10174846649169922,-0.19739392399787903
0.5634801983833313,-0.038226447999477386,-0.231593057513237,-0.016190722584724426,-0.167205810546875,-0.21140766143798828
0.5680816769599915,0.049128904938697815,-0.13753218948841095,0.03700241819024086,-0.2318035364151001,-0.22791317105293274
0.45929083228111267,-0.034460969269275665,-0.009341524913907051,0.06462223827838898,-0.24679481983184814,-0.15072795748710632
0.26883286237716675,-0.16959500312805176,0.05568988621234894,0.03269859775900841,-0.23805952072143555,-0.09541317820549011
0.2003430724143982,-0.1049075797200203,0.05962841212749481,0.028938647359609604,-0.2882850170135498,-0.1600322425365448
0.11415962874889374,0.08544733375310898,0.09017501771450043,-0.006933808326721191,-0.34370899200439453,-0.22957050800323486
0.013875501230359077,0.09262076765298843,0.08074498921632767,-0.052438318729400635,-0.38607215881347656,-0.2356141060590744
0.07095630466938019,-0.09148494154214859,0.005515505559742451,-0.035960420966148376,-0.4067860245704651,-0.3080783784389496
0.11920736730098724,-0.15074625611305237,-0.05442380905151367,-0.02351565659046173,-0.44292062520980835,-0.3125125765800476
0.08517109602689743,0.07754497975111008,-0.10869400948286057,-0.060481756925582886,-0.4902627468109131,-0.20779334008693695
-0.025208428502082825,0.180531308054924,-0.07976950705051422,-0.06389840692281723,-0.4954732656478882,-0.1422877311706543
-0.1785079389810562,0.2351151406764984,0.006271279416978359,-0.01150265708565712,-0.4505619406700134,-0.059634238481521606
-0.26869991421699524,0.130066379904747,0.021372642368078232,-0.007141776382923126,-0.40302902460098267,-0.07813751697540283
-0.23660112917423248,0.09047722071409225,-0.037588831037282944,0.014439709484577179,-0.3778423070907593,-0.16000068187713623
-0.20127083361148834,0.053163789212703705,-0.07747231423854828,0.080201655626297,-0.34234023094177246,-0.21186962723731995
-0.2977698743343353,0.08801332116127014,-0.05658390000462532,0.04231305047869682,-0.2795342803001404,-0.1368255913257599
-0.3346705734729767,0.18727679550647736,-0.02613137662410736,-0.027803517878055573,-0.2063044309616089,-0.1635758876800537
-0.39784979820251465,0.18852250277996063,0.13475540280342102,0.005983427166938782,-0.16634029150009155,-0.1653151512145996
-0.3894483149051666,0.18279321491718292,0.1423216015100479,-0.008592352271080017,-0.12311303615570068,-0.23312479257583618
-0.34707191586494446,-0.0497184582054615,0.1643408089876175,0.0708431527018547,-0.091094970703125,-0.2122025489807129
-0.367505818605423,-0.09574025124311447,0.20019085705280304,0.0772450640797615,-0.03666716814041138,-0.1759887933731079
-0.4169587194919586,-0.028249474242329597,0.26337581872940063,0.007504276931285858,0.004751026630401611,-0.14164859056472778
-0.4811464250087738,0.050180692225694656,0.2770102918148041,-0.031225986778736115,-0.027636170387268066,-0.10360515117645264
-0.5055229067802429,0.06062525510787964,0.17290669679641724,-0.06424742192029953,-0.06347239017486572,-0.08206573128700256
-0.47222986817359924,0.00937686488032341,0.071966752409935,-0.06077369302511215,-0.07663500308990479,-0.10585600137710571
-0.48674333095550537,0.05999228358268738,0.053501397371292114,-0.0826541930437088,-0.045465290546417236,-0.09842970967292786
-0.6402220726013184,0.01811814121901989,0.1496214121580124,-0.04058276116847992,-0.011276841163635254,-0.05623766779899597
-0.5722910165786743,-0.07037509232759476,0.21456247568130493,0.0402812585234642,-0.012588679790496826,-0.1243261992931366
-0.4012659788131714,-0.06396880745887756,0.20492155849933624,0.06761908531188965,0.0014241933822631836,-0.23170197010040283
-0.36319229006767273,0.142508864402771,0.1462378054857254,0.016490839421749115,0.012734591960906982,-0.1946299970149994
-0.5165382623672485,0.09514521807432175,0.14444829523563385,-0.012409783899784088,0.020444869995117188,-0.10180044174194336
-0.5468165278434753,0.049682147800922394,0.17033658921718597,0.014726787805557251,0.05037111043930054,-0.08488041162490845
-0.5435535907745361,0.0574578233063221,0.20498400926589966,0.0448165088891983,0.04874163866043091,-0.09944009780883789
-0.49020323157310486,0.05884608253836632,0.19893798232078552,0.007772758603096008,0.08011221885681152,-0.06784909963607788
-0.5911670327186584,0.06767941266298294,0.17904415726661682,-0.030868157744407654,0.09105521440505981,-0.022337138652801514
-0.6673873066902161,0.12072418630123138,0.22025614976882935,-0.06510400772094727,0.09314471483230591,0.0010002851486206055
-0.6137106418609619,0.14927203953266144,0.22879233956336975,-0.03731131553649902,0.09443497657775879,-0.06889605522155762
-0.5022301077842712,0.09692612290382385,0.23993512988090515,0.01459176279604435,0.09889745712280273,-0.0834176242351532
-0.45912474393844604,0.049359165132045746,0.24293184280395508,0.0033195316791534424,0.1439315676689148,-0.042851388454437256
-0.4522305727005005,0.004706700332462788,0.2497478574514389,-0.0022476986050605774,0.17168736457824707,-0.006749749183654785
-0.4236314594745636,-0.029302161186933517,0.241102933883667,-0.005270909518003464,0.19188344478607178,0.0064054131507873535
-0.37391039729118347,-0.007248155307024717,0.21593278646469116,0.018830396234989166,0.18396717309951782,0.02215743064880371
-0.2556920051574707,-0.04919520765542984,0.21939854323863983,0.057563941925764084,0.17616254091262817,0.018510788679122925
-0.10998959094285965,-0.1244901567697525,0.1888360232114792,0.021728109568357468,0.1918736696243286,0.0397927463054657
-0.0015904437750577927,0.05159581080079079,0.18292690813541412,-0.02013569325208664,0.22901654243469238,0.0775572657585144
0.14309340715408325,0.1440352201461792,0.14349012076854706,-0.049535710364580154,0.25957173109054565,0.07944145798683167
0.2931864261627197,0.13496631383895874,0.046780653297901154,-0.03164248913526535,0.24976664781570435,0.08973634243011475
0.42578086256980896,0.05810818076133728,-0.036958083510398865,-0.008480090647935867,0.24477845430374146,0.09596148133277893
0.5034309029579163,0.07048310339450836,-0.0921175628900528,-0.03183206915855408,0.2523924708366394,0.12514609098434448
0.5116732120513916,0.16450396180152893,-0.09500604122877121,-0.04367007315158844,0.23891007900238037,0.16087788343429565
0.632163405418396,0.1417560577392578,-0.09506919980049133,0.002741605043411255,0.21284151077270508,0.09421330690383911
0.6882492303848267,0.0907837301492691,-0.09078888595104218,0.06448963284492493,0.16588473320007324,0.027633309364318848
0.49141842126846313,0.042561907321214676,-0.05313267931342125,0.03741353005170822,0.13193368911743164,0.17990005016326904
0.32637447118759155,-0.06755708903074265,-0.026214465498924255,-0.007227510213851929,0.13059908151626587,0.17639601230621338
0.18555998802185059,-0.07029224187135696,-0.0393158420920372,-0.026511676609516144,0.1027073860168457,0.16054904460906982
0.034594494849443436,-0.037873946130275726,-0.07636290043592453,-0.030652090907096863,0.06739681959152222,0.12952667474746704
-0.05909845605492592,-0.0023658405989408493,-0.09100232273340225,-0.01796139031648636,0.036778926849365234,0.08950638771057129
-0.1401231586933136,-0.00990300253033638,-0.1039464920759201,-0.055139921605587006,0.053143441677093506,0.04585462808609009
-0.1641392558813095,-0.001886692363768816,-0.12766841053962708,-0.07501604408025742,0.060503363609313965,0.0054628849029541016
-0.14911071956157684,0.01786111295223236,-0.11830275505781174,-0.025413647294044495,0.056349337100982666,-0.0329587459564209
-0.13432158529758453,0.07135846465826035,-0.1648492068052292,-0.03544009104371071,0.05110889673233032,-0.004401713609695435
-0.13308362662792206,0.06488414853811264,-0.19298715889453888,-0.027766071259975433,0.03270745277404785,0.01991879940032959
-0.13113445043563843,0.08790794759988785,-0.1552918702363968,-0.039603255689144135,0.025485455989837646,0.018853098154067993
-0.14144256711006165,0.14310689270496368,-0.05010459944605827,-0.00017202645540237427,0.0306471586227417,0.020942509174346924
-0.17517495155334473,0.10940949618816376,0.04315270110964775,-0.0060004666447639465,0.03696960210800171,0.026231050491333008
-0.17954929172992706,0.07822562754154205,0.052985500544309616,-0.03112819790840149,0.042128145694732666,0.03312557935714722
-0.19952385127544403,-0.017149951308965683,0.018126655369997025,-0.04771164059638977,0.05041259527206421,0.034116506576538086
-0.2121548056602478,-0.017757777124643326,-0.0438503734767437,-0.055808812379837036,0.05937761068344116,0.05367729067802429
-0.23684056103229523,0.015197282657027245,-0.05651174858212471,-0.044634342193603516,0.07872098684310913,0.057969123125076294
-0.17612385749816895,0.04993526637554169,-0.08037548512220383,-0.03860555589199066,0.13031065464019775,0.060599684715270996
-0.14416034519672394,0.04600595310330391,-0.13538603484630585,-0.05112770199775696,0.16462701559066772,0.08452945947647095
-0.09661325067281723,0.10065494477748871,-0.1667630523443222,-0.054393261671066284,0.19172120094299316,0.06997519731521606
-0.011580769903957844,0.03493296727538109,-0.1592395305633545,-0.007466583512723446,0.2150009274482727,0.07108524441719055
0.10354752838611603,-0.11162121593952179,-0.13512444496154785,0.05832356959581375,0.2469443678855896,0.038908809423446655
0.3539097011089325,-0.06830594688653946,-0.1725221872329712,0.019970305263996124,0.26387590169906616,-0.0005050301551818848
0.3594340980052948,-0.029259521514177322,-0.15438444912433624,-0.019786223769187927,0.1998172402381897,0.07971137762069702
0.35123276710510254,-0.05667899549007416,-0.06074893847107887,0.05116690695285797,0.1478891372680664,0.08714967966079712
0.48026543855667114,-0.0161261148750782,-0.00477267662063241,0.057361356914043427,0.1623457670211792,0.005683422088623047
0.699176013469696,-0.031830985099077225,0.028315547853708267,0.05881280452013016,0.19732815027236938,-0.07546830177307129
0.74428391456604,0.08818061649799347,-0.01520045381039381,-0.0032662153244018555,0.19814401865005493,0.006017804145812988
0.5291363596916199,0.05842110514640808,-0.0008220747113227844,0.036516331136226654,0.1491471529006958,0.12658655643463135
0.3564411699771881,-0.050159238278865814,0.11835092306137085,0.08835843205451965,0.13296782970428467,0.09764701128005981
0.48957452178001404,-0.127777561545372,0.20891383290290833,0.05807743966579437,0.14930319786071777,0.004769474267959595
0.6512418985366821,0.039862439036369324,0.15453119575977325,-0.027518659830093384,0.1517702341079712,-0.10162034630775452
0.6286010146141052,0.07192876189947128,0.14259304106235504,-0.015818104147911072,0.13376057147979736,-0.06609785556793213
0.4665343165397644,-0.04687456786632538,0.18359103798866272,0.005653932690620422,0.14056307077407837,-0.013716399669647217
0.41455140709877014,-0.04376336559653282,0.17148900032043457,-0.022078536450862885,0.10132861137390137,-0.0692792534828186
0.5881162285804749,0.02796565368771553,0.07330754399299622,-0.04244275391101837,0.11656498908996582,-0.18952101469039917
0.7295407056808472,-0.0027983970940113068,-0.06799520552158356,-0.07499971985816956,0.14168667793273926,-0.23991066217422485
0.7443658709526062,-0.06024546921253204,-0.14156055450439453,-0.06544608622789383,0.15110504627227783,-0.18079781532287598
0.6472941637039185,-0.14416852593421936,-0.09526067227125168,-0.0026816148310899734,0.11766946315765381,-0.13858690857887268
0.4224756956100464,-0.05321066454052925,-0.004870243836194277,0.06606291979551315,0.074493408203125,-0.022920191287994385
0.5125672221183777,0.07133796811103821,-0.03299971669912338,0.05743449926376343,0.05960094928741455,-0.12550783157348633
0.6270459890365601,-0.0038169515319168568,-0.1235695332288742,-0.06389664858579636,0.07161808013916016,-0.17581263184547424
0.5177477598190308,-0.0798414945602417,-0.04048244282603264,0.0237955991178751,0.007433116436004639,-0.15051409602165222
0.42688584327697754,-0.08487804234027863,0.0633380264043808,0.0857633501291275,-0.05001389980316162,-0.12207841873168945
0.3063609004020691,-0.03255385905504227,0.11809326708316803,0.06974131613969803,-0.07551175355911255,-0.06862089037895203
0.30074068903923035,-0.05944982171058655,0.05135572701692581,-0.09220335632562637,-0.09897089004516602,-0.13250046968460083
0.32458987832069397,-0.2138427495956421,-0.006243827752768993,-0.030574414879083633,-0.193112313747406,-0.20549502968788147
0.26122283935546875,-0.23656128346920013,-0.03244424983859062,-0.01407758891582489,-0.28818172216415405,-0.1686214804649353
0.09435579180717468,-0.22840668261051178,-0.009217802435159683,-0.03102525696158409,-0.3030397891998291,-0.08404913544654846
0.010182347148656845,-0.10747575014829636,0.12055572867393494,-0.020163889974355698,-0.303966760635376,-0.06144168972969055
0.07005523145198822,-0.045734431594610214,0.08633849024772644,-0.11215540766716003,-0.300309419631958,-0.15875501930713654
0.15967996418476105,-0.011091155931353569,-0.020444268360733986,-0.024294618517160416,-0.31605809926986694,-0.22601762413978577
0.12205243110656738,0.016661113128066063,-0.02426057867705822,0.08435021340847015,-0.3254273533821106,-0.1887427568435669
-0.04934067651629448,0.08392290025949478,0.04784063249826431,0.07632860541343689,-0.34204232692718506,-0.12574152648448944
-0.10597304254770279,0.12870018184185028,0.06600935012102127,0.026035796850919724,-0.38823503255844116,-0.18576189875602722
-0.1104498952627182,0.10841488838195801,0.0340002067387104,-0.008777175098657608,-0.4351561665534973,-0.18256543576717377
-0.003291365224868059,0.07332995533943176,-0.052931010723114014,-0.038018226623535156,-0.42466723918914795,-0.2639617919921875
-0.05588120222091675,-0.0072698891162872314,-0.032163411378860474,0.004270721226930618,-0.46772199869155884,-0.1949387490749359
-0.018516095355153084,0.06489937752485275,0.0003123967908322811,-0.027722500264644623,-0.4720723628997803,-0.23254060745239258
-0.08684800565242767,0.02651219069957733,-0.06027080491185188,-0.11562015116214752,-0.45167475938796997,-0.2564573287963867
-0.04008155316114426,-0.09434713423252106,-0.09372565150260925,-0.1265118420124054,-0.426439106464386,-0.23830580711364746
0.02194642834365368,0.024027002975344658,-0.08209764957427979,-0.10664879530668259,-0.3846174478530884,-0.24389755725860596
0.08555850386619568,0.12043291330337524,-0.07082735747098923,-0.09206435084342957,-0.33925551176071167,-0.2524397075176239
0.1285335272550583,0.14983029663562775,-0.08317088335752487,-0.04049508273601532,-0.2550220489501953,-0.2257680892944336
-0.00541559187695384,0.01161823607981205,-0.1449504792690277,-0.018301306292414665,-0.17557841539382935,-0.13573293387889862
-0.13566263020038605,-0.13987965881824493,-0.13154372572898865,-0.040787652134895325,-0.10992848873138428,-0.11899666488170624
-0.06752120703458786,-0.17070190608501434,-0.04575347155332565,0.022793421521782875,-0.09496819972991943,-0.18501052260398865
-0.015767673030495644,-0.12630511820316315,0.004481978714466095,-3.33636999130249e-05,-0.07091891765594482,-0.18324780464172363
0.01616121269762516,-0.17949151992797852,-0.14332668483257294,-0.07964465022087097,-0.03563129901885986,-0.11317697167396545
-0.010800877586007118,-0.2694912850856781,-0.16683198511600494,-0.04443037509918213,-0.026116609573364258,-0.10622982680797577
-0.19811199605464935,-0.3931836783885956,0.01671353355050087,0.05203312635421753,0.0004538297653198242,0.006381630897521973
-0.27895379066467285,-0.3132142424583435,0.25562089681625366,0.1656806319952011,-0.00781261920928955,0.028365865349769592
-0.32672202587127686,-0.09141939878463745,0.33037620782852173,0.10420595854520798,0.01254349946975708,0.02100008726119995
-0.29083147644996643,-0.026395250111818314,0.14888326823711395,-0.03750777989625931,0.0014412403106689453,-0.009458765387535095
-0.2946361303329468,-0.1685284674167633,-0.009320730343461037,-0.06747664511203766,0.0003641843795776367,-0.00756952166557312
-0.4312191605567932,-0.14958585798740387,0.05239478126168251,-0.01622902974486351,0.02612924575805664,0.025802627205848694
-0.4585576057434082,-0.020700151100754738,0.2221837341785431,0.05388614535331726,0.05784803628921509,-0.026183366775512695
-0.4632641077041626,0.11098355799913406,0.2676645517349243,0.048706330358982086,0.08751285076141357,-0.02748638391494751
-0.38961946964263916,0.09251659363508224,-0.01051155012100935,-0.017498981207609177,0.08732855319976807,-0.08331659436225891
-0.44174590706825256,-0.09431704133749008,-0.21808700263500214,-0.017573129385709763,0.05528753995895386,-0.06911167502403259
-0.6072026491165161,-0.12346232682466507,-0.09605596214532852,0.0029053539037704468,0.06629925966262817,-0.03809839487075806
-0.6999576091766357,0.09463009238243103,0.09695129096508026,0.04560551419854164,0.09694361686706543,-0.0160771906375885
