rotation_x,rotation_y,rotation_z,acceleration_x,acceleration_y,acceleration_z
-0.3405259847640991,-0.19364286959171295,0.029712995514273643,-0.0009516105055809021,-0.00888979434967041,0.019416093826293945
-0.08833356946706772,-0.1871013045310974,0.025376729667186737,-0.015389986336231232,0.054467618465423584,-0.18598783016204834
0.17131087183952332,-0.08624333143234253,0.05681237205862999,0.05866876244544983,0.020598649978637695,-0.1587541103363037
0.22268015146255493,-0.10250138491392136,0.04251454398036003,0.03449986129999161,0.005693912506103516,-0.10835236310958862
0.19543194770812988,-0.07296255230903625,0.0067312996834516525,0.02446538209915161,0.007224678993225098,-0.05954897403717041
0.062391962856054306,-0.12286456674337387,0.035963185131549835,0.038652196526527405,0.018889248371124268,0.03609222173690796
0.05793701112270355,-0.17003270983695984,0.03921569138765335,0.01390627957880497,0.022442281246185303,0.02354186773300171
0.1001378521323204,-0.041064608842134476,0.046795498579740524,0.02429240383207798,-0.002001464366912842,0.017540276050567627
0.13595987856388092,-0.04564215615391731,0.08541576564311981,0.049960389733314514,-0.007065117359161377,0.03277164697647095
0.10112965106964111,0.036172010004520416,0.07778236269950867,-0.013321951031684875,0.007985711097717285,0.09031027555465698
-0.0927334800362587,0.0032862378284335136,0.05651860684156418,-0.041970014572143555,0.019689619541168213,0.15612339973449707
-0.2057279795408249,-0.1877947449684143,-0.02401595748960972,-0.02582843415439129,0.016257107257843018,0.09075754880905151
-0.08362501859664917,-0.1009267270565033,-0.06021545082330704,-0.0009815841913223267,-0.0010327696800231934,0.013963878154754639
0.03371220827102661,0.00536133348941803,0.010287265293300152,0.03626440837979317,0.023229122161865234,0.037265121936798096
-0.08572342991828918,0.0019971963483840227,0.07117251306772232,0.029993519186973572,0.04132866859436035,0.1905420422554016
-0.21729418635368347,-0.04321451485157013,-0.009047288447618484,-0.09073461592197418,0.08009475469589233,0.19713860750198364
-0.09777959436178207,-0.048387885093688965,-0.052410077303647995,0.01602616161108017,0.09282362461090088,0.017503857612609863
0.1092585101723671,0.10999111086130142,-0.08378161489963531,0.003989912569522858,0.15136116743087769,0.025489330291748047
0.11942622065544128,0.09613888710737228,0.0031090988777577877,0.04591422155499458,0.1318035125732422,0.18354183435440063
0.0032207579351961613,0.17991772294044495,0.019064344465732574,0.003939859569072723,0.14126688241958618,0.23679673671722412
-0.18761758506298065,-0.07487479597330093,-0.04449594020843506,0.006966361775994301,0.16561520099639893,0.26042789220809937
-0.03436345234513283,-0.09548817574977875,-0.06592525541782379,0.014793194830417633,0.22120243310928345,0.11384063959121704
0.09105876088142395,-0.049944546073675156,-0.02106255106627941,0.025533556938171387,0.26555728912353516,0.12125599384307861
0.3052200675010681,0.021905338391661644,0.034717291593551636,0.03987196087837219,0.26065635681152344,0.02605801820755005
0.36949849128723145,0.114923395216465,0.009898199699819088,-0.008705921471118927,0.23282313346862793,0.1436927318572998
0.3483068346977234,0.1287398487329483,-0.02755087986588478,0.005137236788868904,0.23299884796142578,0.16385221481323242
0.3099094331264496,-0.024242419749498367,-0.06401493400335312,0.023548506200313568,0.24845367670059204,0.22490942478179932
0.3567622900009155,-0.11355116218328476,-0.065741628408432,0.05599517375230789,0.24188554286956787,0.16057813167572021
0.6085897088050842,0.06302879750728607,-0.026232227683067322,-4.938244819641113e-05,0.2637496590614319,0.03702104091644287
0.6000192165374756,0.2660372853279114,0.014278915710747242,0.02891041338443756,0.24158257246017456,0.1550700068473816
0.542645275592804,0.11609913408756256,-1.942133530974388e-05,0.033289119601249695,0.21388882398605347,0.12324702739715576
0.4351142942905426,-0.024319680407643318,-0.030198942869901657,0.009502701461315155,0.22121036052703857,0.11519384384155273
0.4669012427330017,-0.08542648702859879,-0.000310561154037714,0.0018545016646385193,0.2003689408302307,0.01795804500579834
0.6535235643386841,-0.007204760331660509,0.024412082508206367,-0.006645604968070984,0.15782314538955688,-0.09134811162948608
0.5820459127426147,0.12523311376571655,0.03587645664811134,-0.03202211111783981,0.15314877033233643,0.032191574573516846
0.586589515209198,0.18700169026851654,0.012657157145440578,-0.060290925204753876,0.1700919270515442,-0.10483348369598389
0.702400267124176,0.01973355934023857,-0.05035451427102089,-0.016114182770252228,0.12923455238342285,-0.11209160089492798
0.6331433653831482,-0.21879728138446808,-0.057056304067373276,0.0730782076716423,0.07186424732208252,-0.04513096809387207
0.6986457109451294,-0.23353904485702515,-0.10551896691322327,-0.0031537897884845734,0.03024578094482422,-0.11400166153907776
0.8560869097709656,-0.06064214929938316,-0.1486668735742569,-0.0378139466047287,0.034298717975616455,-0.1368531584739685
0.7088285684585571,-0.04133124276995659,-0.06636917591094971,-0.02003137208521366,0.01465517282485962,-0.013414204120635986
0.6013317704200745,-0.10872451215982437,-0.10966343432664871,-0.07236255705356598,-0.06772357225418091,-0.10736936330795288
0.45496293902397156,-0.11091788858175278,-0.2068318873643875,-0.03295326232910156,-0.15929216146469116,-0.14178690314292908
0.4353332221508026,-0.009321557357907295,-0.1474486142396927,0.05283035337924957,-0.18144673109054565,-0.2485085129737854
0.4288204610347748,0.15416820347309113,-0.013778766617178917,-0.02972421795129776,-0.17715269327163696,-0.30318623781204224
0.4199635088443756,0.11958372592926025,0.05482437089085579,-0.028381407260894775,-0.2360256314277649,-0.28753677010536194
0.48883044719696045,-0.055448923259973526,-0.05771788954734802,-0.03936057537794113,-0.3139216899871826,-0.29600465297698975
0.3601904511451721,-0.284344345331192,-0.09345404803752899,0.08386547863483429,-0.36623144149780273,-0.13506576418876648
0.122187539935112,-0.27085018157958984,0.03588791564106941,0.09723944962024689,-0.39978891611099243,-0.10518640279769897
0.03388756513595581,-0.04163578525185585,0.11844480782747269,-0.03567272424697876,-0.4381781816482544,-0.23275727033615112
-0.055182766169309616,0.11161543428897858,0.033295124769210815,-0.1124330684542656,-0.5186472535133362,-0.22838827967643738
-0.18868395686149597,-0.008191291242837906,0.019109096378087997,-0.029747240245342255,-0.5874693989753723,-0.24625274538993835
-0.16388612985610962,-0.07506153732538223,0.1000896617770195,0.018077261745929718,-0.5870136618614197,-0.37999650835990906
-0.1672394722700119,0.04132431000471115,0.04744445160031319,-0.07180812209844589,-0.5876359939575195,-0.3730107843875885
-0.03316506743431091,0.127994105219841,-0.027906252071261406,-0.0713604986667633,-0.5847043991088867,-0.402879536151886
0.022787977010011673,0.20043423771858215,0.03599550947546959,0.04995819926261902,-0.551558792591095,-0.32884344458580017
-0.020953010767698288,0.2139652818441391,0.026265006512403488,0.037218861281871796,-0.4810824394226074,-0.13927245140075684
-0.26443421840667725,-0.06473223119974136,0.0006548229139298201,0.02558854967355728,-0.4054800271987915,0.03569406270980835
-0.3748147189617157,-0.05928497388958931,0.0053901346400380135,-0.1025518849492073,-0.2887030243873596,-0.041037946939468384
-0.37609443068504333,0.21153093874454498,0.059102971106767654,-0.12101440876722336,-0.2290162444114685,-0.15503251552581787
-0.3429352045059204,0.36197811365127563,0.06823579221963882,-0.05495500564575195,-0.1549454927444458,-0.17736509442329407
-0.41477730870246887,0.023457948118448257,0.027657900005578995,-0.00543814804404974,-0.1208353042602539,-0.11153268814086914
-0.43752574920654297,-0.13002191483974457,-0.048422813415527344,-0.11501403152942657,-0.07474881410598755,-0.12176090478897095
-0.4546859562397003,0.03756548836827278,-0.036790743470191956,-0.07872603088617325,-0.08464592695236206,-0.12053203582763672
-0.33306655287742615,0.2815620005130768,-0.005057927221059799,-0.052282631397247314,-0.049121320247650146,-0.14738643169403076
-0.45891454815864563,0.13490314781665802,-0.022781137377023697,0.029252275824546814,-0.048029541969299316,-0.028060853481292725
-0.5249395966529846,-0.08318845182657242,-0.05149753391742706,0.025353312492370605,-0.027631819248199463,-0.09004727005958557
-0.44807595014572144,-0.036199554800987244,-0.016666363924741745,-0.0049675325863063335,0.014425575733184814,-0.21376308798789978
-0.2605644166469574,0.055887237191200256,0.06349565088748932,-0.0006880015134811401,0.024582326412200928,-0.2600998282432556
-0.2291029840707779,0.11841046810150146,0.11701331287622452,-0.041224054992198944,0.02193242311477661,-0.20085060596466064
-0.2586427628993988,0.13497044146060944,0.0265401229262352,-0.0591869130730629,0.03263598680496216,-0.18954762816429138
-0.23812507092952728,0.08881852775812149,-0.015585716813802719,0.020692899823188782,0.07137548923492432,-0.1505005955696106
-0.39022284746170044,-0.022305071353912354,0.05245424062013626,0.06118308752775192,0.09276968240737915,-0.043884843587875366
-0.46143639087677,-0.16965161263942719,0.08591235429048538,-0.0006236881017684937,0.052153170108795166,-0.08423405885696411
-0.4471935033798218,-0.18314525485038757,0.013283965177834034,-0.08559580892324448,0.050173282623291016,-0.06010156869888306
-0.47353091835975647,-0.12239720672369003,-0.0009079782757908106,-0.0674777403473854,0.09088224172592163,-0.02660346031188965
-0.47676917910575867,0.012653490528464317,0.0666610524058342,-0.005231723189353943,0.12236136198043823,-0.029626309871673584
-0.5111130475997925,0.04316399618983269,0.07741729170084,0.01686979830265045,0.1505700945854187,-0.02016735076904297
-0.5487104058265686,-0.08344648778438568,-0.024130146950483322,-0.009051731787621975,0.15191322565078735,0.007597744464874268
-0.5863326191902161,-0.1471664011478424,-0.06793489307165146,-0.020424343645572662,0.16193848848342896,0.05333364009857178
-0.6050796508789062,-0.1793147772550583,0.06835181266069412,0.036728061735630035,0.17602092027664185,0.035196900367736816
-0.5172833800315857,-0.05790708586573601,0.19592303037643433,0.030575722455978394,0.18688637018203735,-0.016904354095458984
-0.3503955900669098,0.06628134846687317,0.12989208102226257,-0.009662985801696777,0.19650590419769287,0.0009090900421142578
-0.32961347699165344,-0.012561339884996414,-0.007638514973223209,0.01242125779390335,0.21953177452087402,0.12389665842056274
-0.4643557667732239,-0.19656196236610413,-0.002763189608231187,0.036228641867637634,0.22373813390731812,0.23040372133255005
-0.5198368430137634,-0.15746642649173737,0.18769758939743042,0.015252061188220978,0.19939184188842773,0.15411478281021118
-0.4851425588130951,0.007399490103125572,0.31118419766426086,-0.06409639120101929,0.19027823209762573,0.11945217847824097
-0.21375735104084015,0.10134398937225342,0.1783197969198227,-0.13391833007335663,0.19066041707992554,-0.041253089904785156
0.021214228123426437,0.0009965240024030209,-0.010365468449890614,-0.07517407834529877,0.19597190618515015,0.0007661581039428711
0.09271598607301712,-0.21027837693691254,-0.04447674751281738,0.033390358090400696,0.16697824001312256,0.06642723083496094
0.23528946936130524,-0.16863560676574707,0.007210679352283478,0.0026987604796886444,0.15315592288970947,0.054556429386138916
0.30205923318862915,-0.06260114908218384,0.033577144145965576,-0.047228701412677765,0.14782404899597168,0.1124734878540039
0.3032272160053253,-0.11918056756258011,0.007983225397765636,-0.06715832650661469,0.1539967656135559,0.11017501354217529
0.3908662497997284,-0.21129193902015686,-0.1350540965795517,-0.06811414659023285,0.14251184463500977,0.09656506776809692
0.39796167612075806,-0.17335478961467743,-0.2171444445848465,-0.0014247708022594452,0.09989452362060547,0.13533681631088257
0.3652248680591583,-0.059262026101350784,-0.1823050081729889,0.03776490315794945,0.08529466390609741,0.17462283372879028
0.2271699458360672,-0.04837678000330925,-0.09497666358947754,0.02309899777173996,0.08037227392196655,0.19913053512573242
0.07512577623128891,-0.06471747159957886,-0.016223549842834473,0.05353618040680885,0.06037580966949463,0.15727382898330688
0.0569339320063591,-0.08645547926425934,-0.0759863406419754,0.006742522120475769,0.04487812519073486,0.07404685020446777
0.05253719538450241,-0.07428163290023804,-0.17192450165748596,0.009190961718559265,0.031914710998535156,0.07357048988342285
0.05948416143655777,-0.0671309232711792,-0.21312716603279114,0.06112191081047058,0.036527037620544434,0.07137882709503174
-0.045059073716402054,-0.0896974727511406,-0.09970787167549133,0.14449703693389893,0.023736953735351562,0.14000046253204346
-0.14833839237689972,0.0360102578997612,0.042395513504743576,0.08500494062900543,0.03037816286087036,0.11994743347167969
-0.16884194314479828,0.07489027082920074,0.04625329002737999,0.022287916392087936,0.018031537532806396,0.05762428045272827
0.0076291258446872234,0.1399594247341156,-0.03983435407280922,0.0046881698071956635,0.027161896228790283,-0.04872316122055054
0.000332539901137352,0.02455153502523899,-0.044980332255363464,0.0640251487493515,0.015216588973999023,0.06864058971405029
-0.08248603343963623,0.024833034723997116,0.011881966143846512,0.07204335182905197,-0.005773484706878662,0.10338228940963745
-0.14719295501708984,0.0006116174627095461,0.07188897579908371,0.048674263060092926,-0.008700430393218994,0.08057630062103271
-0.1449798196554184,0.07017625123262405,0.07867703586816788,-0.008023612201213837,0.00991976261138916,0.07755541801452637
-0.09068488329648972,0.04955069720745087,0.038666512817144394,-0.026482071727514267,0.05010557174682617,0.03476041555404663
-0.011901641264557838,-0.019445590674877167,-0.012894129380583763,-0.013382956385612488,0.05374765396118164,0.058757901191711426
-0.02123936265707016,-0.10434804111719131,-0.045758944004774094,0.011601107195019722,0.057769715785980225,0.09997111558914185
-0.020316481590270996,-0.0382683202624321,-0.029446948319673538,0.028584487736225128,0.06574654579162598,0.11716026067733765
0.016667138785123825,0.010771293193101883,0.02124747447669506,0.02737988531589508,0.10772973299026489,0.08473992347717285
0.20729844272136688,0.03461052477359772,0.0051782322116196156,-0.03982066363096237,0.14101016521453857,0.02396559715270996
0.2891556918621063,-0.022132987156510353,-0.02857402339577675,-0.02306263893842697,0.1380191445350647,0.07583737373352051
0.19900046288967133,-0.1254110485315323,-0.015672367066144943,0.04505346715450287,0.137285053730011,0.13499706983566284
0.268353134393692,-0.09193896502256393,0.070195771753788,0.055662911385297775,0.16221410036087036,0.030874669551849365
0.4253193140029907,0.01609576866030693,0.08509904891252518,-0.0005787741392850876,0.17646294832229614,0.036472856998443604
0.5565725564956665,-0.04815458506345749,0.012853562831878662,-0.054880041629076004,0.17629820108413696,0.054722487926483154
0.4907742142677307,-0.1698748618364334,-0.0354478619992733,-0.04336120933294296,0.19953787326812744,0.13258540630340576
0.4993947744369507,-0.10447394847869873,-0.04154428467154503,-0.01292203925549984,0.21525299549102783,0.08020603656768799
0.5561556220054626,-0.017812177538871765,0.01564779318869114,0.04122418165206909,0.21574246883392334,0.038506001234054565
0.6133544445037842,0.018366549164056778,0.060451213270425797,-0.00037316977977752686,0.23197776079177856,0.041983723640441895
0.6141977310180664,0.01185351237654686,0.014919601380825043,-0.024554774165153503,0.2335071563720703,0.07752400636672974
0.5526737570762634,-0.06929241865873337,0.00629555294290185,0.011103224009275436,0.25221139192581177,0.08591112494468689
0.5082345604896545,-0.1402076631784439,0.005173428449779749,0.026371538639068604,0.2600592374801636,0.040739595890045166
0.6199098229408264,-0.05339621379971504,0.03583836182951927,0.029499784111976624,0.23763149976730347,-0.08771377801895142
0.5977879166603088,0.10828634351491928,0.06757209450006485,-0.0030907392501831055,0.171222984790802,-0.040252625942230225
0.43371593952178955,0.09587061405181885,0.039533939212560654,-0.05300881341099739,0.13959544897079468,-0.08806338906288147
0.48638394474983215,-0.010538807138800621,0.026611294597387314,0.002187933772802353,0.14697545766830444,-0.21943867206573486
0.6736616492271423,-0.12595321238040924,0.018473180010914803,0.021532300859689713,0.13776373863220215,-0.2756437063217163
0.7655602097511292,-0.02350441925227642,-0.004135231953114271,-0.029032360762357712,0.07108426094055176,-0.21022579073905945
0.7428820729255676,0.16857127845287323,-0.03385530784726143,-0.041961293667554855,0.02770465612411499,-0.12558159232139587
0.6139075756072998,0.15789702534675598,-0.12616313993930817,-0.07017579674720764,0.028420746326446533,-0.01682981848716736
0.49572134017944336,-6.0628168284893036e-05,-0.07150208204984665,0.024322062730789185,0.008226990699768066,-0.06717938184738159
0.6088119149208069,-0.14037398993968964,-0.05736222490668297,0.006618589162826538,-0.05715912580490112,-0.20923590660095215
0.6429340839385986,-0.05687594786286354,-0.05009014159440994,-0.019240006804466248,-0.09906095266342163,-0.14914441108703613
0.43719860911369324,0.1392538696527481,-0.038887087255716324,-0.03938251733779907,-0.1126437783241272,-0.03020608425140381
0.3011729419231415,0.15951594710350037,-0.016900381073355675,-0.03123597614467144,-0.1306716799736023,-0.08367779850959778
0.27904173731803894,0.04183388873934746,-0.02693427912890911,-0.04224191978573799,-0.1655874252319336,-0.09176763892173767
0.29009324312210083,-0.06589808315038681,-0.09145811200141907,-0.033304937183856964,-0.2064386010169983,-0.08510255813598633
0.20842891931533813,-0.05655777081847191,-0.10824467986822128,-0.022883016616106033,-0.2299538254737854,-0.0452975332736969
0.1323067545890808,0.172499418258667,-0.06665308028459549,-0.07698111236095428,-0.20390468835830688,-0.0696483850479126
0.056041087955236435,0.14354698359966278,-0.03134758770465851,-0.058252252638339996,-0.21557557582855225,-0.1320849061012268
0.07940780371427536,0.0005254005081951618,-0.04407449811697006,-0.061723679304122925,-0.28274261951446533,-0.2230921983718872
0.089837446808815,0.028449418023228645,-0.07844513654708862,-0.07578133046627045,-0.33769434690475464,-0.18109336495399475
0.13167624175548553,0.07692405581474304,-0.09153774380683899,-0.09794639050960541,-0.35231804847717285,-0.18331891298294067
0.06069610267877579,0.10000284016132355,-0.07678353041410446,-0.060501858592033386,-0.38630878925323486,-0.15474757552146912
-0.06162049248814583,0.049829691648483276,-0.09016910940408707,-0.02935643494129181,-0.4212811589241028,-0.12187197804450989
-0.12968677282333374,-0.037115953862667084,-0.10757230222225189,-0.03659936040639877,-0.4245637059211731,-0.14764228463172913
-0.0956355631351471,-0.08617782592773438,-0.10920582711696625,-0.024452827870845795,-0.39932918548583984,-0.22779062390327454
-0.02734334021806717,0.06958825886249542,-0.07809320837259293,-0.03356218338012695,-0.37963753938674927,-0.21665242314338684
-0.056425243616104126,0.03535431995987892,-0.08563036471605301,-0.019222110509872437,-0.38153213262557983,-0.09978139400482178
-0.3127528727054596,-0.031897999346256256,-0.08090266585350037,-0.0012994629796594381,-0.34941530227661133,0.03860214352607727
-0.534109354019165,0.040046919137239456,0.04146569222211838,0.058853983879089355,-0.314819872379303,0.016434460878372192
-0.49487102031707764,0.0549551397562027,0.15518096089363098,0.04756326228380203,-0.29373615980148315,-0.11940783262252808
-0.5453650951385498,-0.08202946186065674,0.20956194400787354,0.03788940608501434,-0.27063775062561035,-0.11316752433776855
-0.5031735301017761,0.08449233323335648,0.09953588992357254,-0.11788981407880783,-0.19202977418899536,-0.17454126477241516
-0.452069491147995,0.2123810201883316,-0.02493765577673912,-0.1344006359577179,-0.10790437459945679,-0.24965280294418335
-0.5193890929222107,0.10648521780967712,0.04043116047978401,-0.037813618779182434,-0.06961655616760254,-0.17773285508155823
-0.5667635798454285,0.05559542030096054,0.08598336577415466,-0.05463429540395737,-0.07140767574310303,-0.18637830018997192
-0.562497079372406,0.0372382216155529,-0.07988207042217255,-0.14950606226921082,-0.05884963274002075,-0.18409228324890137
-0.4017978310585022,0.08731357753276825,-0.267334520816803,-0.12810368835926056,-0.028506159782409668,-0.1889551877975464
-0.41650211811065674,0.1249883621931076,-0.2733062505722046,-0.05884658545255661,-0.006922602653503418,-0.13330939412117004
-0.4373568594455719,0.011865289881825447,-0.0562351830303669,0.09461869299411774,-0.0019229650497436523,-0.21559303998947144
-0.20807641744613647,-0.0840417817234993,0.13381646573543549,0.06571642309427261,0.0718042254447937,-0.2916756272315979
-0.01698540709912777,0.14910365641117096,0.09978239238262177,-0.058504410088062286,0.0890049934387207,-0.27454227209091187
-0.24955448508262634,-0.08477369695901871,-0.1937820017337799,-0.15675696730613708,0.018106162548065186,-0.07453230023384094
-0.43121206760406494,-0.42178064584732056,-0.197245255112648,0.03906199336051941,-0.0068299174308776855,-0.1279052495956421
-0.493384450674057,-0.4262867569923401,-0.05930474400520325,0.05063013732433319,0.07741069793701172,-0.07685351371765137
-0.6201938986778259,-0.2964070439338684,0.12457194924354553,0.0719042494893074,0.1677880883216858,-0.03157389163970947
-0.43820980191230774,-0.027511432766914368,0.003025476820766926,-0.12803030014038086,0.2263607382774353,-0.1489018201828003
-0.010456589981913567,0.050103235989809036,-0.1325959861278534,-0.0892239511013031,0.16568690538406372,-0.21776056289672852
-0.00857883132994175,-0.19305694103240967,-0.13732673227787018,0.032434672117233276,0.16382372379302979,-0.06054753065109253
-0.5519729256629944,-0.35198327898979187,-0.1421905755996704,0.030807673931121826,0.20470303297042847,0.10754501819610596
-0.9998893141746521,-0.52675861120224,-0.04626787453889847,0.08471275120973587,0.23996615409851074,0.1008007824420929
-1.1309014558792114,-0.7590838670730591,0.013329439796507359,0.07620780915021896,0.2043820023536682,0.054165035486221313
-0.8165286183357239,-0.3505260944366455,-0.03415548801422119,0.12569871544837952,0.15761464834213257,-0.10335874557495117
-0.4184871315956116,0.11152243614196777,0.16175107657909393,0.03565294295549393,0.16102677583694458,-0.02943974733352661
-0.892533540725708,-0.03886444866657257,0.038835540413856506,-0.04638339579105377,0.22240948677062988,0.3212006092071533
-1.3238940238952637,-0.05948257073760033,0.187179833650589,0.07310669869184494,0.2519521117210388,0.2762773036956787
-1.386240005493164,-0.06719424575567245,0.4127192199230194,0.06351155787706375,0.16931360960006714,0.06343430280685425
-1.0213648080825806,0.0835263729095459,0.2402297556400299,-0.030615288764238358,0.054453134536743164,-0.07570391893386841
-0.5411061644554138,0.1291145533323288,0.06878647953271866,-0.038976266980171204,0.06648963689804077,-0.09745359420776367
-0.13648712635040283,0.045889586210250854,0.03128201514482498,0.04657260701060295,0.11171704530715942,-0.02026069164276123
-0.08489573746919632,0.16977755725383759,0.18057924509048462,0.04468517377972603,0.17838191986083984,0.14563041925430298
-0.12306932359933853,0.21145252883434296,0.2890097200870514,-0.02985522150993347,0.1879405975341797,0.16776680946350098
0.037767212837934494,0.4469626545906067,0.23483751714229584,-0.06599967181682587,0.08583128452301025,-5.6684017181396484e-05
0.6081855297088623,0.3331057131290436,0.19051070511341095,-0.004217088222503662,0.09372985363006592,-6.580352783203125e-05
0.7817404270172119,0.152462899684906,0.08252077549695969,0.02852410078048706,0.14463621377944946,0.1093299388885498
0.7482027411460876,0.23800820112228394,0.17780807614326477,0.1034216433763504,0.09567034244537354,0.20165252685546875
0.2817191183567047,0.36091965436935425,0.3487277030944824,0.10480909049510956,0.14715170860290527,0.3557250499725342
-0.18086057901382446,0.11278564482927322,0.3225898742675781,-0.020688693970441818,0.11252295970916748,0.2995145916938782
-0.1326632797718048,0.14499783515930176,0.18989895284175873,-0.08958803862333298,0.10017454624176025,0.09895187616348267
0.13444986939430237,0.4653247594833374,0.03851165249943733,-0.04349823668599129,0.008874356746673584,0.04122692346572876
0.00791563093662262,0.4809340238571167,0.011814783327281475,0.056407343596220016,-0.0034314990043640137,0.2212124466896057
-0.35971498489379883,0.0025249121244996786,0.1130528673529625,0.07334034144878387,0.03188133239746094,0.2649756073951721
-0.49115070700645447,-0.23676998913288116,0.20505431294441223,0.006426572799682617,0.05995047092437744,0.13744956254959106
-0.4087088406085968,0.14080971479415894,0.23176752030849457,-0.06331494450569153,0.12859010696411133,0.08215540647506714
-0.18443351984024048,0.4448637068271637,0.3104219436645508,-0.03634016960859299,0.12849533557891846,0.05170118808746338
-0.1071099117398262,0.6639982461929321,0.29036828875541687,-0.003270760178565979,0.10765999555587769,0.05556291341781616
-0.3064180016517639,0.3878725469112396,-0.05808259919285774,-0.1609269380569458,0.07346689701080322,0.13830626010894775
-0.46913161873817444,-0.02053973451256752,-0.10249927639961243,-0.086024209856987,0.0472751259803772,0.14102411270141602
-0.28833460807800293,-0.17021489143371582,0.06878454983234406,0.07631153613328934,0.08526605367660522,0.012928962707519531
-0.22098171710968018,0.1566159427165985,-0.03587867692112923,-0.05839438736438751,0.13924598693847656,0.01910984516143799
-0.021057739853858948,0.5264237523078918,-0.18021877110004425,-0.16479679942131042,0.1946268081665039,-0.02431720495223999
-0.26973316073417664,0.691587507724762,-0.29094064235687256,-0.16757939755916595,0.20622527599334717,0.14596819877624512
-0.5092536211013794,0.7007651329040527,-0.26911550760269165,-0.09892963618040085,0.1811615228652954,0.20462250709533691
-0.6901458501815796,0.5124515891075134,-0.0853835791349411,0.04169682413339615,0.17613255977630615,0.25778865814208984
-0.3589874804019928,0.23150351643562317,0.021845534443855286,0.06302832812070847,0.2014065384864807,0.05004286766052246
-0.15477953851222992,0.016435328871011734,-0.0847833901643753,-0.018645428121089935,0.22143876552581787,0.02706778049468994
-0.3046082556247711,0.01701972261071205,-0.1547163873910904,-0.058122433722019196,0.16718542575836182,0.20158380270004272
-0.40298908948898315,0.19956980645656586,-0.14510495960712433,-0.015750259160995483,0.12244540452957153,0.25663310289382935
-0.2677379250526428,0.2235899567604065,-0.09058812260627747,-0.02707182615995407,0.1304369568824768,0.1280781626701355
-0.017874768003821373,-0.06606564670801163,-0.022091086953878403,0.022715412080287933,0.13006538152694702,0.025063395500183105
0.07910206913948059,-0.4209294617176056,-0.06993459910154343,-0.004165271297097206,0.10822409391403198,0.07217675447463989
0.3288136124610901,-0.35974547266960144,-0.14540639519691467,-0.03092784434556961,0.09400057792663574,-0.03293585777282715
0.4479096233844757,-0.13411065936088562,-0.1079932153224945,-0.0025400742888450623,0.08288151025772095,-0.016869068145751953
0.35687822103500366,-0.058730676770210266,-0.00899545568972826,-0.015853794291615486,0.08531278371810913,0.08896094560623169
0.5554111003875732,-0.28784582018852234,0.08027998358011246,-0.005793511867523193,0.07549560070037842,0.03825843334197998
0.843384325504303,-0.47111231088638306,0.11116812378168106,0.036079756915569305,0.05759096145629883,-0.03135734796524048
0.6532605886459351,-0.4448990821838379,0.17450648546218872,0.030588999390602112,0.039173245429992676,0.11075294017791748
0.4955747127532959,-0.4262765944004059,0.22464783489704132,0.033676378428936005,-0.01182466745376587,0.0140533447265625
0.5401227474212646,-0.30865010619163513,0.2715119421482086,0.058187805116176605,-0.05836021900177002,-0.12170720100402832
0.7731806039810181,-0.2653048634529114,0.2477516382932663,0.045535847544670105,-0.05395781993865967,-0.18910938501358032
1.0235174894332886,-0.24985623359680176,0.11771300435066223,-0.030569015070796013,-0.03022146224975586,-0.1591162085533142
0.9162302017211914,-0.18237581849098206,0.15966978669166565,0.028474345803260803,-0.04824221134185791,-0.04098033905029297
0.6761422157287598,-0.2576911747455597,0.37071672081947327,0.02133219689130783,-0.05656212568283081,-0.012888073921203613
0.5454679727554321,-0.5058741569519043,0.38935205340385437,-0.10523024946451187,-0.05260896682739258,-0.03447103500366211
0.5718360543251038,-0.5148319005966187,0.1749628633260727,-0.1723569929599762,-0.06436866521835327,-0.0769270658493042
0.6681519746780396,-0.5731183886528015,0.0063650524243712425,-0.09683848917484283,-0.10199236869812012,-0.1760236620903015
0.73809814453125,-0.226654052734375,0.024280637502670288,-0.034184567630290985,-0.14440375566482544,-0.2185271978378296
0.7746468186378479,0.03412407636642456,0.049252599477767944,-0.0454726442694664,-0.14380550384521484,-0.19592484831809998
0.5158069133758545,-0.14389421045780182,-0.0044147660955786705,-0.05334489792585373,-0.13787150382995605,-0.037206828594207764
0.2818656265735626,-0.29597076773643494,-0.0792551338672638,-0.03663529455661774,-0.14128971099853516,-0.054501891136169434
0.35925376415252686,-0.19225941598415375,-0.1581455022096634,-0.03453700244426727,-0.1705649495124817,-0.25410276651382446
0.5350989103317261,0.19395695626735687,-0.19700677692890167,-0.0269818976521492,-0.17539554834365845,-0.300636351108551
0.44904419779777527,0.20134176313877106,-0.1241849958896637,0.006737895309925079,-0.13998931646347046,-0.24499142169952393
0.21591439843177795,0.002359334845095873,-0.08004982769489288,-0.01910700649023056,-0.1739039421081543,-0.2293553352355957
0.03977800905704498,-0.020775120705366135,-0.13723893463611603,-0.05674481764435768,-0.21655511856079102,-0.2875829041004181
0.17998312413692474,0.0005654403939843178,-0.26313483715057373,-0.08931808173656464,-0.2845841646194458,-0.4437766671180725
0.1044197604060173,0.027500802651047707,-0.2947447896003723,-0.05156661197543144,-0.35587555170059204,-0.3234802186489105
0.08182010054588318,0.002916166326031089,-0.06279837340116501,0.062210727483034134,-0.4008810520172119,-0.4069766104221344
0.01734030619263649,-0.06400670111179352,0.11688370257616043,0.02810179442167282,-0.4214485287666321,-0.3389955163002014
-0.01705462858080864,-0.22540484368801117,0.08187241852283478,-0.06259524077177048,-0.4312664866447449,-0.334406316280365
-0.09253793954849243,-0.13030073046684265,-0.09955517947673798,-0.16625887155532837,-0.43017399311065674,-0.2735830545425415
-0.15403538942337036,-0.0012947805225849152,-0.27374908328056335,-0.09272973239421844,-0.49421221017837524,-0.28073737025260925
-0.24360203742980957,-0.10366334021091461,-0.07492709904909134,0.05980303883552551,-0.5299182534217834,-0.2752453088760376
-0.26351261138916016,-0.18773922324180603,0.040148667991161346,-0.01234620064496994,-0.4929606318473816,-0.34344369173049927
-0.026912396773695946,-0.05861925333738327,-0.11121182143688202,-0.16325530409812927,-0.41842180490493774,-0.45329198241233826
0.11045373976230621,0.030005011707544327,-0.26666128635406494,-0.09617084264755249,-0.30125612020492554,-0.44531217217445374
0.15971246361732483,-0.13507521152496338,-0.15190021693706512,0.018962793052196503,-0.14724552631378174,-0.380065381526947
-0.037277139723300934,-0.22866173088550568,-0.06460168212652206,-0.031221602112054825,-0.05350089073181152,-0.2178906500339508
-0.2579270303249359,-0.2637140154838562,-0.028047244995832443,-0.028789624571800232,-0.005042374134063721,-0.13376939296722412
-0.28648343682289124,-0.2671911418437958,-0.07189010083675385,-0.05700872465968132,0.04094409942626953,-0.12539416551589966
-0.17232032120227814,-0.20542919635772705,-0.04204744100570679,-0.059213243424892426,0.08089905977249146,-0.09853363037109375
-0.23882699012756348,-0.18101193010807037,0.04253162443637848,-0.014508258551359177,0.08799242973327637,0.057104527950286865
-0.4334035813808441,-0.33077725768089294,0.1189291924238205,0.07277029752731323,0.041657090187072754,0.0778374969959259
-0.5094823241233826,-0.27993661165237427,0.10745377838611603,0.026009462773799896,-0.006240248680114746,0.020946979522705078
-0.5537194013595581,-0.09244599938392639,0.04290618747472763,0.0061300694942474365,0.012576103210449219,0.02654176950454712
-0.5030812621116638,-0.05842168256640434,0.1078779324889183,0.04332186281681061,0.04056483507156372,-0.026600956916809082
-0.46250787377357483,-0.05256543308496475,0.20443779230117798,-0.013435222208499908,0.06690412759780884,-0.070465087890625
-0.4275335371494293,-0.0028124088421463966,0.19622476398944855,-0.01094171404838562,0.05908304452896118,-0.09316122531890869
-0.4186977446079254,0.005654498469084501,0.1093335971236229,-0.00200808048248291,0.05909454822540283,-0.04726004600524902
-0.456923246383667,0.058839742094278336,0.08745081722736359,0.00798363983631134,0.09967267513275146,-0.004062533378601074
-0.5528489947319031,0.12277291715145111,0.08308669924736023,-0.017161116003990173,0.16262584924697876,0.011513471603393555
-0.47612208127975464,0.12161722034215927,0.1784689575433731,0.05634492635726929,0.19968199729919434,-0.10341107845306396
-0.35751938819885254,0.16129285097122192,0.10566356033086777,0.014791660010814667,0.20331794023513794,-0.04514819383621216
-0.3541308045387268,0.18802329897880554,0.006789263337850571,0.04221344739198685,0.18921315670013428,0.07568776607513428
-0.547410786151886,0.23769909143447876,-0.01847660541534424,0.025461167097091675,0.20300698280334473,0.19609498977661133
-0.8153589963912964,0.12678854167461395,-0.0672108381986618,-0.016337253153324127,0.22851651906967163,0.21362417936325073
-0.8595556020736694,0.08519855886697769,-0.009588739834725857,0.018923617899417877,0.221701979637146,0.0945006012916565
-0.6585932374000549,0.1596098095178604,-0.03889128938317299,0.04385903477668762,0.1931396722793579,-0.002952396869659424
-0.5424174666404724,0.2484615296125412,0.09354444593191147,0.09453266859054565,0.19635260105133057,0.08725368976593018
-0.577485203742981,0.1987573206424713,0.18315160274505615,0.036112479865550995,0.19203251600265503,0.07110452651977539
-0.5388310551643372,0.21991388499736786,0.16539928317070007,-0.013922721147537231,0.17631453275680542,0.0726168155670166
-0.36925891041755676,0.2669452726840973,0.018188923597335815,-0.05505852401256561,0.1754651665687561,0.027480363845825195
-0.11715249717235565,0.20211198925971985,-0.06908572465181351,0.025191236287355423,0.1732153296470642,0.043164968490600586
0.03298751264810562,0.14806973934173584,-0.012813044711947441,0.052881304174661636,0.1947953701019287,0.13063323497772217
0.1945950835943222,0.09482619911432266,0.11322947591543198,0.017648153007030487,0.213117778301239,0.12350696325302124
0.42532163858413696,0.17365171015262604,0.09522993117570877,-0.05827077850699425,0.2120925784111023,0.09542351961135864
0.6713789105415344,0.28033319115638733,-0.04696013405919075,-0.08915723860263824,0.17182904481887817,0.1172633171081543
0.7343381643295288,0.08349540084600449,-0.12798577547073364,-0.0033807754516601562,0.13990211486816406,0.24346446990966797
0.6499842405319214,-0.035249922424554825,0.005444789305329323,0.06441293656826019,0.09873181581497192,0.2935541868209839
0.4028393626213074,0.1459229439496994,0.12968489527702332,-0.0034829527139663696,0.06545394659042358,0.40119361877441406
-0.0023254978004842997,0.23424416780471802,0.16590389609336853,-0.02745155245065689,0.014236032962799072,0.368655800819397
-0.26686814427375793,0.22620609402656555,0.11176183074712753,-0.039193011820316315,0.0005696415901184082,0.2024695873260498
-0.30682939291000366,0.12692344188690186,0.04889284819364548,-0.015410125255584717,0.0003771185874938965,0.012077689170837402
-0.24964947998523712,0.012554192915558815,0.03350667282938957,-0.010417301207780838,0.019602715969085693,-0.07751709222793579
-0.12742631137371063,0.038470782339572906,0.06618759781122208,-0.04785647615790367,0.03167468309402466,-0.0647854208946228
-0.08602356910705566,0.08098118007183075,0.057539910078048706,-0.080284982919693,0.03363227844238281,0.0020012855529785156
-0.06093817576766014,-0.0021210694685578346,-0.0012056359555572271,-0.08039523661136627,0.014190196990966797,0.05472689867019653
-0.031027372926473618,-0.08978991955518723,-0.10181035846471786,-0.09265939891338348,-0.007497072219848633,0.08558684587478638
-0.023105069994926453,-0.16559481620788574,-0.15289591252803802,-0.07147380709648132,-0.020338475704193115,0.11951327323913574
0.017252212390303612,-0.1360291689634323,-0.06337079405784607,-0.03886703774333,-0.003365933895111084,0.10946297645568848
-0.0319361574947834,-0.02122352086007595,-0.022060580551624298,-0.0841384306550026,0.004103124141693115,0.14647990465164185
-0.20512573421001434,-0.00025911256670951843,-0.03560735657811165,-0.06987665593624115,0.004670202732086182,0.16423118114471436
-0.21650256216526031,-0.06191384792327881,-0.0681018978357315,-0.04719403758645058,0.0076596736907958984,0.09021162986755371
-0.25010737776756287,-0.07118000835180283,-0.0648946464061737,-0.012056175619363785,0.019370436668395996,0.17909109592437744
-0.3096715807914734,-0.0086884256452322,0.032945677638053894,0.037396155297756195,0.031744301319122314,0.1980189085006714
-0.3381720185279846,0.01658579707145691,0.06666044890880585,-0.013605993241071701,0.048445940017700195,0.16426438093185425
-0.32650071382522583,0.03858094662427902,0.06418996304273605,-0.008495837450027466,0.054534912109375,0.13821101188659668
-0.34640902280807495,0.06722382456064224,0.0698704645037651,-0.012136850506067276,0.07244879007339478,0.12588846683502197
-0.33186498284339905,0.013153240084648132,0.057964928448200226,0.0032418332993984222,0.08963721990585327,0.08760428428649902
-0.17698171734809875,0.022590579465031624,0.016140539199113846,-0.012307994067668915,0.12319004535675049,0.014268875122070312
-0.009827082976698875,-0.011090189218521118,-0.010972319170832634,-0.005070649087429047,0.15408051013946533,0.0675961971282959
0.07421120256185532,-0.014620359987020493,-0.0348103791475296,-0.023914288729429245,0.17640966176986694,0.17097043991088867
0.18522852659225464,0.04011231288313866,-0.0777035504579544,-0.0295729897916317,0.20695269107818604,0.18484944105148315
0.2728720009326935,0.08380839228630066,-0.08604627847671509,0.006130315363407135,0.22768676280975342,0.18845713138580322
0.4320063889026642,0.07762008160352707,-0.04095196723937988,0.04892020300030708,0.25820082426071167,0.13127100467681885
0.5618723630905151,-0.08639939874410629,-0.0707985907793045,0.024893909692764282,0.2639656662940979,0.15772318840026855
0.5685760378837585,-0.050916168838739395,-0.15111656486988068,-0.011934366077184677,0.26499485969543457,0.21456730365753174
0.5233759880065918,-0.018543962389230728,-0.094476617872715,0.05090641230344772,0.2689286470413208,0.22716140747070312
0.5500180721282959,-0.2152777910232544,0.007173426449298859,0.0847303494811058,0.2594881057739258,0.11964333057403564
0.8113039135932922,-0.12575696408748627,-0.011558111757040024,0.04998934268951416,0.22167551517486572,-0.013658285140991211
0.7896420359611511,-0.14985927939414978,-0.04515410214662552,0.03829396516084671,0.18722772598266602,0.09188032150268555
0.6238152384757996,-0.06621504575014114,-0.023347033187747,0.018511280417442322,0.13626629114151,0.07539260387420654
0.46927952766418457,-0.010315058752894402,-0.029028786346316338,-0.02833816036581993,0.1305195689201355,0.015655219554901123
0.4918256998062134,-0.18826667964458466,0.007403853349387646,0.018201645463705063,0.09702980518341064,-0.18069636821746826
0.6042417883872986,-0.1809518188238144,0.07782954722642899,0.02595948800444603,0.07557225227355957,-0.21598124504089355
0.6932971477508545,0.07478635758161545,0.04057358577847481,0.004410073161125183,0.08299392461776733,-0.2523040175437927
0.8129732012748718,0.06833729147911072,0.011513350531458855,0.045106191188097,0.08891481161117554,-0.24006491899490356
0.7169158458709717,-0.1313810646533966,0.030397653579711914,0.05005495250225067,0.05221521854400635,-0.11334067583084106
0.5366719961166382,-0.2953881621360779,0.1079244613647461,0.012973319739103317,0.018831372261047363,-0.07314413785934448
0.35559776425361633,-0.239970400929451,0.13904120028018951,-0.03305017948150635,0.00857555866241455,-0.055542320013046265
0.3353499472141266,0.04960586875677109,0.0912918671965599,-0.07454746961593628,-0.016216516494750977,-0.1606445014476776
0.2851827144622803,0.0843312069773674,-0.009562143124639988,-0.04205400496721268,-0.06240546703338623,-0.2025894820690155
0.22166433930397034,-0.2586483359336853,-0.03443612903356552,0.018112018704414368,-0.10100698471069336,-0.25980353355407715
0.3268570601940155,-0.3756890594959259,-0.011377828195691109,-0.039614588022232056,-0.11622488498687744,-0.3394150137901306
0.3151484727859497,-0.23984043300151825,-0.008001134730875492,-0.07019920647144318,-0.13886451721191406,-0.21901088953018188
0.14603522419929504,-0.15143398940563202,-0.00956137664616108,-0.061761245131492615,-0.19011473655700684,-0.1366964876651764
0.0672081783413887,-0.026733919978141785,-0.049067821353673935,-0.013200543820858002,-0.23955005407333374,-0.18884915113449097
0.037320952862501144,0.019627271220088005,-0.01192137598991394,0.023650310933589935,-0.2379162311553955,-0.19407102465629578
-0.040519315749406815,0.003273493144661188,0.000568075105547905,0.0021190568804740906,-0.240153968334198,-0.162083238363266
-0.029706716537475586,0.114638552069664,-0.019945336505770683,0.0008162036538124084,-0.28942787647247314,-0.29414260387420654
-0.060411106795072556,0.1703779548406601,-0.03363826125860214,0.010117121040821075,-0.3662640452384949,-0.3096757233142853
-0.14597228169441223,0.13446290791034698,-0.05411641299724579,-0.02689346671104431,-0.4200480580329895,-0.35073065757751465
-0.22019730508327484,0.16386198997497559,-0.05397069454193115,-0.08161376416683197,-0.44934678077697754,-0.43169671297073364
-0.1867302656173706,0.14630897343158722,-0.027927542105317116,-0.07017988711595535,-0.5050449967384338,-0.4957215189933777
-0.05881807208061218,0.18151380121707916,-0.09471864253282547,-0.14946845173835754,-0.5271901488304138,-0.5616443753242493
0.03583333641290665,0.04892677068710327,-0.1191701740026474,-0.08804827183485031,-0.5505862236022949,-0.47325772047042847
0.015781348571181297,0.12638115882873535,-0.09448743611574173,-0.09574685245752335,-0.5039226412773132,-0.3596399426460266
-0.0004034806042909622,0.2461102157831192,-0.0700255036354065,-0.062448278069496155,-0.42580240964889526,-0.3203880786895752
-0.053717661648988724,0.20097970962524414,-0.12133169919252396,-0.04002726823091507,-0.32293564081192017,-0.2695539593696594
-0.1003207266330719,-0.07048165053129196,-0.17776645720005035,-0.006746105849742889,-0.235204815864563,-0.2531857490539551
-0.10728415101766586,-0.10670264810323715,-0.1816437840461731,-0.05039194971323013,-0.17186284065246582,-0.27617621421813965
-0.1154504269361496,0.05258582532405853,-0.0740303248167038,-0.0469747856259346,-0.10410690307617188,-0.25583720207214355
-0.08662289381027222,0.05947551131248474,0.046001601964235306,-0.032987553626298904,-0.055366456508636475,-0.26462051272392273
-0.028014767915010452,-0.010205905884504318,0.01965605840086937,-0.07280343025922775,-0.021994709968566895,-0.2105419635772705
-0.10040150582790375,-0.15107209980487823,-0.12626716494560242,-0.028355512768030167,-0.0004920363426208496,-0.0917142927646637
-0.24801309406757355,-0.27418890595436096,-0.16605252027511597,0.06991246342658997,0.02624267339706421,-0.0035423338413238525
-0.42253103852272034,-0.2070401906967163,-0.02215188927948475,0.056308314204216,0.06191974878311157,0.006639420986175537
-0.47421905398368835,-0.06460990756750107,0.09341380000114441,-0.00351705402135849,0.057183027267456055,-0.019723117351531982
-0.5545606017112732,0.009283453226089478,0.10859645903110504,-0.07522625476121902,0.06179201602935791,-0.016571491956710815
-0.5203033685684204,-0.023171352222561836,-0.06285788863897324,-0.08138815313577652,0.03323251008987427,-0.13094830513000488
-0.43659624457359314,-0.21384909749031067,-0.089959517121315,0.05544824153184891,0.043789446353912354,-0.134324312210083
-0.543189525604248,-0.24025116860866547,0.013260331004858017,0.07497727870941162,0.05657237768173218,-0.06584322452545166
-0.5849004983901978,-0.1228816956281662,0.1298162192106247,0.09408177435398102,0.04537379741668701,-0.11972540616989136
-0.5937471389770508,0.028302939608693123,0.11712352931499481,-0.027088116854429245,0.04046231508255005,-0.10094702243804932
-0.5067288875579834,0.08815022557973862,0.04739527776837349,-0.04225296154618263,0.03216022253036499,-0.12135517597198486
-0.424991250038147,-0.003846124280244112,0.06345504522323608,-0.006165921688079834,0.028827965259552002,-0.09757977724075317
-0.4636273980140686,-0.025115199387073517,0.11326448619365692,0.011833302676677704,0.036388516426086426,-0.05043286085128784
-0.5272907018661499,0.030465852469205856,0.20512504875659943,0.033645402640104294,0.07060366868972778,-0.010973811149597168
-0.6462488174438477,0.12151236087083817,0.29791688919067383,0.0662226751446724,0.08353126049041748,0.04432576894760132
-0.6772447824478149,0.07373099029064178,0.2221062183380127,0.013161987066268921,0.09651809930801392,0.05826270580291748
-0.6092745661735535,0.03837620094418526,0.01180810946971178,-0.010076925158500671,0.09395641088485718,0.04964488744735718
-0.5456697344779968,-0.061726875603199005,-0.01966800168156624,0.065765380859375,0.12254375219345093,0.09030503034591675
-0.5264675617218018,-0.017860112711787224,0.11520510911941528,0.07145924121141434,0.16685831546783447,0.16199404001235962
-0.4875110983848572,0.19528436660766602,0.12773562967777252,-0.01431584358215332,0.189100444316864,0.17894452810287476
-0.4556910991668701,0.26769059896469116,0.08586101233959198,-0.005564019083976746,0.2012348175048828,0.23584306240081787
-0.48605668544769287,0.17119625210762024,0.08255435526371002,0.0391598716378212,0.21792250871658325,0.24593478441238403
-0.5013477802276611,-0.00529579957947135,0.1678403913974762,0.07702628523111343,0.2170364260673523,0.21105563640594482
-0.3403121531009674,-0.014258895069360733,0.14186528325080872,0.02003534883260727,0.2300128936767578,0.10245704650878906
0.006611292716115713,0.10915825515985489,0.030694201588630676,-0.03083261102437973,0.21163135766983032,0.006019532680511475
0.3006860911846161,0.13089026510715485,-0.12418906390666962,-0.05125371366739273,0.19785195589065552,0.04416412115097046
0.3959851562976837,0.07708267122507095,-0.1975003182888031,-0.028109200298786163,0.198563814163208,0.13969022035598755
0.5934561491012573,0.1075655072927475,-0.06166016682982445,0.058562420308589935,0.18920820951461792,0.0447121262550354
0.7499110698699951,0.13294944167137146,-0.006444667931646109,-0.04388740658760071,0.1812637448310852,0.08437943458557129
0.8745858073234558,0.20282641053199768,-0.19437851011753082,-0.1415814906358719,0.14782977104187012,0.07521438598632812
0.7715374827384949,0.028471751138567924,-0.3250907361507416,-0.03510252758860588,0.10865610837936401,0.17723917961120605
0.5046212077140808,-0.04486362636089325,-0.2186027616262436,0.07597117125988007,0.09194350242614746,0.22313696146011353
0.2831420600414276,0.012429995462298393,0.027282340452075005,0.1125619187951088,0.07404154539108276,0.17715317010879517
0.13521096110343933,0.03451450169086456,0.0890800952911377,0.028751645237207413,0.07048797607421875,0.15953874588012695
-0.07746583223342896,0.010528248734772205,-0.032559044659137726,-0.02485351264476776,0.06883645057678223,0.17140090465545654
-0.18137617409229279,-0.09815628081560135,-0.1606520414352417,-0.012988362461328506,0.04331332445144653,0.08104485273361206
-0.16043229401111603,-0.13861559331417084,-0.175177201628685,0.019939906895160675,0.038794517517089844,0.029675006866455078
-0.08822889626026154,-0.06634127348661423,-0.08073341101408005,0.03545112907886505,0.035877764225006104,0.023373782634735107
-0.06959650665521622,0.01400073803961277,0.012003972195088863,-0.008189596235752106,0.04346024990081787,0.059656739234924316
-0.04854978248476982,0.06023356318473816,0.035600971430540085,-0.00919003039598465,0.03114926815032959,0.07193171977996826
-0.10127922147512436,0.031212328001856804,0.07820126414299011,0.02579628676176071,0.018525123596191406,0.11893737316131592
-0.19130733609199524,0.004427707754075527,0.1532633751630783,0.029453180730342865,0.02197086811065674,0.14777827262878418
-0.2521832287311554,-0.04480164125561714,0.23778727650642395,-0.011765867471694946,0.05035293102264404,0.1142960786819458
-0.27245786786079407,-0.035255808383226395,0.2915639877319336,-0.0182795412838459,0.04664081335067749,0.07034379243850708
-0.26146942377090454,0.048528168350458145,0.28713899850845337,-0.050971437245607376,0.06409114599227905,0.0492706298828125
-0.21736572682857513,0.1535024642944336,0.24059510231018066,-0.04598633944988251,0.06756466627120972,0.027136623859405518
-0.22346913814544678,0.10891535133123398,0.20398704707622528,-0.01002839207649231,0.07423722743988037,0.06982958316802979
-0.26478520035743713,0.012550844810903072,0.22674499452114105,0.0091325044631958,0.11185789108276367,0.07620632648468018
-0.2544783651828766,0.06280510872602463,0.2019924372434616,-0.0290721133351326,0.15498864650726318,0.08359193801879883
-0.1895211786031723,0.07079179584980011,0.15891483426094055,-0.06139271706342697,0.16984838247299194,0.08714693784713745
-0.06073267012834549,0.1059291660785675,0.04581448808312416,-0.09256459027528763,0.17350172996520996,0.08886086940765381
0.056925758719444275,0.08364196866750717,-0.03544320538640022,-0.05488914996385574,0.1634618639945984,0.10461622476577759
-0.03013603202998638,0.08280746638774872,-0.008738580159842968,-0.017567098140716553,0.13586753606796265,0.21614480018615723
-0.1567329317331314,0.013836015947163105,0.07033199071884155,0.06913624703884125,0.09798985719680786,0.2552662491798401
-0.2045559585094452,-0.1019412949681282,0.07404347509145737,0.04808990657329559,0.07221037149429321,0.21294212341308594
-0.14418861269950867,-0.1136135682463646,-0.042366426438093185,-0.03186682611703873,0.07395809888839722,0.10282683372497559
-0.07756801694631577,-0.16268305480480194,-0.1441156566143036,-0.07740653306245804,0.0908554196357727,0.05466663837432861
-0.04417543113231659,-0.17973071336746216,-0.18601727485656738,-0.084980808198452,0.11620283126831055,0.07505953311920166
0.056809164583683014,-0.10335510969161987,-0.183786079287529,-0.0484638437628746,0.12084448337554932,0.06858861446380615
0.15989261865615845,-0.12320102006196976,-0.2103787362575531,-0.07392296940088272,0.12958216667175293,0.07308906316757202
0.38404223322868347,-0.276358962059021,-0.19303548336029053,-0.03226154297590256,0.14785480499267578,0.03230738639831543
0.4663067162036896,-0.2273808866739273,-0.16078148782253265,0.000654175877571106,0.1707175374031067,0.07971656322479248
0.507602334022522,0.009381936863064766,-0.15627466142177582,-0.00184641033411026,0.19200026988983154,0.14708244800567627
0.615141749382019,0.09537027031183243,-0.17378437519073486,0.018664643168449402,0.17232179641723633,0.09372031688690186
0.6980171799659729,-0.05387691780924797,-0.13543160259723663,0.036525897681713104,0.16242694854736328,0.05385321378707886
0.6818411350250244,-0.3471764922142029,-0.054831068962812424,0.05955986678600311,0.14709681272506714,0.07308626174926758
0.7252714037895203,-0.19980943202972412,-0.03540519252419472,0.037860170006752014,0.13471263647079468,0.045663654804229736
0.8282525539398193,0.05501130595803261,0.008042088709771633,0.008429795503616333,0.1290677785873413,-0.027067840099334717
0.7685586214065552,0.13099798560142517,-0.011916235089302063,-0.026989005506038666,0.11446505784988403,-0.049768924713134766
0.6987664103507996,0.016553563997149467,-0.05857846513390541,0.04614365100860596,0.06265240907669067,-0.0450359582901001
0.6361387372016907,-0.1346380114555359,-0.044769372791051865,0.07628472149372101,0.0333821177482605,-0.09673023223876953
0.6189607977867126,-0.24982291460037231,0.045036591589450836,0.03369547426700592,0.018914222717285156,-0.12567591667175293
0.7035933136940002,-0.08963489532470703,0.09533639252185822,-0.0012527331709861755,-0.059194743633270264,-0.22868776321411133
0.7931403517723083,0.22114624083042145,0.022541159763932228,-0.027795404195785522,-0.10693329572677612,-0.2612253427505493
0.7683375477790833,0.0438145212829113,-0.06786283105611801,-0.03896863013505936,-0.08184182643890381,-0.16525480151176453
0.5340734720230103,-0.4226117432117462,-0.05982928350567818,-0.005314640700817108,-0.10877251625061035,-0.1257409155368805
0.43018439412117004,-0.3688490390777588,-0.021028364077210426,-0.10925178974866867,-0.1065058708190918,-0.18014565110206604
0.3558119535446167,0.028027158230543137,-0.022500671446323395,-0.1159859299659729,-0.10664921998977661,-0.1561461091041565
0.43742942810058594,0.30341604351997375,-0.055544979870319366,-0.0553971529006958,-0.1098209023475647,-0.2500966787338257
0.5214669108390808,0.2329806387424469,-0.11780577152967453,0.006931990385055542,-0.11522316932678223,-0.23794788122177124
0.45351189374923706,0.04544063284993172,-0.17076943814754486,0.022804319858551025,-0.15452522039413452,-0.19865310192108154
0.3294895887374878,0.08172488212585449,-0.14700399339199066,0.024797849357128143,-0.17609429359436035,-0.18165308237075806
0.1277657002210617,0.1765672117471695,-0.14599396288394928,-0.008768543601036072,-0.19059234857559204,-0.16155892610549927
0.10485611855983734,0.22018256783485413,-0.14561821520328522,-0.0045113638043403625,-0.2337552309036255,-0.3119083642959595
0.11527172476053238,0.1676868200302124,-0.17206238210201263,-0.042716898024082184,-0.2918854355812073,-0.33248209953308105
0.14094997942447662,0.14594058692455292,-0.2617283761501312,-0.06609953194856644,-0.34409940242767334,-0.3396760821342468
0.19960199296474457,0.07678662985563278,-0.28395798802375793,-0.05058741942048073,-0.3560448884963989,-0.36535367369651794
0.10973230004310608,-0.04264382645487785,-0.19983455538749695,0.01344156265258789,-0.38884466886520386,-0.3045497536659241
0.12783201038837433,-0.04852105677127838,-0.037151385098695755,0.052286628633737564,-0.44756489992141724,-0.36042624711990356
0.13295279443264008,0.1670246124267578,-0.011288936249911785,-0.005892489105463028,-0.489055335521698,-0.303367018699646
0.003672393038868904,0.2293436974287033,-0.027018509805202484,-0.011752322316169739,-0.44062358140945435,-0.19808757305145264
-0.08761516958475113,0.09226816892623901,0.016429651528596878,0.03296618163585663,-0.40838366746902466,-0.26389485597610474
-0.16730931401252747,-0.1300889104604721,0.0971333459019661,0.00981723703444004,-0.3645320534706116,-0.32997384667396545
-0.15654033422470093,-0.16252219676971436,0.08938098698854446,-0.05288480222225189,-0.34068846702575684,-0.35109853744506836
-0.17926035821437836,-0.10615648329257965,0.025964751839637756,-0.10798909515142441,-0.2838824391365051,-0.2877461910247803
-0.282150536775589,0.07412944734096527,-0.055736348032951355,-0.10837912559509277,-0.23021161556243896,-0.237776517868042
-0.34760886430740356,0.035942357033491135,-0.07441376149654388,-0.041631460189819336,-0.19077175855636597,-0.22625654935836792
-0.3561815619468689,-0.05400530621409416,-0.07148805260658264,0.022542700171470642,-0.17433971166610718,-0.2283414602279663
-0.3718871474266052,-0.0849231630563736,-0.04997460916638374,0.014724189415574074,-0.12115287780761719,-0.16507938504219055
-0.31988853216171265,-0.017551451921463013,-0.10353256016969681,-0.019292596727609634,-0.09557616710662842,-0.1878712773323059
-0.38607263565063477,-0.07688672095537186,-0.07781914621591568,0.0293421670794487,-0.09161442518234253,-0.11383563280105591
-0.5186704993247986,-0.07957592606544495,0.04090515524148941,0.03679005801677704,-0.0675395131111145,-0.05732929706573486
-0.5769075155258179,-0.1509697288274765,0.2110099047422409,0.09125269949436188,-0.038253605365753174,-0.08050799369812012
-0.5913616418838501,-0.10841304808855057,0.24689817428588867,0.04252420738339424,-0.021525204181671143,-0.08643242716789246
-0.5432743430137634,-0.09702694416046143,0.06567201018333435,-0.03644240275025368,-0.03629404306411743,-0.13096454739570618
-0.4765678942203522,-0.205882728099823,-0.028011152520775795,-0.0014395751059055328,-0.059540390968322754,-0.14382025599479675
-0.5033729672431946,-0.15758192539215088,0.08200595527887344,0.003671884536743164,-0.033152997493743896,-0.11601293087005615
-0.5698671936988831,0.05280183255672455,0.23188567161560059,-0.01620282232761383,0.007704615592956543,-0.11891525983810425
-0.5345361232757568,0.1314028799533844,0.29147228598594666,-0.00811050832271576,0.045502662658691406,-0.1384049654006958
-0.37216418981552124,0.1501271277666092,0.1729632019996643,0.016275770962238312,0.06928706169128418,-0.14869004487991333
-0.4173235595226288,-0.05541764572262764,0.12650373578071594,0.0801280066370964,0.0800473690032959,0.023546576499938965
-0.47944125533103943,-0.09126175940036774,0.22992850840091705,0.07202321290969849,0.1261274218559265,0.07028788328170776
-0.5305265784263611,-0.07514825463294983,0.3625175356864929,0.037912771105766296,0.15335297584533691,0.06750082969665527
-0.43847110867500305,0.017894361168146133,0.34662869572639465,-0.04772595316171646,0.18393409252166748,-0.0068618059158325195
-0.37387579679489136,0.13328343629837036,0.26192501187324524,-0.038613446056842804,0.21343588829040527,0.057550013065338135
-0.39604800939559937,0.09708407521247864,0.1695069819688797,0.0011466220021247864,0.22829341888427734,0.14257186651229858
-0.5537625551223755,0.07653393596410751,0.17916059494018555,0.0688297227025032,0.23500561714172363,0.19637250900268555
-0.6425142884254456,0.031025655567646027,0.21707910299301147,0.038725048303604126,0.2754145860671997,0.18781828880310059
-0.5742998123168945,-0.013171388767659664,0.18411004543304443,-0.04763887822628021,0.276153564453125,0.10763120651245117
-0.41215237975120544,0.05674200505018234,0.07217512279748917,-0.0701356828212738,0.294069766998291,0.08302748203277588
-0.19797417521476746,0.005797168239951134,0.01838572323322296,-0.011207103729248047,0.2915698289871216,0.07684683799743652
-0.18552346527576447,-0.018222231417894363,0.031043319031596184,-0.01747417449951172,0.2780352234840393,0.2115146517753601
-0.1420367956161499,0.08012480288743973,0.05240683630108833,-0.03395447880029678,0.2624291777610779,0.23170334100723267
-0.11662102490663528,0.13594000041484833,0.1023840606212616,-0.004907794296741486,0.2420947551727295,0.21527045965194702
0.058222461491823196,0.14271163940429688,0.05334532633423805,-0.05263490974903107,0.2465483546257019,0.1020129919052124
0.24807843565940857,0.04055178165435791,-0.06309252977371216,-0.020416095852851868,0.20466136932373047,0.07752668857574463
0.30702313780784607,-0.08960447460412979,-0.10464546829462051,-0.010553933680057526,0.1844685673713684,0.14895933866500854
0.25754472613334656,-0.05407295003533363,-0.10684657841920853,-0.02666682004928589,0.15131765604019165,0.19633972644805908
0.2501019835472107,0.11786578595638275,-0.08448375016450882,0.006770290434360504,0.12426143884658813,0.15523606538772583
0.18887776136398315,0.11148346215486526,-0.07794706523418427,0.02699214220046997,0.10356736183166504,0.1684361696243286
0.06554707884788513,0.06248726323246956,-0.12690065801143646,0.03506970405578613,0.049203336238861084,0.1304764747619629
-0.01107039861381054,0.003747229464352131,-0.17659039795398712,0.02855081856250763,0.021836519241333008,0.08798205852508545
-0.15234628319740295,0.07221908122301102,-0.16565272212028503,0.012070238590240479,0.005464375019073486,0.07426154613494873
-0.09175434708595276,0.09200870990753174,-0.12452039867639542,0.00887434184551239,0.010172605514526367,-0.051441192626953125
0.015053794719278812,0.024217860773205757,-0.12889090180397034,0.004303887486457825,-0.009852349758148193,-0.05984652042388916
0.10998380184173584,-0.02009652927517891,-0.16283224523067474,0.007546074688434601,-0.03693985939025879,-0.04435873031616211
0.13432596623897552,0.013294484466314316,-0.15283280611038208,0.0018056705594062805,-0.0419345498085022,-0.000995039939880371
0.12867507338523865,0.06891629099845886,-0.09684279561042786,-0.005489464849233627,-0.03359037637710571,0.05390816926956177
0.09093070030212402,0.07556244730949402,-0.056620750576257706,-0.013954352587461472,-0.027287423610687256,0.08088850975036621
0.031135348603129387,0.001546703977510333,-0.06015394628047943,-0.0361783392727375,-0.014916777610778809,0.10244584083557129
-0.011468596756458282,-0.11558549851179123,-0.04834588244557381,0.0005179494619369507,-0.01626986265182495,0.10362708568572998
-0.005626443773508072,-0.08217459917068481,-0.03229455649852753,-0.002241872251033783,-0.005635380744934082,0.10598653554916382
-0.021456142887473106,-0.018781475722789764,-0.0022263797000050545,0.0028285086154937744,0.006700873374938965,0.10811257362365723
-0.009827163070440292,0.029822636395692825,0.009377336129546165,-0.02901666983962059,0.04577481746673584,0.08557868003845215
0.01339619979262352,0.07147163152694702,-0.015995947644114494,-0.03814488276839256,0.07046395540237427,0.0628194808959961
-0.05753791704773903,-0.03475287929177284,-0.0015912411035969853,0.005697149783372879,0.07371401786804199,0.0777822732925415
-0.07011090219020844,-0.010411756113171577,0.019569149240851402,-0.003635179251432419,0.07880431413650513,0.04670590162277222
-0.01749647594988346,0.05662768706679344,0.018249617889523506,-0.03191476687788963,0.1102973222732544,0.07005751132965088
0.0084622111171484,0.12732268869876862,-0.017560617998242378,-0.06054883077740669,0.1588878631591797,0.09525156021118164
0.12506508827209473,0.04004089906811714,-0.03607901185750961,-0.0320182740688324,0.18661218881607056,0.03381526470184326
0.23231980204582214,0.03367554396390915,-0.060509439557790756,-0.023165903985500336,0.1992800235748291,0.045975446701049805
0.32381752133369446,-0.008051373064517975,-0.07297967374324799,-0.018771357834339142,0.19318348169326782,0.07493126392364502
0.38601893186569214,-0.007372421678155661,-0.03549817204475403,0.013531047850847244,0.1951158046722412,0.10594254732131958
0.38016921281814575,0.0034279171377420425,-0.021923407912254333,0.01086115837097168,0.22285419702529907,0.1558527946472168
0.3955545723438263,-0.11633836477994919,-0.024937612935900688,0.01571541279554367,0.24951553344726562,0.12767958641052246
0.49015164375305176,-0.14610426127910614,-0.1194741278886795,-0.03852824121713638,0.2737550139427185,0.06955915689468384
0.5604848265647888,-0.059684786945581436,-0.15288002789020538,-0.014563143253326416,0.2788549065589905,0.10148948431015015
0.4776178002357483,-0.021327674388885498,-0.1151629313826561,0.005947500467300415,0.267087459564209,0.16556090116500854
0.3901878297328949,-0.08078676462173462,-0.04910324141383171,0.03631222993135452,0.2562340497970581,0.1328992247581482
0.45771196484565735,-0.10791933536529541,-0.07356216013431549,-0.004980795085430145,0.24953073263168335,0.022016286849975586
0.5711488127708435,-0.020475182682275772,-0.11155740171670914,0.028814975172281265,0.22352832555770874,0.014857709407806396
0.5796050429344177,-0.013138283044099808,-0.07278327643871307,0.05518228933215141,0.18527215719223022,0.010185956954956055
0.5892573595046997,0.011297284625470638,0.02536592446267605,0.08366797864437103,0.13540643453598022,-0.07646548748016357
0.638011634349823,-0.07422133535146713,0.08058538287878036,0.03128015249967575,0.1241949200630188,-0.10131341218948364
0.6819453835487366,-0.06349347531795502,0.006831439211964607,-0.05508805066347122,0.12539196014404297,-0.09553611278533936
0.6941558122634888,-0.04014042392373085,-0.048757825046777725,-0.005249246954917908,0.08920985460281372,-0.09318339824676514
0.7047595977783203,-0.13201580941677094,0.055620960891246796,0.12226660549640656,0.0904114842414856,-0.12637826800346375
0.5978732705116272,-0.14473305642604828,0.23030883073806763,0.07165538519620895,0.10462546348571777,-0.0650484561920166
0.5887511372566223,-0.3139020800590515,0.30696582794189453,-0.013007387518882751,0.053736329078674316,-0.09495991468429565
0.6272138357162476,-0.43064451217651367,0.35971397161483765,-0.04473915696144104,0.0072345733642578125,-0.10664361715316772
0.6005278825759888,-0.29177868366241455,0.40117862820625305,0.0345156192779541,-0.017421722412109375,-0.0641336441040039
0.5150290727615356,-0.07918436080217361,0.44179385900497437,0.04430944472551346,-0.01514291763305664,-0.0428926944732666
0.3514196574687958,-0.09228307753801346,0.3875056207180023,0.026445649564266205,-0.0519142746925354,-0.049421876668930054
0.18522390723228455,-0.23819784820079803,0.3792223632335663,0.04014652967453003,-0.0469936728477478,-0.11459136009216309
0.28553125262260437,-0.21759188175201416,0.3369036018848419,0.005468584597110748,-0.031133174896240234,-0.26879069209098816
0.3073672652244568,-0.0973035991191864,0.2196532040834427,0.004472717642784119,-0.05238407850265503,-0.19298508763313293
0.27500736713409424,0.003967807628214359,0.1303732842206955,-0.03515844792127609,-0.06059408187866211,-0.17401474714279175
0.18777300417423248,-0.051711104810237885,0.11652696132659912,-0.012128084897994995,-0.1007012128829956,-0.11501815915107727
0.0723988264799118,-0.09023331850767136,0.12392634898424149,-0.038073472678661346,-0.13044863939285278,-0.09130561351776123
0.03076455183327198,-0.0303066186606884,0.03878612443804741,-0.08743631839752197,-0.13391101360321045,-0.12682515382766724
0.005747932009398937,-0.05762394517660141,-0.11112114787101746,-0.11157622933387756,-0.1713883876800537,-0.16686266660690308
0.03699523210525513,-0.1278754323720932,-0.18345321714878082,-0.09907183051109314,-0.22083592414855957,-0.23197147250175476
0.08416125923395157,-0.17011718451976776,-0.1337238997220993,-0.029074490070343018,-0.27108973264694214,-0.23331734538078308
0.06802425533533096,-0.11459305137395859,-0.10247399657964706,-0.0610017403960228,-0.29073643684387207,-0.17438340187072754
0.054878171533346176,0.03324863687157631,-0.09273289144039154,-0.1310999095439911,-0.3096334934234619,-0.20052385330200195
0.15767502784729004,-0.033122219145298004,-0.16398191452026367,-0.09175771474838257,-0.35336196422576904,-0.26751166582107544
0.19870541989803314,-0.3504427671432495,-0.27516302466392517,-0.01224171370267868,-0.3750135898590088,-0.1933990716934204
0.03185276314616203,-0.2855899930000305,-0.20894892513751984,0.057126112282276154,-0.40945684909820557,-0.060357123613357544
-0.1871708333492279,0.07648679614067078,-0.015143634751439095,-0.03681052476167679,-0.37934333086013794,-0.02808201313018799
-0.5307508707046509,0.24826066195964813,0.07184130698442459,-0.059580691158771515,-0.3918229937553406,0.014415532350540161
-0.7275394797325134,0.15966399013996124,-0.012384684756398201,-0.06773556023836136,-0.4321783781051636,-0.1256241500377655
-0.772479236125946,0.19536027312278748,-0.10229130834341049,-0.029284395277500153,-0.4626867175102234,-0.26716938614845276
-0.7305212616920471,0.1608698070049286,0.038565345108509064,0.04656677693128586,-0.4318399429321289,-0.3614494502544403
-0.7751299738883972,-0.0010085571557283401,0.13323421776294708,-0.09855405986309052,-0.3572806119918823,-0.4737284183502197
-0.6115959286689758,-0.12371739745140076,0.05971876531839371,-0.20881956815719604,-0.3127402067184448,-0.6224079132080078
-0.4547986388206482,-0.12152782082557678,-0.07348988205194473,-0.1947515606880188,-0.27320635318756104,-0.5849816203117371
-0.3540388345718384,-0.06840105354785919,-0.18577420711517334,-0.1157323345541954,-0.25681543350219727,-0.44126349687576294
-0.16432026028633118,0.02104683220386505,-0.1854589879512787,-0.050699204206466675,-0.20733201503753662,-0.3840463161468506
-0.09306056797504425,0.09059357643127441,-0.12618091702461243,-0.01806231588125229,-0.15421557426452637,-0.22263258695602417
