rotation_x,rotation_y,rotation_z,acceleration_x,acceleration_y,acceleration_z
0.09928058832883835,0.17848698794841766,0.4493832290172577,-0.006218284368515015,0.010458052158355713,-0.03585535287857056
0.04361530393362045,0.00805500615388155,0.3660447299480438,0.026467859745025635,-0.021303176879882812,-0.0022373199462890625
0.13026419281959534,-0.031726665794849396,0.19884714484214783,0.022825807332992554,-0.03785330057144165,0.0012482404708862305
0.28166458010673523,-0.1787172257900238,0.056499287486076355,0.025205761194229126,-0.05695575475692749,-0.030271530151367188
0.2807759940624237,-0.22399479150772095,-0.027230296283960342,0.07717522978782654,-0.10979241132736206,-0.045141756534576416
0.35501402616500854,-0.06748349964618683,-0.02977173775434494,0.08687625825405121,-0.11175006628036499,-0.08258724212646484
0.6077526807785034,0.505309522151947,0.315965861082077,0.14125461876392365,-0.11500310897827148,-0.1789764165878296
0.9773620367050171,0.9244878888130188,0.9553735852241516,0.24126353859901428,-0.22763586044311523,-0.2272491455078125
1.2808926105499268,1.276952862739563,1.2798513174057007,0.23397009074687958,-0.21077334880828857,-0.28696656227111816
1.6069012880325317,1.6524847745895386,1.4440046548843384,0.2481914758682251,-0.21821492910385132,-0.2772420048713684
1.7363827228546143,1.8988125324249268,1.65755295753479,0.24847421050071716,-0.18181419372558594,-0.264887273311615
1.5937244892120361,2.0681962966918945,1.8792163133621216,0.23209238052368164,-0.13682472705841064,-0.2221510410308838
1.3280409574508667,1.9157674312591553,1.9573626518249512,0.18753817677497864,-0.08498984575271606,-0.16904312372207642
1.1097760200500488,1.1843451261520386,1.8448638916015625,0.15092426538467407,0.0038874149322509766,-0.20413434505462646
0.9104361534118652,0.5684016942977905,1.6696059703826904,0.10743546485900879,0.08199316263198853,-0.15319210290908813
0.8003355264663696,0.054215408861637115,1.544662594795227,0.07486122846603394,0.1089056134223938,-0.15123170614242554
0.7862289547920227,-0.23766762018203735,1.4774762392044067,0.06941390037536621,0.15042626857757568,-0.12610018253326416
0.9130516052246094,-0.15109500288963318,1.3826594352722168,0.030648529529571533,0.18675905466079712,-0.11669999361038208
1.0943330526351929,0.05614016205072403,1.305504322052002,0.016091706231236458,0.22112500667572021,-0.09530514478683472
1.2911877632141113,0.20491711795330048,1.2527960538864136,-0.010564982891082764,0.2508048415184021,-0.06717449426651001
1.2231148481369019,0.2544211745262146,1.1462255716323853,-0.034254640340805054,0.27464091777801514,-0.015208125114440918
1.0100162029266357,0.1876741349697113,0.991663932800293,-0.061414092779159546,0.2643308639526367,0.021792292594909668
0.9320791363716125,0.02649681270122528,0.8837071657180786,-0.00685650110244751,0.2360215187072754,0.013397812843322754
0.8741843104362488,-0.11078473925590515,0.7997549772262573,0.01545996218919754,0.22361713647842407,0.0024495720863342285
0.7361276745796204,-0.2209404557943344,0.6753544807434082,-0.014869950711727142,0.22400814294815063,0.04873877763748169
0.7027913331985474,-0.30598217248916626,0.4993382394313812,-0.05486287921667099,0.20822304487228394,0.05658873915672302
0.7612212300300598,-0.30754679441452026,0.31542155146598816,-0.04011791944503784,0.16158103942871094,0.04056441783905029
0.7624170184135437,-0.36420488357543945,0.2284870147705078,-0.020061016082763672,0.13022303581237793,0.050108253955841064
0.8136961460113525,-0.4013500213623047,0.143825963139534,-0.0031380653381347656,0.11447477340698242,0.057861328125
0.9483882784843445,-0.4403795599937439,0.0455818809568882,-0.019960254430770874,0.0815967321395874,0.0410427451133728
1.1508041620254517,-0.43142202496528625,0.06350535899400711,0.01731787621974945,0.057279348373413086,0.03776758909225464
1.3689286708831787,-0.46609658002853394,0.12512655556201935,0.029259711503982544,0.030330419540405273,0.03751230239868164
1.3163604736328125,-0.5669928193092346,0.09221706539392471,-0.011837437748908997,0.03854644298553467,0.10333409905433655
1.109800100326538,-0.633267343044281,0.016727935522794724,-0.042934924364089966,0.05599576234817505,0.16178584098815918
0.9323707222938538,-0.5783240795135498,-0.0045365337282419205,-0.053671956062316895,0.05928921699523926,0.19340968132019043
0.8300989866256714,-0.42868342995643616,-0.026074156165122986,-0.040877565741539,0.0746084451675415,0.20790663361549377
0.7140384316444397,-0.27825963497161865,-0.034750498831272125,-0.02940511703491211,0.08689558506011963,0.22386735677719116
0.5318230390548706,-0.1547383964061737,-0.0867079347372055,-0.03061622381210327,0.09276711940765381,0.2393304705619812
0.32484957575798035,-0.02980789914727211,-0.17157329618930817,-0.029814019799232483,0.09832209348678589,0.2560330927371979
0.10931414365768433,0.04019441828131676,-0.22735635936260223,0.01847025752067566,0.07461309432983398,0.24812686443328857
-0.010632006451487541,0.04446488246321678,-0.2021191418170929,0.08036243915557861,0.07565617561340332,0.24290257692337036
-0.006847602315247059,0.1349477618932724,-0.18804052472114563,0.08909259736537933,0.08647119998931885,0.21244147419929504
0.05174221843481064,0.32409945130348206,-0.1821543425321579,0.07430262863636017,0.14001572132110596,0.23027893900871277
-0.05762886628508568,0.6030073761940002,-0.32786646485328674,0.028864100575447083,0.16232681274414062,0.26716575026512146
-0.28012141585350037,0.6929783225059509,-0.4971122145652771,0.0078116655349731445,0.18697655200958252,0.3150079846382141
-0.5490900278091431,0.6091684699058533,-0.5454139709472656,0.05430680513381958,0.18591636419296265,0.33356380462646484
-0.8646659255027771,0.5641360282897949,-0.513956606388092,0.10049298405647278,0.18066519498825073,0.36347854137420654
-1.0924404859542847,0.8344434499740601,-0.521453857421875,0.08979856967926025,0.17156052589416504,0.3565567135810852
-1.0955586433410645,1.139918327331543,-0.5554595589637756,0.08496996015310287,0.16983073949813843,0.2659566104412079
-1.0782852172851562,1.2117966413497925,-0.6161775588989258,0.056549765169620514,0.18665778636932373,0.20740088820457458
-1.1096397638320923,1.1342474222183228,-0.7613838911056519,0.01252397894859314,0.20787405967712402,0.16201263666152954
-1.22819185256958,1.1257667541503906,-1.0000226497650146,-0.034175753593444824,0.2512585520744324,0.1560935080051422
-1.2826265096664429,1.4191838502883911,-1.3023494482040405,-0.06131339073181152,0.27263307571411133,0.12445580959320068
-1.1971668004989624,1.8142144680023193,-1.4847029447555542,-0.05251920595765114,0.25615280866622925,0.04116746783256531
-0.6684316992759705,1.7359012365341187,-1.2187097072601318,0.19257676601409912,0.26782119274139404,-0.12885987758636475
-0.09062573313713074,1.3465501070022583,-1.218912124633789,0.13864398002624512,0.2759186029434204,-0.2096160650253296
0.16271238029003143,1.0609064102172852,-1.6005854606628418,-0.11280167102813721,0.35871559381484985,-0.08795207738876343
-0.11871623992919922,1.2167177200317383,-2.2382216453552246,-0.2567004859447479,0.32721102237701416,0.07804274559020996
-0.9069475531578064,1.267034649848938,-2.6728248596191406,-0.24495482444763184,0.21211010217666626,0.20785832405090332
-1.4584810733795166,0.6153953671455383,-2.5075130462646484,0.05261564254760742,0.20440107583999634,0.163470059633255
-1.4911704063415527,0.12867388129234314,-2.137486457824707,0.2069253921508789,0.24303942918777466,0.03689107298851013
-1.093964695930481,0.2992153763771057,-2.0174050331115723,0.08645159006118774,0.24101543426513672,-0.05547565221786499
-0.7985884547233582,1.0622518062591553,-2.2574522495269775,-0.15755808353424072,0.23787271976470947,0.00797051191329956
-0.6375449895858765,1.7899789810180664,-2.5500707626342773,-0.21590012311935425,0.16113203763961792,0.02542191743850708
-0.5010620355606079,1.7882980108261108,-2.5147154331207275,-0.03830742835998535,0.134382426738739,-0.03391432762145996
-0.5094151496887207,1.5137410163879395,-2.310298442840576,0.15644264221191406,0.07253378629684448,-0.07778257131576538
-0.6774755120277405,1.2632499933242798,-2.4653947353363037,0.09844481945037842,0.024512887001037598,-0.060638427734375
-0.9048818349838257,1.150118350982666,-2.8278629779815674,-0.018598198890686035,0.007787346839904785,-0.0351732075214386
-1.141518473625183,0.669952392578125,-2.769188642501831,0.11731427907943726,-0.06644338369369507,-0.09880942106246948
-1.2526063919067383,0.32942116260528564,-2.212245225906372,0.36028003692626953,-0.13170331716537476,-0.11381357908248901
-1.008419156074524,0.6061308979988098,-1.8685882091522217,0.3068356513977051,-0.16250529885292053,-0.1398392915725708
-0.5798815488815308,1.1225770711898804,-2.1808156967163086,-0.028204262256622314,-0.08979642391204834,-0.12946921586990356
-0.35213184356689453,1.4253119230270386,-2.3698482513427734,-0.10907727479934692,-0.0038268864154815674,-0.04516294598579407
-0.12184126675128937,1.5756880044937134,-2.261240005493164,0.14998692274093628,-0.08330374956130981,-0.1256917417049408
-0.09483368694782257,1.5778017044067383,-2.052309036254883,0.2939188480377197,-0.1680820882320404,-0.15278464555740356
-0.3275112807750702,1.3089262247085571,-1.8269591331481934,0.38210147619247437,-0.20774054527282715,-0.13453862071037292
-0.7336468696594238,1.005436658859253,-1.9681261777877808,0.19229549169540405,-0.17008252441883087,-0.03417283296585083
-0.9988698959350586,0.7536752223968506,-2.1556081771850586,0.05029416084289551,-0.08938972651958466,-0.010006219148635864
-1.0026987791061401,0.7304205298423767,-1.9328522682189941,0.08690065145492554,-0.04261788725852966,-0.020300567150115967
-0.5835137963294983,1.2754355669021606,-1.490301489830017,0.36225444078445435,-0.07984156161546707,-0.13058581948280334
-0.20276732742786407,1.9237399101257324,-1.351989984512329,0.2765457034111023,-0.12550310790538788,-0.1794881820678711
-0.16619573533535004,1.9401410818099976,-1.3875490427017212,0.23720282316207886,-0.11910395324230194,-0.16123682260513306
-0.5100699663162231,1.2672885656356812,-1.4154478311538696,0.2388521432876587,-0.09726615250110626,-0.12259566783905029
-0.975468099117279,0.46495193243026733,-1.3022704124450684,0.32034778594970703,-0.1396217942237854,-0.11214637756347656
-1.2532633543014526,0.06276220828294754,-1.1217344999313354,0.3325807452201843,-0.16661909222602844,-0.10032141208648682
-1.1723082065582275,0.20701394975185394,-0.9089338779449463,0.312073290348053,-0.17988979816436768,-0.14128455519676208
-0.8588815331459045,0.4436504542827606,-0.6844052076339722,0.3088252544403076,-0.20252296328544617,-0.2286752164363861
-0.6083087921142578,0.3726826310157776,-0.5109403133392334,0.30066150426864624,-0.22278568148612976,-0.28607064485549927
-0.4634411036968231,0.1686418205499649,-0.303259938955307,0.2871825098991394,-0.2441244125366211,-0.30266547203063965
-0.2448008805513382,-0.0018287623533979058,-0.15840810537338257,0.26445382833480835,-0.26622769236564636,-0.32504546642303467
0.0054016318172216415,-0.11712098866701126,0.00970486644655466,0.2538779377937317,-0.2857992649078369,-0.32892554998397827
0.20369480550289154,-0.1702088564634323,0.18099787831306458,0.2686549425125122,-0.2985820174217224,-0.30318233370780945
0.27612119913101196,-0.18878580629825592,0.3980359733104706,0.2878360152244568,-0.31736475229263306,-0.2501666247844696
0.2822105288505554,-0.2770591974258423,0.6213913559913635,0.3085939884185791,-0.3226092457771301,-0.220302551984787
0.30360493063926697,-0.3720596134662628,0.8252474665641785,0.3028367757797241,-0.3018091320991516,-0.20340603590011597
0.2991178035736084,-0.4751570522785187,0.9600856900215149,0.28347694873809814,-0.2836790084838867,-0.18305808305740356
0.24167627096176147,-0.5449764132499695,1.0554070472717285,0.27485281229019165,-0.2506091594696045,-0.13755452632904053
0.18494245409965515,-0.5240245461463928,1.1725059747695923,0.27455729246139526,-0.226598858833313,-0.12067274749279022
0.12131764739751816,-0.45480313897132874,1.2615214586257935,0.27435392141342163,-0.21620863676071167,-0.12057667970657349
0.02359723299741745,-0.4213697910308838,1.3176655769348145,0.2684720754623413,-0.19287416338920593,-0.1230674684047699
0.00944371335208416,-0.3955107629299164,1.4380617141723633,0.3213636875152588,-0.17460399866104126,-0.14862969517707825
0.014942102134227753,-0.36175355315208435,1.5632977485656738,0.32252418994903564,-0.18094050884246826,-0.16899952292442322
-0.029378704726696014,-0.430010586977005,1.7231580018997192,0.3689945340156555,-0.1607690453529358,-0.16201582551002502
-0.1547144651412964,-0.4826308488845825,1.8186107873916626,0.382912814617157,-0.13980624079704285,-0.1401362419128418
-0.23709063231945038,-0.4161534905433655,1.9016506671905518,0.3934246897697449,-0.08957627415657043,-0.13689008355140686
-0.31846708059310913,-0.31617337465286255,1.9816534519195557,0.3756394386291504,-0.06317031383514404,-0.1434285044670105
-0.43580466508865356,-0.38545575737953186,2.040114164352417,0.33527374267578125,-0.03840796649456024,-0.13683223724365234
-0.4710787236690521,-0.5917311906814575,2.1435959339141846,0.2856961488723755,-0.009937435388565063,-0.14198794960975647
-0.3969312310218811,-0.859876275062561,2.2823758125305176,0.19202059507369995,0.023989588022232056,-0.14014488458633423
-0.40812620520591736,-1.1388920545578003,2.48102068901062,0.15607839822769165,0.03560072183609009,-0.1215619146823883
-0.7358338832855225,-1.4370403289794922,2.4966933727264404,0.1345844864845276,0.03011724352836609,-0.05717816948890686
-1.0694855451583862,-1.6668403148651123,2.566042423248291,0.20116108655929565,0.03199777007102966,0.018005341291427612
-0.7641762495040894,-1.506581425666809,2.548649787902832,0.2305087447166443,0.05067861080169678,-0.08151280879974365
0.1518859714269638,-1.1700156927108765,2.46481990814209,0.19533449411392212,0.13719627261161804,-0.2101086974143982
1.157357096672058,-0.9384104609489441,2.6050055027008057,0.25517892837524414,0.17042213678359985,-0.24947181344032288
1.4557231664657593,-0.7316688895225525,2.691488265991211,0.2998681664466858,0.19058692455291748,-0.12251231074333191
1.0000869035720825,-0.6830310225486755,2.6682655811309814,0.2842409610748291,0.197171151638031,0.09144294261932373
0.5756096243858337,-0.806328535079956,2.6715753078460693,0.28945374488830566,0.20987606048583984,0.163837730884552
0.657718300819397,-0.811274528503418,2.6231038570404053,0.18902242183685303,0.30389881134033203,0.11151939630508423
1.0900914669036865,-0.5686559081077576,2.503509283065796,0.10461509227752686,0.3967471718788147,0.03383171558380127
1.374464750289917,-0.43262967467308044,2.4234120845794678,0.060957133769989014,0.44408512115478516,0.011597692966461182
1.2602463960647583,-0.5816603302955627,2.5358479022979736,0.17744401097297668,0.42310965061187744,0.09497952461242676
1.2292230129241943,-0.6358733177185059,2.5383636951446533,0.15062403678894043,0.42497676610946655,0.12234604358673096
1.3711038827896118,-0.46712714433670044,2.3586716651916504,0.009383410215377808,0.47949808835983276,0.12952843308448792
1.6155589818954468,-0.06926000863313675,2.038548707962036,-0.12960919737815857,0.5124354362487793,0.12500634789466858
1.870912790298462,0.2423841953277588,1.8287802934646606,-0.15386173129081726,0.48629724979400635,0.08562600612640381
1.8334314823150635,0.2569943368434906,1.8055715560913086,-0.07478764653205872,0.4324502944946289,0.08710730075836182
1.4033892154693604,0.005466842092573643,1.7808575630187988,-0.002018466591835022,0.37069064378738403,0.14115968346595764
0.868941068649292,-0.31953930854797363,1.646588921546936,0.001958981156349182,0.34451067447662354,0.2073800265789032
0.6660902500152588,-0.4650268256664276,1.3389244079589844,-0.08775050938129425,0.33229517936706543,0.1713428795337677
0.7269619107246399,-0.5597711801528931,1.2334113121032715,-0.07923498749732971,0.33045637607574463,0.11894923448562622
1.0034465789794922,-0.500055193901062,1.3078643083572388,-0.03223082423210144,0.3075680732727051,0.07371139526367188
1.1933478116989136,-0.25086116790771484,1.4118572473526,-0.036260899156332016,0.26858508586883545,0.08222851157188416
1.0977541208267212,-0.07115835696458817,1.324675440788269,-0.07749900221824646,0.2314291000366211,0.13463187217712402
0.7115994095802307,-0.1926741749048233,1.1068235635757446,-0.13969933986663818,0.21311825513839722,0.19546271860599518
0.2774209976196289,-0.5472027659416199,0.9231409430503845,-0.12890759110450745,0.1904693841934204,0.22369098663330078
0.10461840033531189,-0.7327231168746948,0.7457189559936523,-0.13926836848258972,0.1808302402496338,0.18369711935520172
0.15028417110443115,-0.671565055847168,0.6328997015953064,-0.16221192479133606,0.15059435367584229,0.1333746761083603
0.26029831171035767,-0.5182479023933411,0.6823863983154297,-0.12478971481323242,0.14020419120788574,0.10787546634674072
0.3599695563316345,-0.38975241780281067,0.817634105682373,-0.07063965499401093,0.15244686603546143,0.10453827679157257
0.453217476606369,-0.27662762999534607,0.8352952599525452,-0.19442161917686462,0.11172670125961304,0.09780705720186234
0.5470813512802124,-0.20891040563583374,0.6362099051475525,-0.33500975370407104,0.06579869985580444,0.07524603605270386
0.47700434923171997,-0.0731811672449112,0.06564139574766159,-0.4389973282814026,0.07877230644226074,0.06718695163726807
0.10966861248016357,-0.11385954171419144,-0.3959157168865204,-0.3647651970386505,0.10774660110473633,0.10315626859664917
-0.2659885883331299,-0.23464548587799072,-0.6094251871109009,-0.1342332661151886,0.14037007093429565,0.09808827191591263
-0.5017439723014832,-0.2664540708065033,-0.5717146396636963,0.05356428027153015,0.1871756911277771,0.048377275466918945
-0.619594156742096,-0.3201194703578949,-0.30794307589530945,0.1576734483242035,0.21389394998550415,0.011666536331176758
-0.5690223574638367,-0.3140915036201477,-0.19584788382053375,0.07717229425907135,0.2114514708518982,-0.037162914872169495
-0.43128833174705505,-0.18998560309410095,-0.3368203043937683,-0.10902935266494751,0.20999479293823242,-0.07879602909088135
-0.3023171126842499,-0.15297287702560425,-0.5107825398445129,-0.203789621591568,0.19716084003448486,-0.08760294318199158
-0.23096948862075806,-0.1907455027103424,-0.6365067362785339,-0.21057310700416565,0.2131252884864807,-0.0711805671453476
-0.05777363106608391,-0.21168768405914307,-0.6986041069030762,-0.15365424752235413,0.28988152742385864,-0.04008100926876068
0.22711676359176636,0.2859126627445221,-1.05524742603302,-0.16777822375297546,0.3699679970741272,-0.012960657477378845
0.5218232274055481,1.2032885551452637,-1.4486169815063477,-0.1767662763595581,0.360698401927948,0.012504801154136658
0.7430014610290527,1.681594729423523,-1.440647006034851,0.001550912857055664,0.30961257219314575,-0.0007436275482177734
0.70742267370224,1.3406418561935425,-1.1600823402404785,0.23940140008926392,0.2834208011627197,-0.0319327712059021
0.4096800684928894,0.6082910299301147,-1.0634061098098755,0.270247220993042,0.2710222005844116,-0.017456233501434326
0.10609228163957596,-0.0350259393453598,-1.3647657632827759,0.08481257408857346,0.2641752362251282,0.03648079186677933
-0.002415357856079936,-0.41022562980651855,-1.705399751663208,-0.030762597918510437,0.2639421224594116,0.03203331679105759
0.019674960523843765,-0.5116601586341858,-1.815389633178711,-0.018809914588928223,0.22472745180130005,0.027109920978546143
0.05662474036216736,-0.372444212436676,-1.6705906391143799,0.1052001565694809,0.1618754267692566,0.020166881382465363
-0.013803661800920963,-0.2504796087741852,-1.3821923732757568,0.16381704807281494,0.12395215034484863,0.025988414883613586
-0.2818065285682678,-0.13747835159301758,-1.3678604364395142,0.03623732924461365,0.15785962343215942,0.09228026866912842
-0.4469195604324341,0.009854763746261597,-1.7636183500289917,-0.13057804107666016,0.21275991201400757,0.11720634251832962
-0.29448190331459045,0.11817223578691483,-2.111743927001953,-0.13905349373817444,0.1611093282699585,0.03699345141649246
0.030276663601398468,0.3329564034938812,-2.150444269180298,-0.0092049241065979,0.08629906177520752,-0.014779388904571533
0.22290043532848358,0.4371839463710785,-1.796065092086792,0.12966850399971008,0.08358323574066162,0.0008042901754379272
-0.013287391513586044,0.5677484273910522,-1.6295150518417358,0.14665856957435608,0.041847169399261475,0.09850872308015823
-0.45982182025909424,0.727485179901123,-1.8266253471374512,-0.024275511503219604,0.07520747184753418,0.20428615808486938
-1.0038272142410278,0.660248875617981,-2.164642810821533,-0.11557242274284363,0.0485607385635376,0.22153478860855103
-1.4383398294448853,0.327389121055603,-2.3114655017852783,0.03668558597564697,-0.025871634483337402,0.1633782982826233
-1.5283714532852173,0.09933088719844818,-2.176276445388794,0.23494434356689453,-0.07090175151824951,0.05027264356613159
-1.3588310480117798,0.2805720865726471,-1.9660428762435913,0.2320002317428589,-0.06647717952728271,-0.020345449447631836
-1.1497397422790527,0.6752830147743225,-1.8241541385650635,0.20372986793518066,-0.009203553199768066,0.012250304222106934
-0.927915096282959,1.1814401149749756,-2.074536085128784,0.11807769536972046,-0.0040940046310424805,0.016078591346740723
-0.8656463623046875,0.946882426738739,-2.1647045612335205,0.19332218170166016,-0.05169355869293213,-0.02011805772781372
-1.069384217262268,0.4399716258049011,-2.004490852355957,0.3400217890739441,-0.12768417596817017,0.009539738297462463
-1.2856546640396118,0.3115696310997009,-1.61558997631073,0.42376160621643066,-0.14649808406829834,0.07247525453567505
-1.3542474508285522,0.49559178948402405,-1.4208943843841553,0.25634104013442993,-0.11665493249893188,0.09753838181495667
-1.1752688884735107,0.6970734596252441,-1.5213323831558228,0.05826210975646973,-0.04196274280548096,0.0850922167301178
-0.9370630979537964,0.7562652826309204,-1.7665168046951294,-0.09184408187866211,0.02843707799911499,0.08073288202285767
-0.6900729537010193,0.7768308520317078,-1.6538270711898804,-0.001585841178894043,0.07365024089813232,0.07817317545413971
-0.5671386122703552,1.05303955078125,-1.3215595483779907,0.2922213077545166,-0.0022408366203308105,0.08681926131248474
-0.5862990617752075,1.4757989645004272,-1.231325626373291,0.27498942613601685,-0.038658350706100464,0.12198543548583984
-0.6892439126968384,1.5573984384536743,-1.4388943910598755,0.12283366918563843,0.021266549825668335,0.1254253387451172
-0.7432907223701477,1.4966844320297241,-1.8257886171340942,-0.03427916765213013,0.14126679301261902,0.09777159988880157
-0.46800199151039124,1.6369149684906006,-2.005064010620117,-0.11928170919418335,0.2447127103805542,0.0277181938290596
-0.011854385957121849,1.9080890417099,-1.8643602132797241,0.011566698551177979,0.2830315828323364,-0.0530577227473259
0.33360931277275085,2.301952362060547,-1.9393268823623657,-0.045675694942474365,0.285195529460907,-0.036131441593170166
0.5868444442749023,2.593933582305908,-2.2231433391571045,-0.15165281295776367,0.27775320410728455,-0.009525537490844727
0.4407799541950226,2.5377135276794434,-2.545830726623535,-0.1581970453262329,0.2561238706111908,0.0565173476934433
-0.010839044116437435,2.1146442890167236,-2.7472336292266846,-0.03309774398803711,0.2678508162498474,0.11493802070617676
-0.2877448499202728,1.73079514503479,-2.815140962600708,0.1033063530921936,0.28769874572753906,0.06839405000209808
-0.5021251440048218,1.302294373512268,-2.8571388721466064,0.2163255214691162,0.24032771587371826,-0.011457905173301697
-0.7440410256385803,0.854057788848877,-2.8594577312469482,0.32543569803237915,0.20863202214241028,-0.020946040749549866
-0.8490244150161743,0.5236836671829224,-2.7327003479003906,0.38605237007141113,0.12483969330787659,-0.08266496658325195
-0.8365671038627625,0.18247921764850616,-2.4408912658691406,0.39716434478759766,0.004893198609352112,-0.14629128575325012
-0.8501883745193481,-0.3924517035484314,-1.8781424760818481,0.5137155055999756,-0.08566688001155853,-0.15380021929740906
-0.832881510257721,-0.7719523906707764,-1.219113826751709,0.5337111949920654,-0.17280395328998566,-0.12093111872673035
-0.7000792622566223,-0.8799093961715698,-0.7490441799163818,0.4379453659057617,-0.18335109949111938,-0.10659551620483398
-0.4680514335632324,-0.7709190845489502,-0.4709773063659668,0.3227453827857971,-0.13642892241477966,-0.09987103939056396
-0.17838482558727264,-0.5729612708091736,-0.306371808052063,0.23552870750427246,-0.08015279471874237,-0.09030462801456451
0.05383654311299324,-0.4266335070133209,-0.22898349165916443,0.19083982706069946,-0.03666764497756958,-0.08434426784515381
0.11795270442962646,-0.35618487000465393,-0.23279991745948792,0.19589835405349731,0.023164182901382446,-0.03969454765319824
0.09789039194583893,-0.5034196376800537,-0.3095449209213257,0.2952694892883301,0.11647701263427734,0.02344702184200287
0.05795044079422951,-0.7703577280044556,-0.38049039244651794,0.32308995723724365,0.07332991063594818,0.07300232350826263
-0.22671903669834137,-0.7879990339279175,-0.3125254213809967,0.24470603466033936,-0.10599523782730103,0.14600658416748047
-0.768097996711731,-0.4643705189228058,-0.03276313468813896,0.20700204372406006,-0.22635838389396667,0.22000814974308014
-1.1556042432785034,-0.23308885097503662,0.36248287558555603,0.23032522201538086,-0.29050546884536743,0.19797074794769287
-1.3029378652572632,-0.31766942143440247,0.7324597835540771,0.2953360080718994,-0.2615111470222473,0.08053374290466309
-1.3415952920913696,-0.469553679227829,0.9368115067481995,0.24899202585220337,-0.2043692022562027,0.004333727061748505
-1.2826441526412964,-0.5777602195739746,1.0046559572219849,0.19071245193481445,-0.13742561638355255,-0.030308499932289124
-1.1614898443222046,-0.5146142840385437,1.053551435470581,0.15941160917282104,-0.09507878124713898,-0.03307259827852249
-0.9092257022857666,-0.2541816234588623,1.1255831718444824,0.20966273546218872,-0.06082455813884735,-0.05487252026796341
-0.6727491021156311,0.0887388288974762,1.25840425491333,0.2616644501686096,-0.03739992529153824,-0.06238127499818802
-0.6054494976997375,0.22118692100048065,1.4502969980239868,0.35764622688293457,-0.03351950645446777,-0.06969726085662842
-0.7649983763694763,0.181496724486351,1.596932291984558,0.3793843388557434,-0.041467633098363876,-0.05507468432188034
-1.1120494604110718,-0.048536673188209534,1.7322146892547607,0.39707911014556885,-0.05678495764732361,-0.02618992328643799
-1.4317128658294678,-0.3453279137611389,1.9631820917129517,0.4362170696258545,-0.03498649597167969,-0.03294253349304199
-1.5665839910507202,-0.5396840572357178,2.2085492610931396,0.4320559501647949,0.01738806813955307,-0.05851375311613083
-1.597616195678711,-0.6222532391548157,2.3823084831237793,0.37123537063598633,0.07310448586940765,-0.06895779818296432
-1.5385327339172363,-0.6314302682876587,2.4579343795776367,0.3149619698524475,0.11609949171543121,-0.07690823078155518
-1.543237566947937,-0.6700661182403564,2.414095640182495,0.279596209526062,0.12056943774223328,-0.07486510276794434
-1.5943994522094727,-0.8358595371246338,2.397198438644409,0.29066938161849976,0.13406842947006226,-0.055371642112731934
-1.5613124370574951,-1.0162293910980225,2.5343222618103027,0.3196912407875061,0.1529180407524109,-0.06275629997253418
-1.4462815523147583,-1.0665600299835205,2.5504422187805176,0.2863621115684509,0.17535975575447083,-0.05422108992934227
-1.4351253509521484,-1.0790565013885498,2.4781432151794434,0.2350679636001587,0.17156875133514404,-0.03773850202560425
-1.620890736579895,-1.2216413021087646,2.44511342048645,0.2431889772415161,0.14504754543304443,0.020649254322052002
-1.9262334108352661,-1.4728535413742065,2.515011787414551,0.2763253450393677,0.14117610454559326,0.08384031057357788
-1.9588525295257568,-1.5519771575927734,2.6715121269226074,0.3219330906867981,0.15952473878860474,0.05878986418247223
-1.6749101877212524,-1.3930292129516602,2.767063856124878,0.3326730728149414,0.18694084882736206,-0.004625752568244934
-1.1652101278305054,-1.013279676437378,2.7412304878234863,0.2862175703048706,0.20424902439117432,-0.09910231828689575
-0.9017868041992188,-0.9148353338241577,2.762460470199585,0.32622164487838745,0.16782903671264648,-0.12013459205627441
-1.0014742612838745,-1.0618380308151245,2.78311824798584,0.3479493260383606,0.16468244791030884,-0.03148844838142395
-0.8625743985176086,-1.1324188709259033,2.8521342277526855,0.2986680865287781,0.2181820273399353,0.0011285245418548584
-0.08720163255929947,-0.5371144413948059,2.959141492843628,0.20105987787246704,0.31398242712020874,-0.0533885657787323
1.184414267539978,0.49983933568000793,2.76865553855896,-0.015779078006744385,0.38071686029434204,-0.1985938847064972
2.0925121307373047,1.0474988222122192,2.5288515090942383,-0.06270956993103027,0.35481101274490356,-0.2172745168209076
2.1697449684143066,0.907138466835022,2.46116042137146,0.07927119731903076,0.31276601552963257,-0.06568992137908936
1.6342846155166626,0.3976081311702728,2.530503988265991,0.2014290988445282,0.2522268295288086,0.11955413222312927
0.9417166113853455,-0.019107544794678688,2.572319746017456,0.20682460069656372,0.257210910320282,0.26070210337638855
0.7315457463264465,-0.09064747393131256,2.442476272583008,0.05136963725090027,0.3468177914619446,0.24091604351997375
0.9076610207557678,0.20148800313472748,2.1466872692108154,-0.11624255776405334,0.45265430212020874,0.15726181864738464
1.1520018577575684,0.618065595626831,1.814758539199829,-0.21463650465011597,0.5124362111091614,0.11685419082641602
1.2125391960144043,0.8526580333709717,1.5563448667526245,-0.24983224272727966,0.5313262343406677,0.1254679560661316
1.117647647857666,0.9571859240531921,1.2250577211380005,-0.2931707501411438,0.5598922967910767,0.14661180973052979
0.9324002265930176,1.017539381980896,0.8466967344284058,-0.3123808801174164,0.5642231702804565,0.14722830057144165
0.6961238384246826,1.0272718667984009,0.5604523420333862,-0.3019492030143738,0.5347529649734497,0.12607884407043457
0.4390681982040405,1.0097641944885254,0.32391229271888733,-0.25172972679138184,0.49106431007385254,0.10140872001647949
0.25953224301338196,1.0100430250167847,0.10896802693605423,-0.2272980660200119,0.47117894887924194,0.042459968477487564
0.07726168632507324,0.9268578290939331,-0.05148656666278839,-0.18596762418746948,0.42965418100357056,-0.00784171000123024
-0.03763822838664055,0.8175129294395447,-0.2302478849887848,-0.1792907565832138,0.40104907751083374,-0.042954981327056885
-0.05906986445188522,0.7704197764396667,-0.5028716921806335,-0.18317796289920807,0.3730586767196655,-0.09655320644378662
0.01579652540385723,0.807829737663269,-0.8371317982673645,-0.21498246490955353,0.3597789406776428,-0.1516098976135254
0.11166001111268997,0.8880547285079956,-1.1099011898040771,-0.20544950664043427,0.3143343925476074,-0.18767696619033813
0.2730720341205597,0.7567726969718933,-1.0938116312026978,-0.0925079882144928,0.27314168214797974,-0.22253543138504028
0.2949354350566864,0.25452521443367004,-1.046649694442749,-0.023177236318588257,0.20944005250930786,-0.22085833549499512
0.04925627261400223,-0.3327251374721527,-1.0884705781936646,-0.06454846262931824,0.209464430809021,-0.126606285572052
-0.37303346395492554,-0.7689360976219177,-1.2495219707489014,-0.13308238983154297,0.2148040533065796,-0.039102792739868164
-0.7108490467071533,-0.9807619452476501,-1.5150200128555298,-0.17657101154327393,0.22015804052352905,0.015441179275512695
-0.5787072777748108,-1.0101830959320068,-1.6285293102264404,-0.13291588425636292,0.18024861812591553,-0.04956858977675438
-0.20338448882102966,-0.9258764982223511,-1.5008140802383423,-0.0434628427028656,0.1688053011894226,-0.10140026360750198
-0.042859986424446106,-0.8343142867088318,-1.4211972951889038,-0.03482896089553833,0.1675553321838379,-0.046994566917419434
-0.09971058368682861,-0.6511315703392029,-1.6765737533569336,-0.12088310718536377,0.16204601526260376,0.04111284017562866
-0.05914131924510002,-0.6173213720321655,-1.9061230421066284,-0.09782162308692932,0.13472312688827515,0.030661404132843018
0.0621337890625,-0.6686624884605408,-1.9799857139587402,-0.026736557483673096,0.08268868923187256,-0.0025882571935653687
0.2736826539039612,-0.6934921741485596,-1.8120977878570557,0.02698451280593872,0.11592519283294678,0.023388870060443878
0.6613145470619202,-0.47257936000823975,-1.6803067922592163,0.026793062686920166,0.14771389961242676,0.04917801916599274
1.0989161729812622,-0.07289590686559677,-1.693010926246643,-0.058418214321136475,0.17248845100402832,0.07717729359865189
1.2728197574615479,0.18974556028842926,-1.8894025087356567,-0.13672369718551636,0.2311868667602539,0.13928407430648804
1.0663437843322754,0.1961912214756012,-2.0562145709991455,-0.15322303771972656,0.2653960585594177,0.20344483852386475
0.6897937059402466,0.11324601620435715,-1.9362998008728027,-0.006858110427856445,0.21920055150985718,0.22324973344802856
0.24861344695091248,-0.1093655377626419,-1.7024917602539062,0.0772901177406311,0.22341305017471313,0.20847034454345703
-0.1304931789636612,-0.36330893635749817,-1.6663130521774292,0.013005554676055908,0.24534529447555542,0.18732333183288574
-0.3599916100502014,-0.486299604177475,-1.9994112253189087,-0.1229400634765625,0.32365113496780396,0.1564120054244995
-0.3759593367576599,-0.1315961629152298,-2.499448299407959,-0.18331491947174072,0.3441244959831238,0.12426101416349411
-0.24587194621562958,0.16789692640304565,-2.4747841358184814,-0.004159450531005859,0.29450511932373047,0.05553097277879715
-0.11969798803329468,0.07385990768671036,-1.8079118728637695,0.32698386907577515,0.2172619104385376,-0.007908403873443604
-0.18766501545906067,-0.04054983705282211,-1.266842007637024,0.4610324501991272,0.17233961820602417,0.020917657762765884
-0.3995385766029358,-0.03839695081114769,-1.628339171409607,0.22974497079849243,0.13792455196380615,0.05086864158511162
-0.6311947107315063,0.2763770818710327,-2.315232753753662,0.02210301160812378,0.12507200241088867,0.08578426390886307
-0.5618741512298584,0.9050520658493042,-2.707284927368164,0.05471181869506836,0.050698310136795044,0.046808257699012756
-0.328912615776062,0.7985828518867493,-1.9095345735549927,0.5308124423027039,-0.01152050495147705,-0.08829057216644287
-0.3145238757133484,0.39261895418167114,-1.1990242004394531,0.7148113250732422,-0.05949968099594116,-0.10924524068832397
-0.43380412459373474,0.16921404004096985,-1.2947509288787842,0.2951684594154358,0.023435205221176147,-0.01856326311826706
-0.58187335729599,0.3729899525642395,-1.8879283666610718,-0.0953521728515625,0.12130290269851685,0.05769825354218483
-0.7091071009635925,0.7162082195281982,-2.7033135890960693,-0.21590638160705566,0.134775310754776,0.08533585071563721
-0.7117041349411011,0.8006700277328491,-2.650570869445801,0.08673131465911865,0.08649235963821411,-0.005194900557398796
-0.8363525867462158,0.2973366677761078,-2.032055139541626,0.5118082165718079,-0.05968482792377472,-0.041077375411987305
-1.107962727546692,-0.16234007477760315,-1.6384745836257935,0.46561992168426514,-0.11079508066177368,-0.021917998790740967
-1.2192957401275635,-0.21066920459270477,-1.5921485424041748,0.20995384454727173,-0.11305221170186996,-0.01142787840217352
-1.1110197305679321,-0.045416150242090225,-1.6268260478973389,0.057217538356781006,-0.06297129392623901,-0.0404050350189209
-0.8767978549003601,0.14509248733520508,-1.5926817655563354,0.0566750168800354,-0.051592499017715454,-0.07749545574188232
-0.7057749629020691,0.1974293440580368,-1.3724746704101562,0.14090222120285034,-0.062207192182540894,-0.09071588516235352
-0.6002926230430603,0.1762254387140274,-1.0742135047912598,0.26999950408935547,-0.1324523687362671,-0.10743129253387451
-0.5282192826271057,0.18634001910686493,-0.9668014645576477,0.25081658363342285,-0.15704399347305298,-0.10784101486206055
-0.4514114260673523,0.28691309690475464,-1.0278428792953491,0.14599478244781494,-0.14228489995002747,-0.1071324348449707
-0.3749232292175293,0.3803505003452301,-1.0717895030975342,0.09113341569900513,-0.13045620918273926,-0.10753536224365234
-0.3613649308681488,0.34015968441963196,-0.9663995504379272,0.09143084287643433,-0.12135337293148041,-0.09434139728546143
-0.36284568905830383,0.2063755840063095,-0.6821062564849854,0.22101283073425293,-0.138139545917511,-0.08393096923828125
-0.41126567125320435,0.16968858242034912,-0.6490047574043274,0.16392678022384644,-0.15540704131126404,-0.06617188453674316
-0.42611849308013916,0.21885086596012115,-0.7485381960868835,0.0867275595664978,-0.13785625994205475,-0.0487980842590332
-0.4010544717311859,0.2840133011341095,-0.8027509450912476,0.09793174266815186,-0.12123966217041016,-0.05667543411254883
-0.4395022392272949,0.30754342675209045,-0.7508578300476074,0.14434927701950073,-0.12441782653331757,-0.05585264787077904
-0.4868628680706024,0.26778167486190796,-0.6338247656822205,0.16319376230239868,-0.11740848422050476,-0.05421853065490723
-0.49627432227134705,0.18323729932308197,-0.4955863356590271,0.1928461790084839,-0.1054224967956543,-0.06820547580718994
-0.4928896129131317,0.09837935864925385,-0.39097461104393005,0.19986850023269653,-0.06714573502540588,-0.0700986385345459
-0.46549466252326965,0.015369070693850517,-0.26736199855804443,0.1969161033630371,-0.04698598384857178,-0.06673884391784668
-0.38307851552963257,-0.104932501912117,-0.04805793613195419,0.2091076374053955,-0.052905142307281494,-0.07630491256713867
-0.3105967342853546,-0.18648791313171387,0.10005822032690048,0.17270201444625854,-0.07316219806671143,-0.06208491325378418
-0.21925191581249237,-0.17249391973018646,0.17880059778690338,0.11999434232711792,-0.061505645513534546,-0.03396964073181152
-0.10693211853504181,-0.11185730993747711,0.26258403062820435,0.09251415729522705,-0.06444782018661499,-0.011873245239257812
-0.021111927926540375,-0.06492834538221359,0.3621494174003601,0.11405426263809204,-0.04680994153022766,0.026200056076049805
0.07460297644138336,-0.06744957715272903,0.5060074925422668,0.17907798290252686,-0.04533882439136505,0.07813215255737305
0.060702770948410034,-0.01892390102148056,0.6429244875907898,0.2312367558479309,-0.0917145162820816,0.12871992588043213
-0.3032943904399872,0.07589881122112274,0.8425600528717041,0.22918957471847534,-0.1135556548833847,0.22400999069213867
-0.7839159965515137,-0.029383685439825058,0.9842800498008728,0.2441641092300415,-0.11082318425178528,0.2672240734100342
-1.1620014905929565,-0.25002622604370117,1.0886996984481812,0.2617213726043701,-0.09920959174633026,0.23528289794921875
-1.2919279336929321,-0.3369140326976776,1.2115000486373901,0.2821720242500305,-0.08754083514213562,0.15768086910247803
-1.166589617729187,-0.27434873580932617,1.3684216737747192,0.29006749391555786,-0.07133994251489639,0.08634865283966064
-0.92389976978302,-0.11545255780220032,1.6096806526184082,0.30300819873809814,-0.06412362307310104,0.024448402225971222
-0.7296401858329773,0.03445817530155182,1.7579039335250854,0.2979222536087036,-0.062156885862350464,-0.003726847469806671
-0.7371427416801453,0.08512509614229202,1.8032560348510742,0.22477006912231445,-0.04776948690414429,0.016633518040180206
-0.7678786516189575,0.031134286895394325,1.8144564628601074,0.20930349826812744,-0.02385002374649048,0.005218863487243652
-0.745685338973999,-0.053302884101867676,1.8406974077224731,0.21051979064941406,-0.014138489961624146,-0.026582002639770508
-0.7199631929397583,-0.11243490874767303,1.9170193672180176,0.23107993602752686,-0.006600335240364075,-0.04294823855161667
-0.633101224899292,-0.11302165687084198,2.063559055328369,0.26126229763031006,0.0025707483291625977,-0.06251609325408936
-0.5071883797645569,-0.041959911584854126,2.14636492729187,0.2798001170158386,0.011502966284751892,-0.09253227710723877
-0.4001752734184265,-0.0005180989392101765,2.1772520542144775,0.25015294551849365,0.04742860794067383,-0.1156158447265625
-0.32556450366973877,0.00019366375636309385,2.13200044631958,0.19824731349945068,0.09119588136672974,-0.11502718925476074
-0.2981395125389099,-0.03004288487136364,1.9601740837097168,0.12393921613693237,0.12918460369110107,-0.11813391000032425
-0.43415647745132446,-0.17848868668079376,1.8773833513259888,0.14060992002487183,0.12036728858947754,-0.09278655797243118
-0.6122018098831177,-0.466830313205719,1.9627070426940918,0.23098140954971313,0.07247921824455261,-0.05561709403991699
-0.6257575154304504,-0.4287838637828827,2.098036289215088,0.29013586044311523,0.05383187532424927,-0.0508652925491333
-0.47749602794647217,-0.24706348776817322,2.277719020843506,0.2780742049217224,0.06511685252189636,-0.09890091419219971
-0.3735423982143402,-0.16643694043159485,2.331146717071533,0.24928659200668335,0.12212479114532471,-0.1269792914390564
-0.3680872917175293,-0.2373582422733307,2.286606788635254,0.16738420724868774,0.15297144651412964,-0.1375824213027954
-0.3375423550605774,-0.4565509855747223,2.3059844970703125,0.15153682231903076,0.20581769943237305,-0.1294950246810913
-0.28548288345336914,-0.6884369850158691,2.1407928466796875,0.055275678634643555,0.262032687664032,-0.13228237628936768
-0.18680769205093384,-0.812818706035614,1.7024645805358887,-0.09165245294570923,0.33309584856033325,-0.11202728748321533
-0.16993221640586853,-0.8187939524650574,1.155253529548645,-0.19326502084732056,0.33492225408554077,-0.06288891285657883
-0.054587092250585556,-0.8206937909126282,1.1978579759597778,-0.05025440454483032,0.31053227186203003,-0.06867831945419312
0.15440823137760162,-0.8629153370857239,1.7418299913406372,0.25025635957717896,0.2211018204689026,-0.09788214415311813
0.30392035841941833,-0.9072735905647278,1.9171979427337646,0.17654544115066528,0.23730289936065674,-0.06918459385633469
0.4128122627735138,-0.7637653946876526,1.546327829360962,-0.08205574750900269,0.3351200222969055,-0.027086250483989716
0.31851863861083984,-0.71241295337677,1.2186914682388306,-0.14284765720367432,0.32641613483428955,0.01274728775024414
0.1809939444065094,-0.8467380404472351,1.2964245080947876,0.018464267253875732,0.2815207839012146,0.033897995948791504
0.18604177236557007,-0.8934877514839172,1.4123389720916748,0.03494143486022949,0.2776452898979187,0.015924885869026184
0.24157097935676575,-0.8414201140403748,1.4736616611480713,0.002865433692932129,0.2967261075973511,0.030696049332618713
0.22470492124557495,-0.7226388454437256,1.3109418153762817,-0.05861884355545044,0.2822691798210144,0.031648412346839905
0.24054637551307678,-0.6226362586021423,1.2024234533309937,-0.05130836367607117,0.25877875089645386,0.03294581174850464
0.3663412034511566,-0.6207854151725769,1.171689510345459,-0.04379180073738098,0.2168492078781128,-0.0008383989334106445
0.5463850498199463,-0.542079508304596,1.1151293516159058,-0.08191454410552979,0.23185300827026367,-0.00011725723743438721
0.5645160675048828,-0.44760656356811523,0.9920984506607056,-0.11455205082893372,0.21649497747421265,0.034069791436195374
0.4986770451068878,-0.4696905314922333,0.8241141438484192,-0.14176782965660095,0.19727271795272827,0.08009755611419678
0.43348750472068787,-0.5110317468643188,0.6462973356246948,-0.15879619121551514,0.18266940116882324,0.08911067247390747
0.3807390630245209,-0.5311530828475952,0.5277747511863708,-0.14390742778778076,0.15366196632385254,0.09415853023529053
0.3531939387321472,-0.551496148109436,0.47736045718193054,-0.11086204648017883,0.1281830072402954,0.09800166636705399
0.35546445846557617,-0.502402126789093,0.40262332558631897,-0.13665494322776794,0.13142961263656616,0.09402599185705185
0.36755552887916565,-0.38794219493865967,0.2578674256801605,-0.1527256965637207,0.12656593322753906,0.09961666911840439
0.31503209471702576,-0.34120771288871765,0.15237820148468018,-0.15484032034873962,0.11742186546325684,0.08862514048814774
0.2705810070037842,-0.2480822056531906,0.05749122053384781,-0.1156623363494873,0.11183637380599976,0.09854817390441895
0.2602119445800781,-0.22731637954711914,0.04671106114983559,-0.08903264999389648,0.10332107543945312,0.0660395622253418
0.21409346163272858,-0.23395751416683197,0.04527721554040909,-0.04569166898727417,0.07194644212722778,0.07697939872741699
0.17157746851444244,-0.24835757911205292,0.05394016206264496,-0.06220352649688721,0.0821448564529419,0.08338107168674469
0.19241170585155487,-0.20017403364181519,0.07419782131910324,-0.055789560079574585,0.09525060653686523,0.0920298770070076
0.25538942217826843,0.013262295164167881,-0.07223094254732132,-0.11028942465782166,0.10819858312606812,0.07291758805513382
0.2703988254070282,0.19025608897209167,-0.20784355700016022,-0.1183488667011261,0.09940743446350098,0.049661166965961456
0.1364281326532364,0.1270037740468979,-0.2325897216796875,-0.06658545136451721,0.08928048610687256,0.05965268611907959
-0.041099246591329575,-0.08389168232679367,-0.18903665244579315,-0.011922687292098999,0.06055772304534912,0.060731880366802216
-0.173041433095932,-0.2314116209745407,-0.24901039898395538,-0.03691557049751282,0.06709074974060059,0.06429469585418701
-0.2768253684043884,-0.22117522358894348,-0.3675524592399597,-0.0731620192527771,0.07229387760162354,0.06954497843980789
-0.3512476682662964,-0.0909700021147728,-0.47648167610168457,-0.09137827157974243,0.06270396709442139,0.06539636850357056
-0.3999269902706146,-0.04877933859825134,-0.490875244140625,-0.057814329862594604,0.05268263816833496,0.051502227783203125
-0.40263834595680237,-0.02064448967576027,-0.46518391370773315,-0.028585880994796753,0.05433249473571777,0.012577369809150696
-0.3546382784843445,0.0811484083533287,-0.5080310702323914,-0.03637602925300598,0.046335577964782715,-0.020173586905002594
-0.28526419401168823,0.1577794849872589,-0.5459195971488953,-0.03718942403793335,0.029970526695251465,-0.05832308530807495
-0.28642675280570984,0.15764857828617096,-0.5927241444587708,-0.02716803550720215,0.018338024616241455,-0.08373486250638962
-0.4302014410495758,0.09751196205615997,-0.6629308462142944,-0.027742326259613037,0.007377803325653076,-0.0891573429107666
-0.7177538871765137,-0.07540065050125122,-0.6951450705528259,-0.016120314598083496,-0.0064907073974609375,-0.08297193050384521
-1.046074390411377,-0.37290841341018677,-0.7630725502967834,-0.021629691123962402,0.0013826489448547363,-0.09531800448894501
-1.068983793258667,-0.7403246164321899,-0.8589443564414978,-0.04586440324783325,0.04461848735809326,-0.13336575031280518
-0.6442780494689941,-0.9954737424850464,-0.8634496331214905,-0.02360910177230835,0.03998035192489624,-0.2098863124847412
-0.08955083042383194,-0.9484045505523682,-0.7347661256790161,0.033907532691955566,0.022074341773986816,-0.22336840629577637
0.27984142303466797,-0.6217114329338074,-0.549338698387146,0.05281269550323486,0.01568657159805298,-0.15136456489562988
0.3714388310909271,-0.3137096166610718,-0.4933355152606964,0.03946280479431152,0.01013338565826416,-0.058563947677612305
0.29586294293403625,-0.24981550872325897,-0.5073731541633606,0.01535886526107788,-0.007756233215332031,-0.011430948972702026
0.24523241817951202,-0.41243210434913635,-0.493487149477005,0.0360029935836792,-0.01378101110458374,-0.0051277875900268555
0.1344924122095108,-0.6202885508537292,-0.49167680740356445,0.028959810733795166,-0.005276620388031006,0.00580286979675293
0.08415048569440842,-0.7120541334152222,-0.5217952728271484,0.003495514392852783,0.006442427635192871,0.04484154284000397
0.015187826007604599,-0.6568868160247803,-0.556747317314148,0.016674339771270752,-0.0007492899894714355,0.05367809534072876
-0.11411125212907791,-0.5277989506721497,-0.5271574854850769,0.04273337125778198,-0.018706977367401123,0.08334028720855713
-0.3144763708114624,-0.4903014004230499,-0.4651029706001282,0.04881066083908081,-0.021786272525787354,0.09867227077484131
-0.3949624001979828,-0.5783593654632568,-0.5046730041503906,0.04539269208908081,-0.008894503116607666,0.07302811741828918
-0.3201427161693573,-0.6168115735054016,-0.5279929637908936,0.04767554998397827,-0.005189716815948486,0.025508195161819458
-0.18245340883731842,-0.5105712413787842,-0.4605626165866852,0.09622609615325928,-0.014096081256866455,0.016380369663238525
-0.03591591492295265,-0.22774581611156464,-0.3616938889026642,0.08802682161331177,-0.028216183185577393,0.020616501569747925
0.1005697026848793,0.03541363775730133,-0.26925891637802124,0.072623610496521,-0.028293848037719727,0.02777111530303955
0.28026634454727173,0.20068563520908356,-0.18430542945861816,0.05841660499572754,-0.023080170154571533,0.003991484642028809
0.3498017191886902,0.2961328327655792,-0.14281606674194336,0.041325509548187256,-0.023188471794128418,0.012461990118026733
0.24714094400405884,0.2085912972688675,-0.15216796100139618,0.022084176540374756,-0.018924951553344727,0.04200008511543274
0.0666155219078064,0.060733646154403687,-0.159990593791008,-0.005287349224090576,-0.014313042163848877,0.06859448552131653
-0.13838054239749908,-0.10783524811267853,-0.1772698014974594,0.000617682933807373,-0.00717085599899292,0.07255885004997253
-0.23134049773216248,-0.1826823651790619,-0.24849142134189606,-0.02884209156036377,0.008320868015289307,0.06496298313140869
-0.1450629085302353,-0.1231025829911232,-0.2829550802707672,-0.018837451934814453,0.0033888816833496094,0.026679039001464844
-0.0377376489341259,0.04804837331175804,-0.281808465719223,-0.007527053356170654,-0.0047335028648376465,0.009237438440322876
-0.045328035950660706,0.13598811626434326,-0.21060217916965485,0.026470661163330078,-0.024190068244934082,0.015206098556518555
-0.12781377136707306,0.08681509643793106,-0.15464261174201965,0.05307096242904663,-0.038475632667541504,0.024139404296875
-0.23604799807071686,-0.05132400244474411,-0.1666877716779709,0.03857576847076416,-0.026360273361206055,0.020977318286895752
-0.2984798550605774,-0.13350695371627808,-0.20837056636810303,-0.0006677508354187012,-0.02261120080947876,0.009779095649719238
-0.26615768671035767,-0.14159084856510162,-0.18845044076442719,0.010962247848510742,-0.013622760772705078,-0.004076480865478516
-0.15839390456676483,-0.012483665719628334,-0.20089936256408691,-0.007555663585662842,0.0035834908485412598,-0.010715514421463013
-0.04206624999642372,0.16773684322834015,-0.17188352346420288,-0.02024388313293457,0.013435959815979004,-0.011572301387786865
0.026584800332784653,0.2823641002178192,-0.1307341605424881,0.02842116355895996,0.013001501560211182,-0.012727588415145874
-2.1500512957572937e-05,0.25562363862991333,-0.09823466837406158,0.058937013149261475,0.007739841938018799,-0.006980925798416138
-0.03711354732513428,0.17486891150474548,-0.0788341760635376,0.0571671724319458,0.01158684492111206,-0.0007160007953643799
-0.07495097070932388,0.15768855810165405,-0.07118465006351471,0.028220653533935547,0.01831573247909546,0.007032573223114014
-0.11985442787408829,0.19978860020637512,-0.07638103514909744,0.004450678825378418,0.016006767749786377,0.02331864833831787
-0.23262934386730194,0.185228630900383,-0.09733565896749496,-0.013606667518615723,0.011582732200622559,0.025580227375030518
-0.3733277916908264,0.0783809944987297,-0.08537383377552032,0.009094178676605225,-0.0026504993438720703,0.02982771396636963
-0.45724621415138245,-0.004988946486264467,-0.06989794224500656,0.016020357608795166,-0.01022249460220337,0.012326627969741821
-0.5013056397438049,-0.022771771997213364,-0.08324533700942993,0.0018192529678344727,-0.012495100498199463,0.002980858087539673
-0.4659770429134369,0.028343092650175095,-0.09613581001758575,0.001398622989654541,-0.016768932342529297,-0.0151328444480896
-0.37820249795913696,0.07518269866704941,-0.0759221762418747,0.02300715446472168,-0.02457791566848755,-0.0408635139465332
-0.28227031230926514,0.10937539488077164,-0.05620715767145157,0.01450735330581665,-0.024296343326568604,-0.056347161531448364
-0.23752716183662415,0.10397452116012573,-0.020438749343156815,0.019347846508026123,-0.03043341636657715,-0.052814096212387085
-0.20802070200443268,0.0968492329120636,0.005363112315535545,0.0060593485832214355,-0.016991257667541504,-0.04640635848045349
-0.16048674285411835,0.044688377529382706,0.03669142723083496,0.011803627014160156,-0.01916450262069702,-0.04392749071121216
-0.04820113629102707,0.002581156324595213,0.01176338642835617,-0.02908545732498169,0.0015083551406860352,-0.04944071173667908
0.0547909215092659,0.024505378678441048,-0.007372462656348944,-0.04952436685562134,0.0025047659873962402,-0.04428419470787048
0.10852411389350891,0.09556853771209717,-0.06706152856349945,-0.07557660341262817,0.00535893440246582,-0.017481237649917603
0.07839739322662354,0.09386450052261353,-0.1088980883359909,-0.07207709550857544,-0.0032764673233032227,-0.006225675344467163
0.022291893139481544,0.0230967178940773,-0.05572723224759102,-0.038829147815704346,-0.014810562133789062,-0.0016076266765594482
-0.025318622589111328,0.004291056655347347,-0.04498602822422981,-0.015301406383514404,-0.021503567695617676,-0.006142526865005493
-0.030735794454813004,0.02938350848853588,-0.021646179258823395,-0.007460117340087891,-0.02539217472076416,-0.01893863081932068
-0.02660663239657879,0.0577683262526989,-0.014588099904358387,0.012117207050323486,-0.029891550540924072,-0.036985546350479126
-0.02727910876274109,0.05125659704208374,0.03817722946405411,0.03916668891906738,-0.02916252613067627,-0.04595935344696045
-0.026387285441160202,0.012350978329777718,0.07154472917318344,0.0515938401222229,-0.022399723529815674,-0.04777461290359497
-0.016616564244031906,-0.02936943620443344,0.07600928843021393,0.049424171447753906,-0.0037376880645751953,-0.04379439353942871
0.023586921393871307,-0.04179088771343231,0.07248976081609726,0.044493138790130615,0.004469871520996094,-0.038439005613327026
0.0762634351849556,-0.009439753368496895,0.09239095449447632,0.04602545499801636,0.0077817440032958984,-0.02787134051322937
0.13665622472763062,0.05300646275281906,0.1348056048154831,0.06319892406463623,0.008359789848327637,-0.010765433311462402
0.1624639928340912,0.12121938914060593,0.15399527549743652,0.06530004739761353,0.01850670576095581,0.007943421602249146
0.11630907654762268,0.13861016929149628,0.17525531351566315,0.05917090177536011,0.024164855480194092,0.03381630778312683
0.03663189336657524,0.13048143684864044,0.19838199019432068,0.050985753536224365,0.02792966365814209,0.0603468120098114
-0.08772359788417816,0.11438729614019394,0.18337328732013702,0.013727366924285889,0.035466134548187256,0.07789674401283264
-0.2293192744255066,0.11280479282140732,0.1575670838356018,-0.01943516731262207,0.03977704048156738,0.09103918075561523
-0.34603291749954224,0.11067263782024384,0.13160520792007446,-0.042063891887664795,0.041196465492248535,0.08910256624221802
-0.3894374370574951,0.10415128618478775,0.05571041628718376,-0.06794297695159912,0.04100489616394043,0.058660268783569336
-0.3940751850605011,0.0796978548169136,-0.004179667215794325,-0.0737115740776062,0.034568190574645996,0.02557334303855896
-0.4027288258075714,0.033139001578092575,-0.026743736118078232,-0.045292019844055176,0.02429330348968506,0.007101774215698242
-0.39081010222435,0.004903164226561785,-0.015014255419373512,-0.03129279613494873,0.012350857257843018,-0.01076042652130127
-0.31070345640182495,0.04155368730425835,0.014295332133769989,-0.010889947414398193,0.0015263557434082031,-0.028669357299804688
-0.1874765008687973,0.09253745526075363,0.019162528216838837,-0.021181046962738037,-0.007399380207061768,-0.05350419878959656
-0.09065000712871552,0.08204710483551025,0.0008241692557930946,-0.015719354152679443,-0.02028721570968628,-0.05887153744697571
-0.06356646865606308,0.02607255056500435,-0.03804709389805794,-0.01647096872329712,-0.027383506298065186,-0.04812559485435486
-0.08347608149051666,-0.023802408948540688,-0.030807625502347946,-0.004236102104187012,-0.032947540283203125,-0.030236095190048218
-0.1282118260860443,-0.0508761890232563,0.03758230432868004,0.0298272967338562,-0.038255512714385986,-0.013981550931930542
-0.1364966779947281,-0.0667884349822998,0.0982799082994461,0.04384046792984009,-0.037776291370391846,-0.018227308988571167
-0.10973834246397018,-0.0767928957939148,0.11602520197629929,0.02912318706512451,-0.030468285083770752,-0.01861119270324707
-0.04618428647518158,-0.055831555277109146,0.07985632866621017,-0.006459176540374756,-0.013502717018127441,-0.021357178688049316
-0.01526191458106041,-0.013637511990964413,0.030537132173776627,-0.03546547889709473,-1.895427703857422e-05,-0.005626261234283447
-0.03337227925658226,-0.002151332562789321,0.03197358921170235,-0.026285648345947266,0.010438919067382812,0.0073435306549072266
-0.09049539268016815,-0.02109965682029724,0.09310504794120789,0.006824910640716553,0.013448238372802734,0.017211705446243286
-0.13834775984287262,-0.041066572070121765,0.09273119270801544,0.006042003631591797,0.0163995623588562,0.01825636625289917
-0.14532966911792755,-0.07497813552618027,0.03344302624464035,-0.029236793518066406,0.029531657695770264,0.0030307769775390625
-0.11318332701921463,-0.10058680176734924,-0.011980792507529259,-0.03038102388381958,0.03134500980377197,-0.010662734508514404
-0.06781725585460663,-0.07983271032571793,-0.04266958683729172,-0.020536959171295166,0.026578187942504883,-0.01346820592880249
-0.03613150864839554,-0.0325334407389164,-0.015408255159854889,-0.007636845111846924,0.01889050006866455,-0.009435653686523438
-0.05382010340690613,0.004920474719256163,0.029216323047876358,0.02482503652572632,0.005879342555999756,0.003519803285598755
-0.10047028958797455,-0.017300156876444817,0.01524020079523325,0.02220618724822998,0.0025539398193359375,0.009777814149856567
-0.144755557179451,-0.06360886991024017,-0.021907096728682518,0.006473898887634277,-0.0021622776985168457,0.00755658745765686
-0.12292589992284775,-0.0826721042394638,-0.03558335080742836,0.004772543907165527,-0.0056552886962890625,-0.0016652345657348633
-0.05864419415593147,-0.05033870041370392,-0.03216070309281349,-0.0001544952392578125,-0.002424299716949463,-0.009320974349975586
0.002513633109629154,0.018124477937817574,-0.00402738805860281,0.004117786884307861,-0.004988312721252441,-0.007195860147476196
0.024272670969367027,0.05171654373407364,0.012754187919199467,0.0142020583152771,-0.008608698844909668,0.0010637342929840088
0.006779738701879978,0.023401467129588127,0.010618550702929497,0.0166969895362854,-0.011257708072662354,0.0052745044231414795
-0.0717272162437439,-0.04091610014438629,0.0092339888215065,0.012712717056274414,-0.013783454895019531,0.01714456081390381
-0.15472343564033508,-0.08307704329490662,0.004255020525306463,0.013609588146209717,-0.012389719486236572,0.024879157543182373
-0.16462355852127075,-0.07843110710382462,0.01802746206521988,0.019237160682678223,-0.007686197757720947,0.010767340660095215
-0.11124371737241745,-0.041390299797058105,-0.004962685517966747,-0.001083970069885254,0.004797697067260742,-0.009936660528182983
-0.04326958209276199,-0.0036048516631126404,-0.012239892967045307,-0.0065822601318359375,0.009342968463897705,-0.023182332515716553
0.03744378685951233,0.021539369598031044,-0.00014313869178295135,0.003406703472137451,0.008847832679748535,-0.031979888677597046
0.07343881577253342,0.037473391741514206,0.027162373065948486,0.014543890953063965,0.008581459522247314,-0.026218175888061523
0.026503698900341988,0.02838236093521118,0.037423599511384964,0.015331685543060303,0.0034238100051879883,-0.00344771146774292
-0.0389452688395977,-0.020782342180609703,0.010007280856370926,0.003920853137969971,0.007472693920135498,0.009958595037460327
-0.07292595505714417,-0.06748691201210022,-0.01043740101158619,-0.004579484462738037,0.013183355331420898,0.006294190883636475
-0.05993744730949402,-0.04008804261684418,-0.028882987797260284,-0.018582642078399658,0.020028233528137207,0.0031176209449768066
-0.02554527297616005,0.031671132892370224,-0.06113044545054436,-0.030855655670166016,0.025306344032287598,0.0022264719009399414
0.02272466942667961,0.06687550246715546,-0.060038816183805466,-0.01862359046936035,0.018882572650909424,-0.01197323203086853
0.02245943620800972,0.05388547107577324,0.02776385471224785,0.032308995723724365,0.012234508991241455,-0.007861346006393433
-0.028804074972867966,0.03176740184426308,0.04089770093560219,0.0356060266494751,0.002342820167541504,0.011135339736938477
-0.09551836550235748,0.008626963011920452,0.0098512452095747,-0.00011616945266723633,0.00427168607711792,0.020707428455352783
-0.12938915193080902,0.006042650900781155,0.006435150280594826,0.002952754497528076,-0.003936707973480225,0.018134355545043945
-0.12794317305088043,0.017146382480859756,0.002020607702434063,-0.00305861234664917,-0.006377577781677246,0.008984088897705078
-0.12528389692306519,0.03293852508068085,-0.01109088584780693,-0.013748705387115479,-0.001705169677734375,0.0021275579929351807
-0.1332656443119049,0.011542041786015034,-0.0033567273057997227,-0.010993242263793945,-0.0009184479713439941,-0.009274512529373169
-0.1595982015132904,-0.051493000239133835,0.013456800952553749,0.0008168816566467285,-0.006191670894622803,-0.011336475610733032
-0.13774748146533966,-0.10234138369560242,-0.029665030539035797,-0.022934138774871826,0.00041347742080688477,-0.027587175369262695
-0.08706540614366531,-0.1393890380859375,-0.040586456656455994,-0.025145649909973145,-0.002384960651397705,-0.039183974266052246
-0.029046490788459778,-0.12180478870868683,-0.03364960476756096,-0.008259773254394531,-0.007909297943115234,-0.036540865898132324
0.042112089693546295,-0.08277400583028793,-0.021666735410690308,-0.0024416446685791016,-0.0112801194190979,-0.03818404674530029
0.12403067946434021,-0.06118965148925781,-0.0189039446413517,0.0054146647453308105,-0.008131325244903564,-0.03719532489776611
0.14226309955120087,-0.06161189079284668,0.006200558505952358,0.011899292469024658,-0.00876694917678833,-0.025674879550933838
0.08900690078735352,-0.06877963244915009,0.009778272360563278,0.012043654918670654,-0.01243048906326294,0.00738564133644104
-0.0015226961113512516,-0.07152009755373001,0.012624342925846577,-0.0009707808494567871,-0.011789917945861816,0.024314582347869873
-0.07451947778463364,-0.1177421435713768,0.07986240088939667,0.025015175342559814,-0.01709800958633423,0.0272846519947052
-0.12638254463672638,-0.15959849953651428,0.12138014286756516,0.031418800354003906,-0.015067636966705322,0.016680240631103516
-0.1498505026102066,-0.151838481426239,0.12598676979541779,0.014361798763275146,-0.002758502960205078,0.01564919948577881
-0.11855645477771759,-0.1183905079960823,0.12272484600543976,0.001038670539855957,5.221366882324219e-05,0.0055043697357177734
-0.133015975356102,-0.11698467284440994,0.13699300587177277,-0.003061830997467041,-0.0016170740127563477,0.00824582576751709
-0.17772339284420013,-0.11666126549243927,0.14877888560295105,-0.0026731491088867188,-0.005781769752502441,0.019957542419433594
-0.196120947599411,-0.12335363030433655,0.14247815310955048,0.00486445426940918,-0.020108044147491455,0.018238723278045654
-0.20258548855781555,-0.1581861972808838,0.15105408430099487,0.012404918670654297,-0.025586426258087158,0.00969994068145752
-0.2730897068977356,-0.2603144645690918,0.2123529314994812,0.034178316593170166,-0.03421676158905029,0.028600066900253296
-0.5547351837158203,-0.49215778708457947,0.2530762553215027,0.04429507255554199,-0.04130232334136963,0.08366554975509644
-0.826096773147583,-0.5949547290802002,0.2599656283855438,0.04227668046951294,-0.03112053871154785,0.1279069185256958
-0.9474503397941589,-0.5498365759849548,0.18009942770004272,0.0005424618721008301,-0.015829086303710938,0.11420804262161255
-0.8871943354606628,-0.34517452120780945,0.07773542404174805,-0.026050806045532227,0.0068857669830322266,0.08836096525192261
-0.678156316280365,-0.11009123176336288,0.06527969241142273,-0.012344121932983398,-0.0017380118370056152,0.03842538595199585
-0.48844701051712036,0.08942984789609909,0.06972580403089523,-0.005112648010253906,-0.0020134449005126953,0.022830724716186523
-0.3109129071235657,0.23247933387756348,0.07422037422657013,-0.006108343601226807,0.0042702555656433105,0.006384789943695068
-0.20801164209842682,0.322936475276947,0.04878503084182739,-0.008915841579437256,0.010867595672607422,-0.0029677152633666992
-0.14443936944007874,0.37866297364234924,0.018570683896541595,-0.013678789138793945,0.017414867877960205,-0.010775566101074219
-0.07870595157146454,0.3768693506717682,0.015182286500930786,-0.0018519163131713867,0.01396644115447998,-0.027528822422027588
-0.05243412405252457,0.3448377847671509,0.011226233094930649,-0.001807570457458496,0.02416008710861206,-0.030222058296203613
-0.04101414978504181,0.30565258860588074,0.038352176547050476,-0.00692594051361084,0.03283810615539551,-0.029717326164245605
-0.07937583327293396,0.2842074930667877,0.027916258201003075,-0.01454859972000122,0.04109710454940796,-0.02209186553955078
-0.16445878148078918,0.2314782440662384,-0.035750601440668106,-0.054000139236450195,0.05789762735366821,-0.011017560958862305
-0.2759496867656708,0.10886272042989731,-0.07625342905521393,-0.052250683307647705,0.06723588705062866,0.0004757046699523926
-0.38897407054901123,0.027210017666220665,-0.15034827589988708,-0.06718850135803223,0.0822228193283081,0.012308359146118164
-0.4536784589290619,-0.027644941583275795,-0.2150975614786148,-0.0744209885597229,0.09497261047363281,0.013174295425415039
-0.40976840257644653,-0.041443780064582825,-0.2347206175327301,-0.07185709476470947,0.10758256912231445,0.006039679050445557
-0.2663232684135437,0.06502178311347961,-0.28078755736351013,-0.08284032344818115,0.12099581956863403,0.008062601089477539
-0.11041227728128433,0.25487253069877625,-0.3667219579219818,-0.10827410221099854,0.12995797395706177,0.015174567699432373
0.010602295398712158,0.4709145426750183,-0.49210065603256226,-0.0935056209564209,0.12385112047195435,0.023716509342193604
0.05184601619839668,0.543742299079895,-0.5696349143981934,-0.049193501472473145,0.09707760810852051,0.0170900821685791
0.11345114558935165,0.4743242859840393,-0.5108340978622437,0.03219717741012573,0.06549257040023804,0.007330894470214844
0.29100164771080017,0.47439947724342346,-0.3805689811706543,0.035175859928131104,0.06146806478500366,-0.0013932883739471436
0.5070055723190308,0.5461099743843079,-0.3061407804489136,0.00028318166732788086,0.06509733200073242,0.007458090782165527
0.3960406184196472,0.5859611630439758,-0.4217790961265564,-0.050448834896087646,0.04805135726928711,0.06420066952705383
0.18266773223876953,0.38144055008888245,-0.4784972667694092,-0.03632664680480957,0.0410003662109375,0.11703091859817505
0.04887643828988075,0.13005825877189636,-0.43506380915641785,-0.03796356916427612,0.038410842418670654,0.1227598488330841
0.040595926344394684,-0.023528294637799263,-0.34363746643066406,-0.059600830078125,0.05678659677505493,0.12750446796417236
0.1475970596075058,-0.11781356483697891,-0.3106374442577362,-0.1042441725730896,0.08144617080688477,0.13049328327178955
0.43679752945899963,-0.052407827228307724,-0.3707674443721771,-0.17589199542999268,0.1393718719482422,0.14055484533309937
0.8708931803703308,0.19929218292236328,-0.47975072264671326,-0.21835440397262573,0.1805121898651123,0.1255427896976471
0.9938302636146545,0.5943872928619385,-0.7887478470802307,-0.2780521512031555,0.21510982513427734,0.1862976849079132
0.8817609548568726,0.9746879935264587,-0.9968196153640747,-0.21241092681884766,0.20999521017074585,0.2338276207447052
0.4720304310321808,1.0246808528900146,-1.1425793170928955,-0.12010735273361206,0.1443212628364563,0.26057422161102295
-0.041997965425252914,0.7206993103027344,-1.3113809823989868,-0.10601073503494263,0.1431286334991455,0.30175650119781494
-0.34076961874961853,0.45904165506362915,-1.4873095750808716,-0.13398408889770508,0.1538068652153015,0.2877027988433838
-0.3925464451313019,0.542982816696167,-1.7136664390563965,-0.1755920648574829,0.1879778504371643,0.251924991607666
-0.19229142367839813,0.9974347949028015,-1.7965643405914307,-0.08632409572601318,0.1935194730758667,0.17419889569282532
-0.18734946846961975,1.3567255735397339,-1.71724534034729,0.048425137996673584,0.11397010087966919,0.13318121433258057
-0.2994788587093353,1.3040765523910522,-1.708069086074829,0.0968359112739563,0.09428444504737854,0.1220460832118988
-0.3553693890571594,1.0457719564437866,-1.7640641927719116,0.05553215742111206,0.09395769238471985,0.07178950309753418
-0.39891770482063293,0.8898812532424927,-1.8385096788406372,0.049511730670928955,0.10855421423912048,0.05307137966156006
-0.406232088804245,0.8862079977989197,-1.8274515867233276,0.11755895614624023,0.10965365171432495,0.05049711465835571
-0.3837519586086273,0.9175955653190613,-1.7624499797821045,0.1946147084236145,0.07412317395210266,0.029720544815063477
-0.371184766292572,0.8747871518135071,-1.7339719533920288,0.21136540174484253,0.05124591290950775,0.009220853447914124
-0.42967620491981506,0.7482929825782776,-1.6937506198883057,0.18529874086380005,0.04689285159111023,0.018923044204711914
-0.5141230821609497,0.576813280582428,-1.5314335823059082,0.18269985914230347,0.04212348163127899,0.03461982309818268
-0.5562123656272888,0.4910990595817566,-1.4155583381652832,0.23759454488754272,0.016968712210655212,0.029277056455612183
-0.5026715397834778,0.4921087920665741,-1.464369535446167,0.16290587186813354,-0.001423269510269165,0.013071835041046143
-0.3699999451637268,0.6010307669639587,-1.60929274559021,0.06623268127441406,-0.011377662420272827,0.0025974512100219727
-0.18301329016685486,0.8596090078353882,-1.6937118768692017,0.05954784154891968,0.003999354317784309,0.02096398174762726
0.038214027881622314,1.0924066305160522,-1.7165331840515137,0.10665267705917358,0.011555967852473259,0.038053661584854126
0.15877556800842285,1.1922023296356201,-1.763429880142212,0.12405592203140259,-0.013801906257867813,0.0549442321062088
0.12645527720451355,1.1878714561462402,-1.7511675357818604,0.1263335943222046,-0.04921344667673111,0.07636536657810211
0.004514577332884073,1.1345713138580322,-1.6320222616195679,0.1385149359703064,-0.08123144507408142,0.0819772481918335
-0.16824795305728912,1.043253779411316,-1.4857338666915894,0.15874046087265015,-0.09370334446430206,0.06758081167936325
-0.3678068220615387,0.9730674028396606,-1.4959074258804321,0.12861090898513794,-0.08446873724460602,0.041646961122751236
-0.5151214599609375,0.9697760939598083,-1.6007007360458374,0.12916576862335205,-0.04881054162979126,0.00816875696182251
-0.5406664609909058,0.9551722407341003,-1.6342233419418335,0.20994150638580322,-0.04107353091239929,-0.05088841915130615
-0.5948724746704102,0.8601655960083008,-1.429552674293518,0.34287095069885254,-0.08894336223602295,-0.10352373123168945
-0.6959344744682312,0.7046946287155151,-1.2251455783843994,0.4080706834793091,-0.11859491467475891,-0.13623130321502686
-0.7072175741195679,0.5331346392631531,-1.0219430923461914,0.4015471935272217,-0.13970789313316345,-0.19282090663909912
-0.5506086349487305,0.37621891498565674,-0.8062692284584045,0.40755850076675415,-0.1561821699142456,-0.2623417377471924
-0.27018094062805176,0.22325055301189423,-0.5106699466705322,0.43562763929367065,-0.17993596196174622,-0.32355260848999023
0.048319220542907715,0.14567060768604279,-0.2744428217411041,0.4132300615310669,-0.20138844847679138,-0.3484795093536377
0.32119202613830566,0.13424137234687805,-0.04157256335020065,0.3829877972602844,-0.20434772968292236,-0.3295375108718872
0.4282825291156769,0.04750976338982582,0.23971526324748993,0.36678189039230347,-0.23695892095565796,-0.2827349901199341
0.4170839488506317,-0.1361984759569168,0.4803069233894348,0.3272072672843933,-0.2437957227230072,-0.22511446475982666
0.38852062821388245,-0.3119133412837982,0.6662367582321167,0.2815566062927246,-0.22853389382362366,-0.1786484718322754
0.3689359128475189,-0.4141504466533661,0.8493881821632385,0.25977540016174316,-0.20408570766448975,-0.1423780918121338
0.26473358273506165,-0.4505213797092438,1.0736243724822998,0.2442028522491455,-0.20121565461158752,-0.09963130950927734
0.14433251321315765,-0.48539769649505615,1.308014988899231,0.24169760942459106,-0.17477717995643616,-0.06977272033691406
0.0648246482014656,-0.540510356426239,1.497808814048767,0.23841124773025513,-0.13290782272815704,-0.06989002972841263
0.007420956157147884,-0.5783683061599731,1.6685640811920166,0.24972611665725708,-0.07519641518592834,-0.07382607460021973
-0.11823507398366928,-0.6532912850379944,1.823481798171997,0.26385581493377686,-0.03357505798339844,-0.062713623046875
-0.32729068398475647,-0.8308759927749634,1.9162063598632812,0.27803850173950195,-0.009918555617332458,-0.062064170837402344
-0.5218877196311951,-1.0148221254348755,2.0397493839263916,0.3116775155067444,0.0243462473154068,-0.06765234470367432
-0.6265682578086853,-1.2064709663391113,2.334585428237915,0.43964719772338867,0.027546457946300507,-0.09828025102615356
-0.6426013708114624,-1.3776906728744507,2.610819101333618,0.5218577980995178,0.0506587028503418,-0.12110502272844315
-0.6382858157157898,-1.491603136062622,2.7462940216064453,0.5065582394599915,0.12115976214408875,-0.12329041957855225
-0.6475220322608948,-1.6112438440322876,2.7449915409088135,0.46074914932250977,0.1561322808265686,-0.11300194263458252
-0.6535197496414185,-1.7498592138290405,2.7171785831451416,0.4116135239601135,0.1912166178226471,-0.09741652011871338
-0.5586908459663391,-1.8396931886672974,2.6745641231536865,0.35660320520401,0.20486530661582947,-0.07811689376831055
-0.3690646290779114,-1.801914095878601,2.705474615097046,0.3578711748123169,0.2015768587589264,-0.08183765411376953
-0.23069044947624207,-1.7714191675186157,2.765418529510498,0.34681761264801025,0.17690792679786682,-0.062269002199172974
-0.2118060141801834,-1.7691445350646973,2.769357204437256,0.34119343757629395,0.16174107789993286,-0.023423314094543457
-0.3013075888156891,-1.9144227504730225,2.6277952194213867,0.25619614124298096,0.1668156385421753,-0.007866740226745605
-0.37979787588119507,-2.1824564933776855,2.513814926147461,0.20662915706634521,0.20192039012908936,0.027999520301818848
-0.1412462294101715,-2.2137820720672607,2.4880776405334473,0.18297958374023438,0.2272033989429474,-0.00434151291847229
0.2900421619415283,-2.052730083465576,2.3739078044891357,0.10357731580734253,0.2473648190498352,-0.045582711696624756
0.4971546530723572,-1.8869367837905884,2.2227683067321777,0.030792832374572754,0.24200528860092163,0.015241265296936035
0.6805824637413025,-1.7520612478256226,2.170088529586792,0.06176197528839111,0.2387654185295105,0.053974032402038574
0.8450183868408203,-1.5785794258117676,2.089273452758789,0.03731703758239746,0.24180424213409424,0.06184345483779907
0.8860229849815369,-1.6223927736282349,1.9655067920684814,-0.0031888484954833984,0.2697256803512573,0.07240581512451172
0.7610744833946228,-1.698813796043396,1.7870526313781738,-0.03594410419464111,0.2809072732925415,0.1313948631286621
0.7423084378242493,-1.6485891342163086,1.5715283155441284,-0.07483881711959839,0.2855575680732727,0.142198383808136
0.8151679635047913,-1.5488600730895996,1.4714593887329102,-0.054501861333847046,0.28112727403640747,0.10813713073730469
0.8606331944465637,-1.6123112440109253,1.444577932357788,-0.007630109786987305,0.2806103229522705,0.09383159875869751
0.8161699175834656,-1.5499756336212158,1.2830232381820679,-0.046289652585983276,0.2823367714881897,0.1374955177307129
0.9796963930130005,-1.3510221242904663,1.073393702507019,-0.08274340629577637,0.3018280863761902,0.10457539558410645
1.0678870677947998,-1.2301082611083984,0.9383019208908081,-0.09009265899658203,0.2886759042739868,0.08925974369049072
0.918383002281189,-1.236723780632019,0.9300432205200195,-0.02346053719520569,0.24872779846191406,0.13589102029800415
0.650508463382721,-1.294472098350525,0.8147273659706116,-0.023281127214431763,0.21458762884140015,0.17020341753959656
0.5427964329719543,-1.275070309638977,0.6059520840644836,-0.07335050404071808,0.2239917516708374,0.16614598035812378
0.5834415555000305,-1.0893319845199585,0.5002560019493103,-0.07560217380523682,0.1956620216369629,0.12263041734695435
0.5906453132629395,-0.9289088845252991,0.5616737008094788,0.016507774591445923,0.15970689058303833,0.07293349504470825
0.4024469554424286,-0.8975460529327393,0.6061532497406006,0.048655033111572266,0.1150617003440857,0.09835496544837952
0.44613438844680786,-0.9145721793174744,0.7397832274436951,0.06623673439025879,0.11690187454223633,0.06636878848075867
0.44095689058303833,-0.907762348651886,0.6541846990585327,0.013954848051071167,0.09704303741455078,0.05415421724319458
0.3139447867870331,-0.8085729479789734,0.436678409576416,-0.05871863663196564,0.09828150272369385,0.09253916144371033
0.36382734775543213,-0.7035805583000183,0.4061325788497925,-0.0516553670167923,0.09048253297805786,0.07649040222167969
0.5164175629615784,-0.5629662275314331,0.455740362405777,-0.01318351924419403,0.08766621351242065,0.037038981914520264
0.5494552254676819,-0.5518150329589844,0.45076844096183777,-0.027033835649490356,0.0993582010269165,0.05157908797264099
0.49318861961364746,-0.5762598514556885,0.352334588766098,-0.06484859436750412,0.11306136846542358,0.08759233355522156
0.35557466745376587,-0.5872758030891418,0.19524186849594116,-0.10198913514614105,0.103554368019104,0.10746443271636963
0.2174459546804428,-0.5988354682922363,0.0902540534734726,-0.09385401010513306,0.09112787246704102,0.10448595881462097
0.15030930936336517,-0.5654513239860535,0.0589698851108551,-0.07508145272731781,0.07860976457595825,0.08146026730537415
0.1587476283311844,-0.5243067145347595,0.0828855037689209,-0.07610000669956207,0.07941216230392456,0.06259840726852417
0.2198033183813095,-0.4764038026332855,0.09938061982393265,-0.0707695484161377,0.08693259954452515,0.05073833465576172
0.3181591331958771,-0.4246542155742645,0.022800136357545853,-0.09517662227153778,0.1072431206703186,0.03595525026321411
0.35157421231269836,-0.39523160457611084,-0.12295081466436386,-0.13324642181396484,0.12784695625305176,0.04078197479248047
0.2941437363624573,-0.4341225028038025,-0.23386237025260925,-0.1319192498922348,0.1379404067993164,0.06788262724876404
0.2244795560836792,-0.4961073398590088,-0.3018382489681244,-0.10864335298538208,0.14587807655334473,0.07536685466766357
0.18814781308174133,-0.5030010342597961,-0.3496277630329132,-0.09400349110364914,0.16017937660217285,0.08098971843719482
0.139966681599617,-0.37594082951545715,-0.41809672117233276,-0.10899341851472855,0.16622477769851685,0.09106957912445068
0.14290349185466766,-0.26169347763061523,-0.4425446391105652,-0.10869012773036957,0.17667162418365479,0.09477120637893677
0.2149694561958313,-0.14990077912807465,-0.5048034191131592,-0.11887013912200928,0.19079822301864624,0.06930148601531982
0.17572946846485138,-0.12287050485610962,-0.6363345384597778,-0.15436528623104095,0.20613890886306763,0.08413556218147278
-0.055642835795879364,-0.12388121336698532,-0.7963048219680786,-0.16142141819000244,0.19680702686309814,0.12119114398956299
-0.3376162648200989,-0.18123936653137207,-0.8690588474273682,-0.10554537177085876,0.18263715505599976,0.122966468334198
-0.49630245566368103,-0.25560271739959717,-0.9041465520858765,-0.0537094846367836,0.1656895875930786,0.07092490792274475
-0.4636966288089752,-0.29589465260505676,-0.9679662585258484,-0.05720747262239456,0.18485099077224731,0.029586344957351685
-0.33342528343200684,-0.19463147222995758,-1.1013944149017334,-0.10674495995044708,0.22737479209899902,0.015411049127578735
-0.15715333819389343,0.06759952008724213,-1.2947765588760376,-0.16242274641990662,0.2866858243942261,0.03908148407936096
0.16327804327011108,0.4362785816192627,-1.5092389583587646,-0.1655789613723755,0.3171622157096863,0.03231924772262573
0.4363747835159302,0.7679290771484375,-1.524482011795044,-0.06419789791107178,0.2825966477394104,0.006315171718597412
0.6679013967514038,0.8166189789772034,-1.3360222578048706,0.044555261731147766,0.25720280408859253,0.002368450164794922
0.7736040949821472,0.6170461773872375,-1.2465683221817017,0.02344474196434021,0.2845699191093445,0.0232541561126709
0.7324785590171814,0.27676156163215637,-1.4273391962051392,-0.09958645701408386,0.3759366273880005,0.07656428217887878
0.3572445213794708,0.10727677494287491,-1.8746215105056763,-0.23242396116256714,0.43967223167419434,0.15603923797607422
-0.08537843823432922,0.04798939824104309,-2.1302714347839355,-0.16512957215309143,0.4567502737045288,0.19628497958183289
-0.29011663794517517,-0.037523869425058365,-2.252501964569092,-0.08210334181785583,0.4512374997138977,0.1529717743396759
-0.2651297152042389,-0.10131294280290604,-2.4072887897491455,-0.08660170435905457,0.4985719323158264,0.11713817715644836
-0.27692824602127075,-0.0945151150226593,-2.8042237758636475,-0.19930338859558105,0.5616220235824585,0.15469205379486084
-0.4266048073768616,0.018792830407619476,-3.4289462566375732,-0.36352813243865967,0.6563067436218262,0.2650652229785919
-0.5518451929092407,0.01400019135326147,-3.7481374740600586,-0.282090961933136,0.714564859867096,0.32181382179260254
-0.6124870181083679,0.38764169812202454,-3.975452184677124,0.016017615795135498,0.5830414891242981,0.24333420395851135
-0.409567266702652,0.9456952214241028,-3.646003007888794,0.38175809383392334,0.4204856753349304,0.09937518835067749
-0.24906077980995178,1.3612385988235474,-3.253495216369629,0.678194522857666,0.18856149911880493,-0.05548667907714844
-0.43578189611434937,1.2188208103179932,-3.16155743598938,0.5014172792434692,0.08698970079421997,-0.010544031858444214
-0.8200245499610901,0.7782175540924072,-3.107483148574829,0.4225195050239563,0.09204021096229553,0.06254419684410095
-1.3927055597305298,0.7931740880012512,-3.459796190261841,0.21164631843566895,0.152459979057312,0.2054523229598999
-1.6061800718307495,0.8499990701675415,-3.3819425106048584,0.24696505069732666,0.17365935444831848,0.13631096482276917
-1.3499689102172852,1.094940185546875,-2.952756881713867,0.645664632320404,0.10535705089569092,-0.04542654752731323
-1.0948415994644165,1.39718496799469,-2.909952402114868,0.5423063635826111,0.05509805679321289,-0.09059575200080872
-0.9543569087982178,1.6599400043487549,-3.1591742038726807,0.3515784740447998,0.09701566398143768,-0.03355333209037781
-0.9726743698120117,1.666108250617981,-3.4267568588256836,0.30746424198150635,0.1608496904373169,0.009499728679656982
-1.1646900177001953,1.5448060035705566,-3.5340070724487305,0.37439966201782227,0.19294962286949158,0.02979731559753418
-1.4050904512405396,1.5192264318466187,-3.529463768005371,0.44350916147232056,0.17828905582427979,0.040953293442726135
-1.5096404552459717,1.7094292640686035,-3.587801933288574,0.5077172517776489,0.1642301082611084,0.007216691970825195
-1.316170334815979,2.0588018894195557,-3.6261885166168213,0.5965023040771484,0.13573822379112244,-0.08485913276672363
-0.9276766777038574,2.362689971923828,-3.4921674728393555,0.6973069310188293,0.02791699767112732,-0.2039393186569214
-0.7464379668235779,2.243272066116333,-2.9884567260742188,0.8136311769485474,-0.11608296632766724,-0.2631317377090454
-0.8818200826644897,1.6169219017028809,-2.122225046157837,0.9539234638214111,-0.26360565423965454,-0.2731274366378784
-0.9548935890197754,0.593424916267395,-1.3113070726394653,0.9154015183448792,-0.3514759838581085,-0.3191854953765869
-0.7414905428886414,-0.38579219579696655,-0.6124820709228516,0.7763834595680237,-0.35174888372421265,-0.3853214979171753
-0.24252064526081085,-1.0073587894439697,-0.015314541757106781,0.6398881077766418,-0.29156774282455444,-0.3932466506958008
0.3092153072357178,-1.0964329242706299,0.3668060004711151,0.4359859228134155,-0.2495306432247162,-0.31834864616394043
0.7216850519180298,-0.9402713179588318,0.5795688629150391,0.2882760167121887,-0.1963110864162445,-0.2076624631881714
0.9649960994720459,-0.651853084564209,0.652685284614563,0.16967153549194336,-0.16179752349853516,-0.09406250715255737
0.9857985377311707,-0.43758997321128845,0.6517549753189087,0.08798003196716309,-0.15401047468185425,-0.0025865398347377777
0.7798929810523987,-0.30279603600502014,0.5589091181755066,0.015285670757293701,-0.1466643214225769,0.08359616994857788
0.4558326005935669,-0.24578693509101868,0.48836183547973633,-0.004462599754333496,-0.14074262976646423,0.1373755931854248
0.09328580647706985,-0.2040126621723175,0.47015953063964844,0.02277475595474243,-0.15004998445510864,0.1638055443763733
-0.2563222348690033,-0.18456338346004486,0.5151522755622864,0.06103646755218506,-0.15498891472816467,0.15439456701278687
-0.5236291289329529,-0.15771128237247467,0.5812475085258484,0.07139647006988525,-0.16381999850273132,0.11013209819793701
-0.6824812293052673,-0.1978532373905182,0.6961572766304016,0.11565810441970825,-0.15449604392051697,0.05520457774400711
-0.7294211387634277,-0.2703680992126465,0.785973846912384,0.1530035138130188,-0.1291879415512085,-0.008616693317890167
-0.6783671975135803,-0.3583384156227112,0.9213189482688904,0.18341833353042603,-0.10770425200462341,-0.057231657207012177
-0.5824881196022034,-0.45609432458877563,1.092292070388794,0.21113896369934082,-0.09305369853973389,-0.0813378095626831
-0.4563533067703247,-0.5746713876724243,1.280545711517334,0.2609831690788269,-0.07581490278244019,-0.09810429811477661
-0.38644444942474365,-0.6510436534881592,1.4395614862442017,0.288965106010437,-0.07281544804573059,-0.08721018582582474
-0.3386914134025574,-0.6621052026748657,1.5484145879745483,0.30116790533065796,-0.03078603744506836,-0.0654495358467102
-0.2992934286594391,-0.6893810033798218,1.6584763526916504,0.31918996572494507,-0.018506571650505066,-0.06226830929517746
-0.27732425928115845,-0.7781679630279541,1.818307876586914,0.3412090539932251,0.008845165371894836,-0.05927903950214386
-0.2917149066925049,-0.9097176790237427,2.016157865524292,0.34429365396499634,0.02165091037750244,-0.04165041446685791
-0.18068909645080566,-0.9668159484863281,2.1700644493103027,0.3526013493537903,0.05249079316854477,-0.040264829993247986
-0.02188744954764843,-0.910162091255188,2.2148494720458984,0.3505643606185913,0.07943224906921387,-0.05925559997558594
0.15838931500911713,-0.7904655933380127,2.3110032081604004,0.35869699716567993,0.09818750619888306,-0.06883721053600311
0.3634076416492462,-0.6278306841850281,2.3905842304229736,0.34299468994140625,0.12443968653678894,-0.07104265689849854
0.5774744153022766,-0.4002634882926941,2.4644603729248047,0.2871212959289551,0.16175910830497742,-0.06941378116607666
0.774139404296875,-0.11315956711769104,2.5727431774139404,0.23101669549942017,0.18625397980213165,-0.05758880078792572
0.8599096536636353,0.012994799762964249,2.753373384475708,0.2035563588142395,0.19713790714740753,-0.038699135184288025
0.7783320546150208,-0.08493009954690933,2.7334141731262207,0.1282033920288086,0.20691730082035065,-0.005618557333946228
0.5523624420166016,-0.36309459805488586,2.464357376098633,0.021403074264526367,0.222549706697464,0.03593099117279053
0.343711793422699,-0.5982069373130798,2.181032180786133,-0.006552398204803467,0.21439555287361145,0.031978145241737366
0.11590646952390671,-0.7813889384269714,2.090184211730957,0.07266265153884888,0.17400729656219482,0.04146715998649597
-0.02679981291294098,-0.8268978595733643,2.209091901779175,0.23383909463882446,0.12297436594963074,0.015952900052070618
0.1007455363869667,-0.765251636505127,2.3745527267456055,0.2977207899093628,0.1153942346572876,-0.03979328274726868
0.33999955654144287,-0.5526321530342102,2.3246207237243652,0.2331550121307373,0.13734334707260132,-0.09641146659851074
0.43452563881874084,-0.49145379662513733,2.2962989807128906,0.24487638473510742,0.13089346885681152,-0.1160224974155426
0.29886484146118164,-0.58841472864151,2.4021904468536377,0.3093442916870117,0.10990893840789795,-0.05451047420501709
0.31612086296081543,-0.6864365339279175,2.585418701171875,0.3192360997200012,0.12471181154251099,-0.046424031257629395
0.4506421387195587,-0.6025500297546387,2.5538337230682373,0.18616360425949097,0.18551862239837646,-0.053508102893829346
0.5922232270240784,-0.47474661469459534,2.4374196529388428,0.08364319801330566,0.24995636940002441,-0.03294384479522705
0.6083304286003113,-0.37108540534973145,2.3899223804473877,0.09468913078308105,0.2429932951927185,-0.030041038990020752
0.49412041902542114,-0.4897857904434204,2.421205520629883,0.14171838760375977,0.23609942197799683,0.001219332218170166
0.16676785051822662,-0.7710382342338562,2.410351514816284,0.14783024787902832,0.206434428691864,0.0316811203956604
-0.01271427795290947,-1.027527093887329,2.393146514892578,0.1518077254295349,0.21061992645263672,0.03998193144798279
0.1639651507139206,-0.9290724992752075,2.302988052368164,0.07572215795516968,0.2384137511253357,-0.0061938464641571045
0.564791202545166,-0.6052038669586182,2.2075355052948,0.056834012269973755,0.2632073163986206,-0.07996457815170288
0.9172788262367249,-0.26913538575172424,2.182502508163452,0.059610605239868164,0.2558910846710205,-0.09746196866035461
1.1144342422485352,-0.1271144449710846,2.297175645828247,0.0779750645160675,0.2561950087547302,-0.0817655622959137
1.1922791004180908,-0.1425396203994751,2.3732993602752686,0.07259687781333923,0.28113269805908203,-0.03875383734703064
1.0510740280151367,-0.2781282663345337,2.2112927436828613,-0.004643559455871582,0.2893815040588379,-0.010124847292900085
0.9078701138496399,-0.5229224562644958,2.118278741836548,-0.007443830370903015,0.31790411472320557,0.02641160786151886
0.7589908242225647,-0.5953658819198608,1.9401538372039795,-0.05184273421764374,0.3212962746620178,0.052556395530700684
0.6505303382873535,-0.5742546319961548,1.810965895652771,-0.07381303608417511,0.32487642765045166,0.0719258189201355
0.5901735424995422,-0.5127171277999878,1.725501298904419,-0.08217567205429077,0.31036317348480225,0.08128589391708374
0.6510074734687805,-0.3468785881996155,1.621629238128662,-0.11367218941450119,0.3387072682380676,0.07750475406646729
0.6737921833992004,-0.23234422504901886,1.5016779899597168,-0.17394600808620453,0.34534233808517456,0.07289089262485504
0.5468371510505676,-0.1085808128118515,1.2444984912872314,-0.24172580242156982,0.36095237731933594,0.1190938949584961
0.33959996700286865,-0.15020573139190674,0.9502421617507935,-0.2646840214729309,0.35451215505599976,0.13195478916168213
0.12349860370159149,-0.25428307056427,0.6797733902931213,-0.2781674563884735,0.3334476947784424,0.12667584419250488
0.06603477150201797,-0.32478854060173035,0.4746074080467224,-0.2746497690677643,0.3318633437156677,0.10660351812839508
0.12873472273349762,-0.21358346939086914,0.2524268329143524,-0.30632713437080383,0.33980822563171387,0.08587635308504105
0.2513635456562042,0.004877019207924604,-0.009776432067155838,-0.30573827028274536,0.3387734293937683,0.09030038118362427
0.2996905744075775,0.22737018764019012,-0.27911391854286194,-0.2930620312690735,0.29419147968292236,0.10081636905670166
0.319411039352417,0.3231743276119232,-0.4140184819698334,-0.2406044602394104,0.26433706283569336,0.11768800020217896
0.2622469365596771,0.34293824434280396,-0.48158082365989685,-0.20182499289512634,0.2703794836997986,0.13655294477939606
0.07394115626811981,0.3422623574733734,-0.5503438115119934,-0.2068173885345459,0.2893828749656677,0.17562027275562286
-0.11805911362171173,0.38984087109565735,-0.7375720143318176,-0.25306785106658936,0.33804523944854736,0.1974797248840332
-0.20098543167114258,0.4746972918510437,-1.008817434310913,-0.30986934900283813,0.3810679316520691,0.1614190936088562
-0.17287634313106537,0.5449924468994141,-1.274755835533142,-0.32322314381599426,0.4309619665145874,0.13628751039505005
-0.002155493712052703,0.6366751194000244,-1.6049758195877075,-0.3145453631877899,0.48725539445877075,0.1191600114107132
0.11067401617765427,0.8042397499084473,-1.9018033742904663,-0.280040442943573,0.49998247623443604,0.12490451335906982
0.040467582643032074,0.8452615141868591,-1.9626113176345825,-0.18838326632976532,0.49720603227615356,0.1523817777633667
-0.32104870676994324,0.7625691294670105,-1.9918657541275024,-0.121915802359581,0.4838222861289978,0.20033325254917145
-0.7893611192703247,0.7056303024291992,-2.1455118656158447,-0.09412302076816559,0.46837174892425537,0.19938693940639496
-1.1375566720962524,0.5939019322395325,-2.320674180984497,-0.0637214183807373,0.4458354115486145,0.1338942050933838
-1.1563071012496948,0.4364265203475952,-2.5163590908050537,-0.04017072916030884,0.4577471613883972,0.05601327121257782
-0.9676648378372192,0.5169435143470764,-2.7681896686553955,-0.02251797914505005,0.4514473080635071,-0.006704151630401611
-0.8003925681114197,0.8935835361480713,-2.9147722721099854,0.0725964903831482,0.39965736865997314,-0.028876185417175293
-0.7202110886573792,1.2103009223937988,-2.897932767868042,0.23265251517295837,0.3098589777946472,-0.046482622623443604
-0.6728320717811584,1.1579625606536865,-2.9278202056884766,0.3154107928276062,0.21107429265975952,-0.10046970844268799
-0.5004433393478394,0.9201321005821228,-2.9440274238586426,0.29139024019241333,0.18005138635635376,-0.14128436148166656
-0.3565877676010132,0.6955098509788513,-2.7751691341400146,0.32828211784362793,0.14735108613967896,-0.14894545078277588
-0.3766583204269409,0.818477988243103,-2.5864744186401367,0.334075391292572,0.12610554695129395,-0.0740719884634018
-0.4639163315296173,1.0656986236572266,-2.575058937072754,0.277147114276886,0.1050264835357666,-0.013421878218650818
-0.6406866908073425,0.9637245535850525,-2.679633855819702,0.129111647605896,0.1510114073753357,0.02316570281982422
-0.8168504238128662,0.6271560192108154,-2.5883142948150635,0.16952717304229736,0.2118161916732788,0.0382649302482605
-1.014844298362732,0.5447534918785095,-2.5090808868408203,0.24867570400238037,0.2284213900566101,0.06252557039260864
-1.255280613899231,0.5796828269958496,-2.690457820892334,0.18246746063232422,0.21580034494400024,0.07485586404800415
-1.4283589124679565,0.7173283696174622,-3.0606067180633545,0.05520474910736084,0.24348458647727966,0.09627151489257812
-1.428742527961731,0.7941865921020508,-3.168816566467285,0.11336737871170044,0.2722611129283905,0.060826435685157776
-1.3112138509750366,0.8166048526763916,-2.9413957595825195,0.31522321701049805,0.2695857584476471,0.007222414016723633
-1.2382649183273315,0.950621485710144,-3.0568385124206543,0.28110992908477783,0.2720496654510498,0.00843954086303711
-1.2096139192581177,1.113066554069519,-3.517822027206421,0.1488141417503357,0.33067911863327026,0.03044857084751129
-1.2515852451324463,1.1298596858978271,-3.8855605125427246,0.17298531532287598,0.35825926065444946,0.02543223649263382
-1.3023935556411743,1.062150239944458,-3.920203924179077,0.36371874809265137,0.34765884280204773,0.030118592083454132
-1.151427984237671,0.9643654823303223,-3.784193515777588,0.5676238536834717,0.27573177218437195,-0.009954452514648438
-1.100452184677124,1.1673327684402466,-3.6351475715637207,0.6382532715797424,0.18047159910202026,0.00806993618607521
-1.3180826902389526,1.4314156770706177,-3.402453899383545,0.7114564180374146,0.10286353528499603,0.0618317686021328
-1.7691882848739624,1.378369688987732,-3.0822463035583496,0.7744376063346863,-0.0039337873458862305,0.050309062004089355
-2.220993995666504,0.9843496680259705,-2.685612916946411,0.8074386119842529,-0.12766700983047485,-0.038256168365478516
-2.5349860191345215,0.3822018802165985,-2.1394011974334717,0.796955943107605,-0.2473698854446411,-0.14316868782043457
-2.5601110458374023,-0.2213079184293747,-1.4796631336212158,0.7721177339553833,-0.31180432438850403,-0.25238871574401855
-2.1640443801879883,-0.6034560203552246,-0.858406126499176,0.6815412640571594,-0.342464417219162,-0.36125075817108154
-1.488754153251648,-0.7040475010871887,-0.406077116727829,0.541901707649231,-0.3276658058166504,-0.4300522804260254
-0.7185338735580444,-0.5165194272994995,-0.1663644015789032,0.37628185749053955,-0.2940390408039093,-0.43954992294311523
-0.035155802965164185,-0.18828755617141724,-0.008661000058054924,0.2417285442352295,-0.2944161593914032,-0.38357508182525635
0.3671358525753021,0.038175422698259354,0.12179511785507202,0.183630108833313,-0.2927665412425995,-0.2923787832260132
0.5869638323783875,0.12071450799703598,0.231178879737854,0.1683504581451416,-0.2819060981273651,-0.21079576015472412
0.6458500623703003,0.08438152074813843,0.31085896492004395,0.157853901386261,-0.272039532661438,-0.1452162265777588
0.5701834559440613,0.04361485689878464,0.40444305539131165,0.15393131971359253,-0.2753768265247345,-0.07609642297029495
0.37397831678390503,-0.028722330927848816,0.5029981136322021,0.15087097883224487,-0.2871205806732178,-0.028407104313373566
0.11035136878490448,-0.10262715071439743,0.6054880619049072,0.15614157915115356,-0.25697842240333557,0.011032693088054657
-0.08609393984079361,-0.18146328628063202,0.6909833550453186,0.15010768175125122,-0.23608353734016418,0.016918189823627472
-0.14374198019504547,-0.25887104868888855,0.7449867129325867,0.1522192358970642,-0.19144564867019653,-0.00630342960357666
-0.13865864276885986,-0.27787479758262634,0.8094906806945801,0.1466456651687622,-0.15913471579551697,-0.031169898808002472
-0.12079106271266937,-0.29738765954971313,0.8973357081413269,0.16216915845870972,-0.12182965874671936,-0.03189610689878464
-0.05909646302461624,-0.3464883863925934,1.0035098791122437,0.16488391160964966,-0.09361979365348816,-0.04362547770142555
0.032236505299806595,-0.42458534240722656,1.0920507907867432,0.18578463792800903,-0.07940202951431274,-0.04029524326324463
0.08818251639604568,-0.46521449089050293,1.270056128501892,0.2443714141845703,-0.07990807294845581,-0.020923256874084473
0.03576090186834335,-0.5436913371086121,1.4501562118530273,0.3018817901611328,-0.09698411822319031,0.004420161247253418
-0.1888566017150879,-0.745193600654602,1.7323057651519775,0.37750184535980225,-0.09620364010334015,0.03975045680999756
-0.39758992195129395,-1.0522396564483643,2.0851893424987793,0.4570293426513672,-0.03217427432537079,0.05437052249908447
-0.35518378019332886,-1.2039828300476074,2.2081985473632812,0.37471824884414673,0.06280198693275452,0.03158855438232422
-0.037060171365737915,-1.101791262626648,2.200012445449829,0.2544872760772705,0.13916465640068054,0.003073453903198242
0.4387502074241638,-0.8288946151733398,2.2667934894561768,0.24411869049072266,0.14376050233840942,-0.02708500623703003
0.7477002143859863,-0.593567430973053,2.3410613536834717,0.26880818605422974,0.11781969666481018,-0.012649476528167725
0.7156243920326233,-0.5555872917175293,2.469533920288086,0.32856452465057373,0.11368397623300552,0.048546142876148224
0.4870583415031433,-0.7279097437858582,2.619966506958008,0.3535587191581726,0.12133972346782684,0.09598638117313385
0.28576168417930603,-0.9150363206863403,2.5961368083953857,0.27150899171829224,0.17231084406375885,0.1005866602063179
0.30859053134918213,-0.966536283493042,2.490314483642578,0.16595816612243652,0.269264280796051,0.07388496398925781
0.5116678476333618,-0.934769868850708,2.4661786556243896,0.10620009899139404,0.35234132409095764,0.03470337390899658
0.7937867641448975,-0.8743194341659546,2.3053386211395264,0.026804208755493164,0.3804272413253784,-0.014496102929115295
0.9279282689094543,-0.9673682451248169,2.073610782623291,-0.026769697666168213,0.3258410692214966,-0.05615890026092529
0.9368656873703003,-1.2200082540512085,1.8773219585418701,0.012758016586303711,0.2331317961215973,-0.033132895827293396
1.0832788944244385,-1.3341368436813354,1.77845299243927,0.11393582820892334,0.1841195523738861,-0.04962180554866791
1.285538911819458,-1.241582989692688,1.7673819065093994,0.21871525049209595,0.17495965957641602,-0.03737223148345947
1.3036683797836304,-0.9898480772972107,1.6994601488113403,0.22352999448776245,0.1713131070137024,0.038159266114234924
1.2932742834091187,-0.7108319401741028,1.7728005647659302,0.3048861622810364,0.16256916522979736,0.07993757724761963
1.1628865003585815,-0.5676255226135254,1.9126713275909424,0.3762810230255127,0.12005525827407837,0.07173259556293488
0.7512369751930237,-0.699512779712677,2.1790425777435303,0.5070321559906006,0.09364461898803711,0.09842057526111603
0.14870409667491913,-1.0394728183746338,2.2867846488952637,0.48831480741500854,0.09639143943786621,0.1589837372303009
-0.4930051565170288,-1.4951375722885132,2.327390432357788,0.4371100068092346,0.10787475109100342,0.18430455029010773
-0.781885027885437,-1.6805312633514404,2.298593044281006,0.43196868896484375,0.09925580024719238,0.16806036233901978
-0.32407352328300476,-1.244117259979248,2.232759952545166,0.4155808687210083,0.11318355798721313,0.018206119537353516
