rotation_x,rotation_y,rotation_z,acceleration_x,acceleration_y,acceleration_z
-0.6741824746131897,-1.0759708881378174,-0.057818878442049026,0.013765349984169006,-0.050750732421875,0.12594354152679443
-0.8638095855712891,-0.704521656036377,-0.27546703815460205,-0.01875367760658264,-0.03664565086364746,-0.11807084083557129
-0.3779734969139099,-0.3834248483181,-0.29681795835494995,0.026377663016319275,0.09257984161376953,-0.07943069934844971
-0.2419302761554718,-0.8432056307792664,0.13244350254535675,0.04860581457614899,0.0019939541816711426,0.03360491991043091
-0.44456154108047485,-0.9496701955795288,-0.1035911813378334,-0.015740111470222473,-0.015457749366760254,0.05668902397155762
-0.7786943316459656,-0.5915323495864868,-0.3195129632949829,-0.01118653267621994,0.02343505620956421,0.09733450412750244
-1.0534290075302124,-0.6363058686256409,-0.24255968630313873,-0.00723450630903244,-0.06587141752243042,0.055784642696380615
-1.1017695665359497,-0.692653477191925,-0.44929438829421997,-0.0011276006698608398,-0.03491926193237305,0.053244948387145996
-1.348347783088684,-0.9812182784080505,-0.07627256959676743,0.09577616304159164,-0.09525167942047119,-0.008093297481536865
-0.9757157564163208,-1.0187854766845703,0.02026824653148651,-0.10579743981361389,0.0891108512878418,-0.1365392804145813
-0.24226541817188263,-1.05950129032135,-0.11085129529237747,-0.026357416063547134,-0.044138431549072266,-0.2207741141319275
0.07395049184560776,-1.4429082870483398,-0.17553141713142395,-0.03466550260782242,-0.10697168111801147,-0.08110058307647705
-0.030137598514556885,-0.7261261940002441,0.005981242284178734,-0.014565899968147278,0.017995238304138184,0.06493258476257324
-0.836129903793335,-0.4159553647041321,0.01735115796327591,-0.005015023052692413,-0.0858154296875,0.15477895736694336
-0.9672378301620483,-0.0804147869348526,0.04864165559411049,-0.06088406592607498,-0.20091348886489868,-0.026059091091156006
-1.1628806591033936,0.10077287256717682,-0.24099597334861755,-0.1521092653274536,-0.3128296136856079,-0.13967275619506836
-1.2194607257843018,0.6435542106628418,-0.45521068572998047,-0.22408857941627502,-0.1668500304222107,-0.2989315986633301
-0.9455762505531311,1.2693843841552734,-0.46370503306388855,-0.08325750380754471,-0.05424082279205322,-0.34320342540740967
-0.039408519864082336,1.4354342222213745,-0.27941927313804626,-0.13965365290641785,-0.046544790267944336,-0.5770925879478455
1.0897340774536133,1.7177951335906982,-0.9318976998329163,-0.1602548509836197,-0.017940402030944824,-0.37638455629348755
1.4131499528884888,0.744932234287262,-1.4754431247711182,0.07281902432441711,0.11149221658706665,0.07972490787506104
1.7202785015106201,0.08946466445922852,-1.2606730461120605,0.09897732734680176,0.1863887906074524,-0.009474396705627441
1.5858023166656494,-0.24346955120563507,-0.975607693195343,0.13959316909313202,0.28633391857147217,0.07376158237457275
1.2003369331359863,-0.16286306083202362,-0.09782692044973373,0.17461109161376953,0.32976317405700684,0.12421548366546631
0.8741438984870911,0.3488750457763672,0.4796002507209778,0.09334564208984375,0.2816663980484009,0.20153653621673584
0.5970631241798401,0.3956781327724457,0.7243485450744629,0.07972157001495361,0.12636786699295044,0.2345786690711975
0.5345945954322815,0.06279602646827698,0.3421843647956848,-0.1196117252111435,0.07200616598129272,0.21202385425567627
0.7498236298561096,0.03742726519703865,0.05235832929611206,-0.026749834418296814,0.18482118844985962,0.1798163652420044
1.0176361799240112,0.2880479693412781,0.29477179050445557,0.009712249040603638,0.1531239151954651,0.15569132566452026
0.7175518274307251,0.23682498931884766,0.20174433290958405,-0.07226315140724182,0.13429170846939087,0.30952882766723633
0.12310067564249039,0.18633785843849182,0.047712910920381546,-0.048448532819747925,0.09109550714492798,0.3458971381187439
-0.2241700142621994,-0.013592262752354145,0.12393545359373093,0.008143126964569092,0.11106878519058228,0.2488740086555481
-0.24062462151050568,-0.2926526665687561,0.16505944728851318,-0.0538242906332016,0.16407328844070435,0.2029404640197754
-0.43246567249298096,-0.2903664708137512,0.1888534128665924,-0.05019831657409668,0.1612958312034607,0.1932470202445984
-0.4458746910095215,-0.01576758548617363,0.09720971435308456,-0.08940763771533966,0.2622860074043274,0.18497222661972046
-0.3271767497062683,-0.016666194424033165,0.1641082614660263,0.021743938326835632,0.24875253438949585,0.28720521926879883
-0.4731878340244293,-0.48682481050491333,0.3017166256904602,-0.015444427728652954,0.3364049792289734,0.4056260585784912
-0.8087431192398071,-0.4469337463378906,0.33131369948387146,-0.03791666775941849,0.4805257320404053,0.43707138299942017
-1.0050890445709229,-0.18443144857883453,0.7606269717216492,0.1533445119857788,0.3652210831642151,0.46666669845581055
-0.8981668949127197,-1.101532220840454,1.0290111303329468,0.004860103130340576,0.35460758209228516,0.42777687311172485
-0.7076870799064636,-1.3147287368774414,0.632008969783783,-0.1413278728723526,0.3594292998313904,0.3625916838645935
-0.9259383082389832,-1.3060418367385864,0.7212610244750977,0.021627850830554962,0.26248323917388916,0.284634530544281
-1.0408761501312256,-0.5621948838233948,1.138556718826294,-0.05044032633304596,0.25479745864868164,0.1191592812538147
-1.5264933109283447,-0.3756577968597412,0.8717546463012695,-0.09626712650060654,-0.0419384241104126,0.0960770845413208
-2.1317214965820312,-0.61077481508255,0.4132148027420044,-0.2549550533294678,-0.018136203289031982,-0.04481881856918335
-2.08699107170105,-0.5713297724723816,0.07376483827829361,-0.1502477377653122,-0.004155755043029785,-0.365703821182251
-1.1652960777282715,-0.4157092571258545,0.6171905994415283,0.03548583388328552,-0.0934721827507019,-0.4003016948699951
-0.43774905800819397,-1.0586237907409668,0.8431078791618347,-0.07860957086086273,-0.05750313401222229,-0.003586709499359131
-1.3395577669143677,-1.520712971687317,0.25894811749458313,-0.1224617213010788,-0.12219125032424927,0.1940104365348816
-2.462279796600342,-1.5974411964416504,0.16380198299884796,0.05963265895843506,-0.0007777810096740723,-0.15580302476882935
-1.5672483444213867,-1.667712688446045,1.1464669704437256,0.11193153262138367,0.10532352328300476,-0.3234149217605591
-1.5609583854675293,-1.9319837093353271,1.1972277164459229,-0.11014804244041443,-0.0341549813747406,-0.03475552797317505
-2.328510046005249,-1.995042324066162,0.526959240436554,-0.17429327964782715,-0.039481863379478455,-0.24487143754959106
-1.7927037477493286,-1.5639594793319702,1.0857216119766235,-0.19510623812675476,0.09596455097198486,-0.5829620957374573
-1.0526776313781738,-0.7111297249794006,1.0323797464370728,-0.43975013494491577,-0.007300339639186859,-0.580981433391571
-0.7007391452789307,-0.9385908842086792,0.3667800724506378,-0.32510316371917725,-0.07338859140872955,-0.46480077505111694
-0.6070199012756348,-0.5515927672386169,0.032703496515750885,-0.2765973210334778,-0.009959366172552109,-0.4557639956474304
-0.8834394812583923,-0.2305763065814972,-0.13040103018283844,-0.2090194821357727,-0.052547283470630646,-0.45066261291503906
-0.5706270337104797,-0.4221954643726349,-0.039570923894643784,-0.14816176891326904,-0.06931114941835403,-0.6256993412971497
0.396536648273468,0.0124041847884655,0.07655222713947296,-0.1600852608680725,-0.04530462622642517,-0.5590090155601501
1.1831703186035156,0.6571071147918701,0.07452286779880524,-0.12266838550567627,0.008292198181152344,-0.14098525047302246
1.1866390705108643,0.5840193033218384,0.09649009257555008,-0.028515279293060303,0.031181272119283676,0.1974436640739441
0.530482292175293,0.47298136353492737,0.06089369207620621,-0.09952026605606079,0.022600378841161728,0.3061567544937134
-0.17373026907444,0.6776627898216248,-0.2206045538187027,-0.10046076774597168,-0.024174483492970467,0.27613478899002075
-0.655426025390625,0.22576333582401276,-0.3599093556404114,-0.023845404386520386,-0.04183363541960716,0.2305738925933838
-0.8539425730705261,-0.35266104340553284,-0.33498138189315796,-0.0007384717464447021,-0.02040562406182289,0.10461229085922241
-0.8003477454185486,-0.4519595205783844,-0.43081367015838623,-0.0018033385276794434,-0.028889667242765427,-0.043337106704711914
-0.6329187750816345,-0.0671095997095108,-0.6128652095794678,-0.010967612266540527,0.031796932220458984,-0.12606149911880493
-0.45811575651168823,0.01014859601855278,-0.48027464747428894,0.060991883277893066,0.016745008528232574,-0.1292637586593628
-0.12177786231040955,0.23682044446468353,-0.24870942533016205,0.033137738704681396,0.031188607215881348,-0.2238944172859192
0.17241576313972473,0.3531542420387268,-0.00217004818841815,-0.002174198627471924,0.022465325891971588,-0.18451333045959473
0.10508403182029724,0.5452735424041748,-0.005066383630037308,-0.085898756980896,-0.012514740228652954,-0.10825580358505249
-0.36340394616127014,0.5030758380889893,-0.1940498799085617,-0.16642418503761292,0.028880201280117035,-0.13595056533813477
-0.6617496609687805,0.3907240331172943,-0.13697917759418488,-0.18186739087104797,-0.0027935653924942017,-0.4042741656303406
-0.18116667866706848,0.7486492991447449,0.06851555407047272,-0.1285715103149414,-0.07040964066982269,-0.6816271543502808
0.5570068955421448,1.1932685375213623,0.010908752679824829,-0.19367185235023499,-0.1194184347987175,-0.6763035655021667
0.6894491910934448,0.9493886828422546,-0.3197500705718994,-0.2448049783706665,-0.09210363030433655,-0.4756402373313904
0.7985901832580566,0.54782634973526,-0.3371659815311432,-0.18947577476501465,-0.13732783496379852,-0.5466505885124207
1.3287471532821655,0.66082364320755,-0.5353551506996155,-0.1570647656917572,-0.11641956865787506,-0.6606376767158508
1.991391897201538,0.7951624989509583,-0.41031408309936523,-0.22726991772651672,0.02518324926495552,-0.5571515560150146
2.1823301315307617,0.9541513323783875,-0.42985865473747253,-0.24208027124404907,0.055997803807258606,-0.32427525520324707
2.016404390335083,0.6858607530593872,-0.7238928079605103,-0.09927958250045776,0.03132903575897217,-0.20546340942382812
2.0407590866088867,0.7650583386421204,-0.7953404188156128,-0.1112883985042572,0.08761122822761536,-0.28798675537109375
2.355642318725586,1.0522783994674683,-0.8023908734321594,-0.20615404844284058,0.19562166929244995,-0.23551970720291138
2.8118207454681396,0.7522474527359009,-0.8327748775482178,-0.13118980824947357,0.2119646668434143,-0.11691755056381226
2.803759813308716,0.7760326862335205,-1.0270819664001465,-0.10915480554103851,0.1696273684501648,-0.019220709800720215
2.961526393890381,0.7339568734169006,-1.292535662651062,-0.0826980471611023,0.28132402896881104,0.144464373588562
2.8178772926330566,0.20104144513607025,-1.2227978706359863,-0.06090513616800308,0.4515923857688904,0.3019532561302185
2.380931854248047,-0.07323106378316879,-0.9016709923744202,-0.022151321172714233,0.4760795831680298,0.2713627219200134
1.7865970134735107,-0.0814882293343544,-0.943666398525238,-0.0803418755531311,0.42939698696136475,0.31261175870895386
1.5391395092010498,-0.29916611313819885,-1.2646450996398926,-0.010208353400230408,0.40249550342559814,0.3220363259315491
1.0057696104049683,0.048929959535598755,-1.1481995582580566,0.08464530110359192,0.43681657314300537,0.3800320029258728
0.6315562129020691,0.3677976131439209,-0.7158694267272949,0.05092844367027283,0.4716816544532776,0.3828798532485962
0.2769068479537964,0.47761252522468567,-0.498095840215683,0.10252325236797333,0.39725130796432495,0.3983812928199768
0.18956883251667023,0.2065640687942505,-0.23538117110729218,0.1388905793428421,0.3815099000930786,0.38417255878448486
0.19603675603866577,-0.21367232501506805,0.04436999559402466,0.09540075063705444,0.3173014521598816,0.35281693935394287
0.09476584196090698,-0.454637736082077,0.12571705877780914,0.021345701068639755,0.24841785430908203,0.3174530863761902
0.029132112860679626,-0.09222182631492615,0.23749977350234985,0.003978487104177475,0.1448378562927246,0.1795799732208252
-0.0066726310178637505,0.1926073431968689,0.1057785153388977,0.021546974778175354,0.11290711164474487,0.1905916929244995
0.01653463952243328,-0.26592111587524414,0.1599320024251938,0.047050729393959045,0.08910083770751953,0.1482468843460083
-0.07189849019050598,-0.2457950860261917,0.22758951783180237,0.0055935680866241455,0.02595078945159912,0.06057816743850708
-0.2831111550331116,0.18474310636520386,0.17723961174488068,-0.048680827021598816,-0.03913003206253052,0.013370513916015625
-0.148354634642601,0.5035197138786316,-0.022724738344550133,-0.09012578427791595,-0.05272418260574341,-0.0631643533706665
0.2506468594074249,0.07621416449546814,-0.2056654989719391,-0.045465245842933655,-0.017985284328460693,-0.005713701248168945
0.16350722312927246,0.18479235470294952,-0.1429898589849472,0.009295374155044556,0.013705670833587646,0.09370481967926025
-0.2693551182746887,0.2967476546764374,-0.04948810487985611,0.07534569501876831,0.04819375276565552,0.12607252597808838
-0.15912383794784546,0.46107974648475647,0.17254656553268433,0.05672099068760872,0.092349112033844,-0.00038427114486694336
0.21205772459506989,0.17489071190357208,0.004599860869348049,-0.022495150566101074,0.12586992979049683,0.11347740888595581
0.050501588732004166,-0.3195142149925232,-0.054667726159095764,0.08183035254478455,0.10894268751144409,0.2642368674278259
-0.20004603266716003,-0.5449227690696716,0.21915525197982788,0.1070861667394638,0.215945303440094,0.22063016891479492
-0.3236266076564789,-0.13659745454788208,0.5512169599533081,0.028189629316329956,0.2994677424430847,0.20588213205337524
-0.42843449115753174,0.19799508154392242,0.5978093147277832,-0.004096493124961853,0.3024625778198242,0.22643768787384033
-0.6771951913833618,0.19516834616661072,0.5168156027793884,-0.00863143801689148,0.28918105363845825,0.3356117010116577
-0.9094103574752808,-0.25018948316574097,0.595735490322113,0.025625497102737427,0.2857224941253662,0.3558530807495117
-0.8628539443016052,-0.4287101924419403,0.6592162251472473,0.005837887525558472,0.33249276876449585,0.2773684859275818
-1.1708918809890747,0.22921790182590485,0.6069744229316711,0.047000572085380554,0.35474634170532227,0.34273505210876465
-1.5883110761642456,0.12050701677799225,1.0199854373931885,0.04657670110464096,0.3925759196281433,0.33623427152633667
-1.8849447965621948,-0.08212438225746155,1.1346321105957031,-0.021919146180152893,0.25825220346450806,0.229792058467865
-1.6499558687210083,0.05996369570493698,0.7531656622886658,-0.06137163192033768,0.21703743934631348,0.09669303894042969
-1.4341124296188354,0.010345895774662495,0.4435186982154846,0.0034012123942375183,0.21987974643707275,0.1253153681755066
-1.253211259841919,-0.4217979609966278,0.5054043531417847,0.07550789415836334,0.18943047523498535,0.05275249481201172
-1.431933879852295,-0.5021083354949951,0.29846394062042236,-0.18961961567401886,0.26290076971054077,0.053776681423187256
-2.1757874488830566,0.33934155106544495,-0.036647528409957886,-0.013106420636177063,0.1726152002811432,0.09381932020187378
-2.116309642791748,-0.5289075374603271,0.37954819202423096,0.1862504780292511,-0.035502344369888306,-0.1173015832901001
-1.258621335029602,-1.0983293056488037,0.44581010937690735,-0.09991015493869781,0.08162033557891846,-0.22717726230621338
-0.9049228429794312,-0.5083175897598267,0.6340330839157104,0.031589508056640625,-0.22156214714050293,-0.15547096729278564
-1.1955070495605469,-0.6056625843048096,0.6668669581413269,-0.1349654346704483,-0.21504953503608704,-0.0021499991416931152
-1.4442182779312134,-0.9092372059822083,0.6569212079048157,-0.3070455491542816,-0.16370028257369995,-0.17998433113098145
-1.5720824003219604,-0.7657606601715088,0.1541081964969635,-0.42674556374549866,-0.07900691032409668,-0.3560490012168884
-1.2362003326416016,-1.6510058641433716,0.2257927656173706,-0.18447762727737427,-0.09717495739459991,-0.5092346668243408
-0.5983400940895081,-1.475840449333191,0.3692264258861542,-0.12119877338409424,-0.010951057076454163,-0.4696481227874756
-0.813710629940033,-1.0246189832687378,0.226979061961174,-0.1088261604309082,0.06864442676305771,-0.2691359519958496
-1.2457122802734375,-0.774783194065094,0.5548345446586609,0.0025642812252044678,0.048296406865119934,-0.36418330669403076
-1.1233731508255005,-0.1697460263967514,0.624024510383606,-0.15504303574562073,-0.034781552851200104,-0.6236088275909424
-0.7118709087371826,0.591518223285675,0.16803719103336334,-0.22939568758010864,-0.055326782166957855,-0.5022684335708618
-1.5792663097381592,0.04088148474693298,-0.31959396600723267,-0.059023767709732056,-0.21382641792297363,-0.42426222562789917
-1.1417115926742554,-0.5574890375137329,0.1321752369403839,-0.0031734108924865723,-0.1690356433391571,-0.7948600053787231
0.9086973071098328,0.9061138033866882,0.38398516178131104,-0.14860349893569946,-0.02199428528547287,-0.6393492817878723
1.8566974401474,1.2355612516403198,0.2153031826019287,-0.15299227833747864,0.04720907658338547,0.032221317291259766
1.294281005859375,0.3184899091720581,-0.08683568239212036,-0.10183912515640259,0.0559706948697567,0.5092464685440063
0.07198947668075562,-0.09091444313526154,-0.2785090506076813,-0.06514924764633179,0.05806355178356171,0.509779155254364
-0.788886308670044,-0.08236953616142273,-0.3559632897377014,-0.004276305437088013,0.07189466804265976,0.3165605068206787
-1.3423779010772705,-0.30981844663619995,-0.28125330805778503,0.05672997236251831,0.02194032445549965,0.18635141849517822
-1.6149277687072754,-0.9520693421363831,-0.25668394565582275,0.07600530982017517,-0.02148403599858284,-0.015702426433563232
-1.2597769498825073,-0.7829254865646362,-0.38021254539489746,0.07213670015335083,-0.07131768763065338,-0.2883973717689514
-0.2507593035697937,-0.34483227133750916,-0.28450700640678406,0.04646381735801697,-0.007333837449550629,-0.3660411834716797
0.6472037434577942,-0.07925554364919662,0.010555870831012726,0.0021276772022247314,0.008249059319496155,-0.23281651735305786
0.824018657207489,0.07914768159389496,-0.06367303431034088,-0.004996538162231445,-0.02837156131863594,-0.09772288799285889
0.6477684378623962,0.18673944473266602,-0.1157483160495758,0.015301823616027832,0.028326891362667084,-0.024874567985534668
0.5022106766700745,0.14852577447891235,0.20258747041225433,0.011181771755218506,0.0038005374372005463,-0.027005374431610107
0.3339473307132721,0.17517270147800446,0.26742804050445557,-0.10430890321731567,-0.017291296273469925,-0.05507826805114746
-0.016841094940900803,0.16059622168540955,-0.018244124948978424,-0.21794521808624268,-0.09837184846401215,-0.21124207973480225
-0.8815654516220093,0.3154045045375824,-0.47744688391685486,-0.1569068431854248,-0.14110270142555237,-0.4281347990036011
-0.6411923766136169,0.830123245716095,-0.4242636263370514,-0.06412997841835022,-0.12367627024650574,-0.7557933926582336
0.35906562209129333,0.938105046749115,-0.27521511912345886,-0.09107619524002075,-0.1283493936061859,-0.8178525567054749
1.409949541091919,0.587852954864502,-0.10268867015838623,-0.15317270159721375,-0.1244971752166748,-0.7322715520858765
1.814437747001648,0.67937833070755,-0.3435650169849396,-0.2481285035610199,-0.13356420397758484,-0.5586575269699097
1.384049415588379,0.9737891554832458,-0.5410856604576111,-0.22237804532051086,-0.06164379417896271,-0.40084701776504517
1.6714084148406982,0.9463492035865784,-0.28968027234077454,-0.17113563418388367,-0.03458626568317413,-0.46756917238235474
2.156414270401001,1.3117098808288574,-0.4484895169734955,-0.20670410990715027,0.05851276218891144,-0.35809528827667236
2.373562812805176,1.2516121864318848,-0.6164752244949341,-0.18708673119544983,0.1603981852531433,-0.15802264213562012
2.1681158542633057,0.8519114851951599,-0.7581912279129028,-0.1695815622806549,0.18953615427017212,-0.016742587089538574
2.029815196990967,0.5335049629211426,-0.9220878481864929,-0.09899543225765228,0.18892890214920044,0.06652039289474487
1.9345993995666504,0.17977653443813324,-0.9049697518348694,0.017577052116394043,0.23554590344429016,0.07321929931640625
1.8690345287322998,0.5414480566978455,-0.4903542399406433,-0.002339959144592285,0.26105231046676636,0.12888622283935547
1.2387583255767822,0.5499966144561768,-0.2845752537250519,0.018718965351581573,0.199737548828125,0.2693846821784973
1.1499052047729492,0.17256315052509308,-0.13736985623836517,7.483363151550293e-05,0.19855231046676636,0.06049865484237671
1.2409641742706299,0.630498468875885,-0.04883098974823952,-0.05305635184049606,0.2204565405845642,0.019925475120544434
1.472100019454956,0.6860408782958984,-0.20240768790245056,-0.11693223565816879,0.2632763385772705,0.06362247467041016
1.5990742444992065,0.6037521958351135,-0.5120590925216675,-0.08451540023088455,0.2783955931663513,0.12798047065734863
1.6256242990493774,0.34030309319496155,-0.5311519503593445,-0.03388962149620056,0.40709710121154785,0.20179367065429688
1.5914541482925415,0.3125828206539154,-0.2669772505760193,0.022307544946670532,0.3918305039405823,0.3013027310371399
1.204228162765503,0.24259914457798004,-0.5577697157859802,-0.04900647699832916,0.3211110830307007,0.4550288915634155
0.806384265422821,0.2912154793739319,-0.4946396052837372,0.051173992455005646,0.3122028112411499,0.45787668228149414
0.640744686126709,-0.025808509439229965,-0.02318248525261879,0.10700634121894836,0.3095937967300415,0.45639336109161377
0.40032535791397095,-0.34683749079704285,-0.009831898845732212,0.005152642726898193,0.1997949481010437,0.4568188190460205
-0.08559789508581161,-0.26600906252861023,-0.20010432600975037,-0.006939146667718887,0.1677575707435608,0.37054985761642456
-0.21902096271514893,-0.26233410835266113,-0.04558281973004341,0.020265087485313416,0.17076587677001953,0.21308374404907227
-0.25908586382865906,0.13134978711605072,0.015757640823721886,0.06020541489124298,0.1537991762161255,0.13343405723571777
-0.3316158950328827,0.06044089049100876,0.15789169073104858,0.0391349196434021,0.11060380935668945,0.10085999965667725
-0.21484187245368958,0.024309853091835976,0.13414880633354187,-0.00991356372833252,0.04984891414642334,0.059029340744018555
-0.03931719809770584,-0.061125755310058594,0.05481058731675148,-0.04386600852012634,0.05011630058288574,0.04012024402618408
0.08161202073097229,0.003547682659700513,-0.016869205981492996,0.010984554886817932,0.03521996736526489,0.03940689563751221
-0.04759464040398598,-0.07251717150211334,0.012932738289237022,0.005579516291618347,0.010585129261016846,0.1240394115447998
-0.3378765285015106,-0.031630802899599075,0.003785642795264721,0.002567693591117859,-0.002833724021911621,0.0960468053817749
-0.34559985995292664,-0.00789994653314352,0.1309409886598587,0.037887170910835266,0.00774991512298584,-0.025249958038330078
-0.06571145355701447,0.04560869187116623,0.3750031590461731,-0.010351389646530151,-0.004657447338104248,-0.0494307279586792
-0.15656976401805878,0.05243485048413277,0.1401490867137909,-0.03934091329574585,-0.02936345338821411,0.048390328884124756
-0.09865990281105042,-0.4214951992034912,0.004490179941058159,0.013288035057485104,0.012252509593963623,-0.02211660146713257
0.12348771840333939,-0.3173236548900604,0.05731579661369324,0.0062660276889801025,0.11673241853713989,-0.04334557056427002
0.08019131422042847,0.03416212648153305,0.08462508022785187,0.011400356888771057,0.1388682723045349,0.08510011434555054
0.08583979308605194,0.08910572528839111,0.0742974579334259,0.011430948972702026,0.1791040301322937,0.18530285358428955
0.0701914131641388,0.1880720555782318,-0.038763172924518585,-0.0755545049905777,0.3562663197517395,0.2961556315422058
-0.002583561697974801,0.4310970902442932,-0.03435416519641876,0.03195264935493469,0.40069127082824707,0.39520931243896484
-0.06852852553129196,0.14493881165981293,0.1628221571445465,0.07906046509742737,0.42603927850723267,0.4346436858177185
-0.018492717295885086,0.10339312255382538,0.32477784156799316,0.030867040157318115,0.5015648603439331,0.40761327743530273
-0.23429179191589355,0.1398017257452011,0.658728837966919,0.1377910077571869,0.4359782934188843,0.4655231237411499
-0.49948641657829285,-0.8370286822319031,0.996597945690155,0.08682061731815338,0.48140132427215576,0.46085798740386963
-0.6631259322166443,-1.0706766843795776,1.176257610321045,0.061820290982723236,0.5099982619285583,0.2952752113342285
-0.6881399154663086,-0.08310284465551376,1.4754170179367065,0.09973480552434921,0.4322648048400879,0.1847253441810608
-0.9548730850219727,-0.20696331560611725,1.6059993505477905,-0.1041756272315979,0.46562278270721436,0.2565584182739258
-1.30452299118042,-0.5574808120727539,1.3882108926773071,0.006376191973686218,0.30028724670410156,0.1466900110244751
-1.7045468091964722,-0.48201438784599304,1.6386483907699585,-0.0004083216190338135,0.12275177240371704,0.11012649536132812
-1.9430947303771973,-0.8388488292694092,1.2548459768295288,-0.28814035654067993,0.1618267297744751,-0.1102343201637268
-1.9540349245071411,-0.09670735895633698,0.8839848637580872,-0.09843528270721436,-0.02624410390853882,-0.20463967323303223
-2.0715959072113037,-0.7241970896720886,1.1224759817123413,-0.21395081281661987,-0.038360655307769775,-0.14713191986083984
-2.5096919536590576,-1.5726758241653442,0.6353922486305237,-0.2771809697151184,-0.23160943388938904,-0.37428605556488037
-2.8237316608428955,-1.0567383766174316,0.3087400794029236,-0.34398290514945984,-0.21631556749343872,-0.6703741550445557
-2.2178781032562256,-0.3555642068386078,0.4424913227558136,-0.2820102572441101,-0.0904516875743866,-0.6952314972877502
-1.7454686164855957,-0.5973507761955261,0.529058575630188,-0.16767314076423645,-0.1938423216342926,-0.5936471819877625
-1.40325129032135,-0.8999810218811035,0.4446835517883301,-0.19785866141319275,-0.17443758249282837,-0.47892487049102783
-1.031457543373108,-0.8949257135391235,0.2765165865421295,-0.1607120931148529,-0.10941123962402344,-0.3759392499923706
-0.9854378700256348,-1.0140193700790405,0.22150777280330658,-0.16853368282318115,-0.025504469871520996,-0.3399805426597595
-0.9183424115180969,-0.5470647811889648,0.2125985324382782,-0.13894307613372803,0.0040618181228637695,-0.3865364193916321
-1.1725432872772217,-0.515754759311676,0.44986996054649353,-0.114543616771698,-0.05314435064792633,-0.2489403486251831
-1.5517208576202393,-0.8162204027175903,0.6944023966789246,-0.18983197212219238,-0.2888734042644501,-0.57151198387146
-0.39197033643722534,0.0810910165309906,0.27875274419784546,-0.28344857692718506,-0.14668795466423035,-0.7133485674858093
1.0052335262298584,0.8281099200248718,0.20150306820869446,-0.13531827926635742,0.040125612169504166,-0.24737054109573364
1.3259185552597046,0.33766284584999084,0.2770651578903198,-0.03144186735153198,0.06053261458873749,0.13946115970611572
0.6896032094955444,-0.11746498197317123,0.1424805074930191,0.009676158428192139,0.003507595509290695,0.25398874282836914
-0.08816802501678467,0.15504543483257294,0.004863702226430178,-0.013226985931396484,0.040412262082099915,0.2147204875946045
-0.5004729628562927,0.22089841961860657,0.12169277667999268,0.04389846324920654,0.013863765634596348,0.15137112140655518
-0.5411030054092407,-0.23263050615787506,0.12010152637958527,0.024896442890167236,-0.0540921725332737,0.03306174278259277
-0.3775194585323334,-0.3666667938232422,-0.043474819511175156,-0.045562744140625,-0.04745980352163315,-0.07143092155456543
-0.10089234262704849,-0.022150764241814613,-0.12747977674007416,-0.04333990812301636,-0.05482146888971329,-0.14449656009674072
0.08526881039142609,0.16226622462272644,-0.16822491586208344,0.0027997493743896484,-0.03450245037674904,-0.07643741369247437
0.0592414028942585,0.06894969940185547,-0.061417046934366226,0.013092219829559326,0.007264893501996994,0.003621339797973633
0.08499471843242645,-0.06585519015789032,0.015338423661887646,-0.04154449701309204,0.014456676319241524,-0.020175814628601074
0.23565465211868286,0.23249664902687073,-0.1061680018901825,-0.057087600231170654,0.00971689447760582,-0.009417355060577393
0.02827395126223564,0.046815574169158936,-0.13874013721942902,-0.010192394256591797,0.023121153935790062,0.09972214698791504
-0.2207365185022354,-0.051333509385585785,-0.05093078315258026,0.005594611167907715,0.014834420755505562,0.03713566064834595
-0.18834784626960754,0.21353892982006073,-0.08773190528154373,-0.004726111888885498,0.010679647326469421,-0.0027360916137695312
-0.19350916147232056,0.18782228231430054,-0.0770648941397667,-0.02403712272644043,-0.013650902546942234,0.012433826923370361
-0.16842421889305115,0.07494374364614487,-0.15414994955062866,-0.005812108516693115,-0.03477320447564125,-0.008870244026184082
-0.10313564538955688,0.04236432909965515,-0.2000332623720169,-0.010727465152740479,-0.01642248034477234,-0.06547665596008301
-0.07228675484657288,-0.041199006140232086,-0.1716684103012085,-0.10120999813079834,-0.04072550684213638,-0.2246059775352478
0.047463856637477875,0.6232838034629822,-0.2968114912509918,-0.16701674461364746,-0.08268017321825027,-0.37034642696380615
0.04336154833436012,1.0918480157852173,-0.3810786306858063,-0.16811692714691162,-0.02776574343442917,-0.4184025526046753
-0.21639230847358704,0.6225706338882446,0.003143385984003544,-0.1688423752784729,-0.1407928615808487,-0.6604689359664917
0.017074311152100563,1.4825880527496338,-0.24401359260082245,-0.2952111065387726,-0.22859413921833038,-0.9084503054618835
0.7155833840370178,2.083118438720703,-0.3018699586391449,-0.20050883293151855,-0.2483592927455902,-0.7848544716835022
1.5145198106765747,0.9838083386421204,-0.004865660332143307,-0.30247068405151367,-0.2546760141849518,-0.6547507643699646
1.6898170709609985,0.5860719084739685,-0.694937527179718,-0.4338492751121521,-0.2090793251991272,-0.5481048226356506
1.4749635457992554,0.7287341952323914,-1.2826709747314453,-0.3108592927455902,-0.059689030051231384,-0.5604199767112732
2.06890606880188,0.990387499332428,-1.0925644636154175,-0.21487870812416077,0.16568847000598907,-0.5748270153999329
2.6163406372070312,1.5294389724731445,-0.9728454351425171,-0.2763523757457733,0.3271189033985138,-0.29729652404785156
2.272167921066284,1.4878201484680176,-1.106919288635254,-0.19223935902118683,0.3588634133338928,0.002786993980407715
2.106879234313965,0.9916117191314697,-0.8882679343223572,-0.08417481184005737,0.3302849531173706,0.09328597784042358
2.104851722717285,0.540203869342804,-0.9412586688995361,-0.11875363439321518,0.2914073169231415,0.21564507484436035
1.8908454179763794,0.21170927584171295,-1.0066745281219482,-0.06581085920333862,0.2593652009963989,0.2668408751487732
1.4070417881011963,0.3088773488998413,-1.0577640533447266,0.0030196383595466614,0.2718914747238159,0.23286288976669312
1.1314023733139038,0.6751646995544434,-0.9836483001708984,0.014514323323965073,0.3674684166908264,0.17380714416503906
1.1235835552215576,0.943430483341217,-0.8455710411071777,0.038333259522914886,0.42249417304992676,0.22413325309753418
1.3903138637542725,0.4734271764755249,-0.5174371600151062,0.11605928093194962,0.37993353605270386,0.2837817072868347
1.7380503416061401,0.16585470736026764,-0.4597863256931305,0.03524237126111984,0.4049478769302368,0.36213719844818115
1.5747236013412476,0.17792737483978271,-0.5052886605262756,0.0868004858493805,0.446815550327301,0.4460802674293518
1.1728285551071167,0.31862008571624756,-0.0678718164563179,0.11178086698055267,0.41837161779403687,0.4607580900192261
0.7673093676567078,0.3007237911224365,0.12415791302919388,0.017561987042427063,0.3861040472984314,0.37524688243865967
0.6762514114379883,0.652169406414032,0.21187323331832886,0.06246544420719147,0.2700372338294983,0.3254217505455017
0.3817899823188782,0.32578200101852417,0.15013067424297333,0.022458873689174652,0.21281951665878296,0.3723876476287842
0.04269813001155853,-0.010290727019309998,0.11053498089313507,0.022305212914943695,0.18962329626083374,0.28924620151519775
0.004464402794837952,-0.18923074007034302,0.20335988700389862,0.051755569875240326,0.15229374170303345,0.2141408920288086
0.007829911075532436,-0.20694085955619812,0.3405654728412628,-0.047969333827495575,0.10952979326248169,0.14524883031845093
-0.030017461627721786,-0.13294556736946106,0.1185944676399231,-0.0644652396440506,0.12401527166366577,0.13430267572402954
0.23514442145824432,-0.4659368395805359,0.18504513800144196,0.09549245238304138,0.08649718761444092,0.08653372526168823
0.47131606936454773,-0.6353181004524231,0.3679061830043793,0.060939230024814606,0.046379148960113525,0.0314294695854187
0.19182223081588745,0.02119874209165573,0.23198969662189484,-0.06970714032649994,0.011386096477508545,0.07500678300857544
-0.2897671163082123,0.08872082829475403,0.18651536107063293,-0.04816734790802002,-0.029810786247253418,0.08233809471130371
-0.39979562163352966,-0.10762453824281693,0.06749476492404938,-0.007805049419403076,-0.024419426918029785,-0.030759572982788086
-0.20372818410396576,-0.2944449186325073,0.03491569682955742,-0.004669114947319031,-0.0267297625541687,-0.16367459297180176
-0.03616403415799141,0.17234233021736145,-0.029116250574588776,-0.016053184866905212,-0.028052151203155518,-0.19466352462768555
0.09581542015075684,0.1056634858250618,-0.08060615509748459,0.010152607224881649,0.027691900730133057,-0.09179145097732544
0.17354723811149597,-0.017674652859568596,0.09860070794820786,0.03739957511425018,0.02181476354598999,-0.0673782229423523
0.11049995571374893,0.09900450706481934,0.07959702610969543,0.028008073568344116,0.029787838459014893,-0.05246204137802124
0.2144882082939148,0.0744890421628952,0.2092667818069458,0.040685489773750305,0.02215820550918579,-0.08020204305648804
0.3812858462333679,0.22909051179885864,0.23085488379001617,-0.0014643969479948282,0.03175848722457886,-0.05582726001739502
0.556549072265625,0.11658217012882233,0.17398983240127563,-0.037665337324142456,0.03972434997558594,0.0388026237487793
0.5772764086723328,0.0957687571644783,0.07887833565473557,-0.060593366622924805,0.07638293504714966,0.12431174516677856
0.4738108813762665,0.18148081004619598,-0.08614811301231384,-0.06116798520088196,0.14991652965545654,0.23700040578842163
0.285012811422348,0.13955385982990265,-0.09096988290548325,0.0282820463180542,0.2109350562095642,0.3133314251899719
0.02468377910554409,0.1580125391483307,0.03675040975213051,0.05747847259044647,0.2578916549682617,0.36223703622817993
-0.2603403925895691,-0.00947554036974907,0.12805601954460144,0.05742770433425903,0.32711535692214966,0.41278326511383057
-0.5410712957382202,-0.2744503319263458,0.2162914127111435,-0.0335087925195694,0.45552754402160645,0.38155579566955566
-0.7753027081489563,0.3296877443790436,0.25202104449272156,0.06023615598678589,0.43529975414276123,0.37774455547332764
-0.9752287268638611,0.27357766032218933,0.29295870661735535,0.06501542776823044,0.4976688027381897,0.45318520069122314
-1.1727893352508545,-0.2589860260486603,0.47082799673080444,0.04658620059490204,0.576204776763916,0.4666683077812195
-1.6012871265411377,-0.6394486427307129,0.9394769668579102,0.06867263466119766,0.44226813316345215,0.42644280195236206
-1.9291054010391235,-0.6780409216880798,0.8483180999755859,-0.1308871954679489,0.5087369680404663,0.2615854740142822
-1.800816535949707,-0.053909577429294586,0.41685548424720764,0.06694360077381134,0.42082077264785767,0.13515698909759521
-1.6742678880691528,-0.3427174389362335,0.6726844906806946,0.17545460164546967,0.328300416469574,0.12071549892425537
-1.5881913900375366,-0.5617960095405579,0.8887434005737305,-0.008428946137428284,0.27815067768096924,-0.020984113216400146
-1.7268396615982056,-0.30345478653907776,0.8901522159576416,0.013638213276863098,0.17685335874557495,0.0068795084953308105
-2.0642964839935303,-0.8514302372932434,1.055816650390625,-0.02389468252658844,0.07131361961364746,-0.06808048486709595
-2.3097481727600098,-0.89749675989151,0.9265478849411011,-0.1894327700138092,-0.05893540382385254,-0.23146593570709229
-1.9349560737609863,-1.2933536767959595,0.9367780089378357,-0.23602882027626038,-0.14354559779167175,-0.36542654037475586
-1.9626445770263672,-1.6419109106063843,0.4212571978569031,-0.30100885033607483,-0.14605426788330078,-0.5305312275886536
-2.1771047115325928,-1.4710263013839722,0.25471270084381104,-0.19350376725196838,-0.1103401780128479,-0.6905295848846436
-1.9228923320770264,-0.8365429639816284,0.7824373841285706,-0.1505269706249237,-0.025197431445121765,-0.6535289883613586
-1.3837854862213135,-1.1119482517242432,1.0114212036132812,-0.18567180633544922,-0.055393606424331665,-0.47059905529022217
-1.0864323377609253,-1.221915602684021,0.6432187557220459,-0.22868958115577698,-0.11087878048419952,-0.38091784715652466
-1.4824024438858032,-0.7570058703422546,0.36113131046295166,-0.17475441098213196,-0.040728986263275146,-0.26088792085647583
-1.7102521657943726,-0.5190166234970093,0.7340763211250305,-0.1521904468536377,-0.05313129723072052,-0.31809961795806885
-2.064774513244629,-1.042706847190857,0.49963608384132385,-0.24005788564682007,-0.317749947309494,-0.45990490913391113
-1.8688204288482666,-1.7638723850250244,0.3348383903503418,-0.24355590343475342,-0.299235463142395,-0.8897997736930847
-0.22174900770187378,-0.358786940574646,0.294732928276062,-0.20223355293273926,-0.033188581466674805,-0.7364827394485474
1.2006406784057617,0.38091719150543213,0.43605947494506836,-0.05137908458709717,-0.016606882214546204,-0.22378015518188477
1.4498169422149658,0.6268207430839539,0.3556670546531677,-0.15877580642700195,-0.029344335198402405,0.11799496412277222
0.849562406539917,0.7137037515640259,-0.13783876597881317,-0.14896303415298462,-0.0008091852068901062,0.30439579486846924
-0.06421547383069992,0.35991397500038147,-0.3305700719356537,-0.011500537395477295,-0.0012847073376178741,0.31143319606781006
-0.5424855947494507,-0.18502697348594666,-0.12501777708530426,0.04883617162704468,-0.002057582139968872,0.1685316562652588
-0.5427194237709045,-0.2662937343120575,-0.09248703718185425,-0.005040347576141357,-0.020554237067699432,0.008360445499420166
-0.5352074503898621,-0.10211784392595291,-0.13502320647239685,-0.006337583065032959,-0.029004983603954315,-0.06323063373565674
-0.501394510269165,0.0001206096785608679,-0.12462574243545532,-0.010546207427978516,-0.050744205713272095,-0.128098726272583
-0.18606190383434296,0.21082507073879242,-0.16999536752700806,-0.005297482013702393,-0.016603797674179077,-0.1436300277709961
0.06819704174995422,0.3892873525619507,-0.1451164186000824,0.01565009355545044,0.0031525343656539917,-0.0658462643623352
0.11195129156112671,0.23128214478492737,-0.11469075083732605,0.017076730728149414,0.01882115751504898,0.011466503143310547
0.14436209201812744,0.13888105750083923,-0.06767414510250092,0.019142627716064453,0.023329198360443115,0.018483996391296387
0.017707770690321922,0.15982258319854736,-0.06804285943508148,0.02720165252685547,0.0099325031042099,0.068450927734375
-0.2229095995426178,0.05430055782198906,-0.06646285951137543,0.0032039880752563477,-0.002458423376083374,0.05490100383758545
-0.2529372274875641,0.11319756507873535,-0.12465696781873703,-0.0023798346519470215,-0.03273274749517441,-0.054167211055755615
-0.06739762425422668,0.24242658913135529,-0.13969402015209198,0.03785961866378784,-0.021710678935050964,-0.07044541835784912
0.058959320187568665,0.20507536828517914,-0.028916828334331512,0.022647619247436523,-0.004277430474758148,-0.02471548318862915
0.11781778931617737,0.37316879630088806,-0.052279695868492126,-0.07554197311401367,-0.03027944266796112,-0.1262505054473877
0.2728160321712494,0.8925808072090149,-0.20918390154838562,-0.053856074810028076,-0.045510053634643555,-0.1912980079650879
0.4474440813064575,1.090612530708313,-0.010881801135838032,0.005525112152099609,-0.03162546455860138,-0.19807738065719604
0.013719385489821434,1.919788122177124,0.28233516216278076,-0.12383067607879639,-0.04629926010966301,-0.24787062406539917
-1.0654065608978271,2.8452839851379395,0.45964768528938293,-0.17891517281532288,-0.13940919935703278,-0.42024481296539307
-0.7062979936599731,2.7135491371154785,0.5823860168457031,-0.15432551503181458,-0.25541627407073975,-0.8349101543426514
1.0902384519577026,0.8769473433494568,0.2950640320777893,-0.09967251121997833,-0.30498653650283813,-0.971660852432251
2.437781810760498,-0.1123301088809967,-0.22393490374088287,-0.18292389810085297,-0.20769846439361572,-0.8971191644668579
2.497621774673462,0.4405326545238495,-0.45549291372299194,-0.2407529354095459,-0.042342957109212875,-0.7339227795600891
2.16717267036438,1.379279375076294,-0.34329667687416077,-0.21927286684513092,0.025775142014026642,-0.5551601648330688
1.936951994895935,1.2993121147155762,-0.4462524950504303,-0.18533314764499664,0.0924789160490036,-0.42580217123031616
2.2355947494506836,0.5784077048301697,-0.5619729161262512,-0.10229147225618362,0.16050253808498383,-0.4352063536643982
2.507654905319214,0.40738171339035034,-0.8627218008041382,-0.1208401694893837,0.3030737042427063,-0.33566415309906006
2.9469361305236816,0.5119166970252991,-0.6557024121284485,-0.04251021891832352,0.3495936691761017,-0.2231023907661438
2.996995687484741,0.6045510768890381,-0.632877767086029,-0.10777148604393005,0.4011825621128082,-0.08138883113861084
2.5242109298706055,1.244552493095398,-0.7165138125419617,-0.04323795810341835,0.3625222444534302,0.07406342029571533
1.7091211080551147,1.1183123588562012,-0.9010908007621765,-0.09832172095775604,0.26707923412323,0.24234461784362793
1.5785496234893799,0.563904345035553,-0.9266886115074158,-0.14095404744148254,0.3571775555610657,0.1318882703781128
1.7614214420318604,0.38188230991363525,-1.3549038171768188,-0.14626839756965637,0.3746328353881836,0.19303882122039795
1.6449028253555298,0.07810163497924805,-1.5060616731643677,0.014616161584854126,0.44854313135147095,0.24986153841018677
1.3539685010910034,-0.139207661151886,-0.846209704875946,0.06651636958122253,0.5212278366088867,0.327766478061676
1.480411171913147,0.33344876766204834,0.08806602656841278,0.001106947660446167,0.5377679467201233,0.39421212673187256
1.441043496131897,0.4931694269180298,0.45838624238967896,-0.003183707594871521,0.4826165437698364,0.4781871438026428
1.1933916807174683,0.28493398427963257,0.44509100914001465,0.005233436822891235,0.38514506816864014,0.5237905383110046
0.9983946681022644,-0.1976316273212433,0.42614617943763733,0.03365771472454071,0.29634273052215576,0.43496930599212646
0.6246685981750488,-0.14463621377944946,0.26781538128852844,-0.04298184812068939,0.23035091161727905,0.3686792254447937
0.22584082186222076,-0.015088166110217571,0.07242624461650848,-0.07462061941623688,0.20393234491348267,0.31537294387817383
-0.05405401438474655,-0.28142958879470825,0.07907386124134064,-0.11312370002269745,0.188468337059021,0.22031986713409424
-0.1493712067604065,-0.24395927786827087,-0.022184934467077255,-0.049441203474998474,0.13681894540786743,0.0977974534034729
-0.0411575511097908,0.07866311818361282,0.02274084836244583,-0.013097897171974182,0.12018513679504395,0.055989086627960205
0.16910508275032043,0.07121725380420685,0.029987383633852005,-0.003402009606361389,0.08142960071563721,0.08169466257095337
0.2242814153432846,-0.04495241865515709,-0.05525369569659233,0.007121846079826355,0.030505239963531494,0.13105440139770508
-0.006009720265865326,0.020752813667058945,-0.10560455918312073,0.0030065327882766724,0.06669270992279053,0.15475541353225708
-0.19847697019577026,-0.013239936903119087,0.059381380677223206,0.035638272762298584,0.005401194095611572,0.08426940441131592
-0.16876088082790375,-0.08337748050689697,0.024361081421375275,0.006431683897972107,0.002556741237640381,0.031145572662353516
-0.08928710967302322,-0.16357138752937317,0.02853585220873356,0.018640056252479553,0.015120506286621094,0.02706599235534668
-0.11452684551477432,-0.18956780433654785,0.13303594291210175,0.03542110323905945,-0.004189789295196533,0.024842262268066406
-0.23794372379779816,0.04896710813045502,0.15886007249355316,-0.018917374312877655,-0.01628422737121582,-0.006711483001708984
-0.25096046924591064,0.056369028985500336,0.09855016320943832,-0.03020576387643814,-0.019863128662109375,-0.00767594575881958
-0.1482979953289032,-0.09494665265083313,0.03118734434247017,-0.007300198078155518,-0.02026832103729248,-0.031597673892974854
-0.11874841153621674,-0.10845840722322464,0.023865055292844772,0.0042008161544799805,-0.007571160793304443,-0.032503366470336914
-0.1602293848991394,-0.10298510640859604,0.008368350565433502,-0.012663088738918304,0.03500163555145264,-0.024599909782409668
-0.21792036294937134,0.04683694615960121,0.11494243890047073,0.02620398998260498,-0.02299344539642334,-0.016029715538024902
-0.19054366648197174,-0.09453137218952179,0.04668784886598587,-0.02213723212480545,0.006654560565948486,-0.014053404331207275
-0.08293019235134125,-0.09424140304327011,-0.01408468745648861,-0.05486636608839035,0.02698308229446411,-0.06565213203430176
-0.030875833705067635,0.18518204987049103,-0.14224764704704285,-0.007178574800491333,0.01246112585067749,0.007900536060333252
-0.14516755938529968,0.08627237379550934,-0.11139886826276779,0.010951533913612366,0.07460904121398926,0.0800202488899231
-0.1349950134754181,-0.08308762311935425,0.03954314440488815,0.015364870429039001,0.07516777515411377,0.0480961799621582
-0.051298730075359344,0.03679131343960762,0.007005635183304548,-0.05466344207525253,0.12073349952697754,0.042086243629455566
0.05076809227466583,0.15435738861560822,-0.04834067076444626,-0.028832584619522095,0.14599192142486572,0.13243693113327026
0.004007299430668354,0.12822216749191284,-0.062471918761730194,-0.029046081006526947,0.19649475812911987,0.24309861660003662
-0.10936813801527023,0.14796626567840576,-0.08794468641281128,-0.0836164653301239,0.2911352515220642,0.31267982721328735
-0.3468626141548157,0.04743562638759613,-0.09674051403999329,0.0018704533576965332,0.31443673372268677,0.38487547636032104
-0.6008408069610596,-0.11804767698049545,0.11364753544330597,0.027837887406349182,0.3213568329811096,0.4074643850326538
-0.6749854683876038,-0.19292685389518738,0.22600963711738586,-0.052777960896492004,0.39540863037109375,0.427695631980896
-0.8003911375999451,-0.21341459453105927,0.22870689630508423,-0.014558233320713043,0.42006129026412964,0.4695056080818176
-0.9693084359169006,-0.6300827264785767,0.455922394990921,0.04058627784252167,0.4099627733230591,0.49999719858169556
-1.2640163898468018,-0.9492864012718201,0.5093538165092468,-0.042635202407836914,0.48858898878097534,0.5158562660217285
-1.6574205160140991,-1.3244657516479492,0.5717897415161133,0.024386655539274216,0.4199944734573364,0.44463270902633667
-1.6257165670394897,-1.675702452659607,0.9809271693229675,0.03274700045585632,0.317362904548645,0.241502046585083
-1.8121204376220703,-1.2096112966537476,0.650557816028595,-0.1671351194381714,0.41832536458969116,0.20492643117904663
-2.2175631523132324,-1.689460277557373,0.8358974456787109,0.07541928440332413,0.25831925868988037,0.053743839263916016
-1.6974334716796875,-1.8313961029052734,1.3488481044769287,-0.14014321565628052,0.2129427194595337,-0.20259523391723633
-2.018920660018921,-1.0947169065475464,0.6930829286575317,-0.16968385875225067,0.16247671842575073,-0.14684557914733887
-2.4334864616394043,-1.3547792434692383,0.726081371307373,-0.08109056949615479,0.07455945014953613,-0.3529021143913269
-2.0426855087280273,-1.2842369079589844,0.7247082591056824,-0.1243850588798523,0.16413262486457825,-0.5207309722900391
-1.8737083673477173,-0.8982847332954407,1.0725661516189575,-0.09965404868125916,0.005918741226196289,-0.5241652727127075
-1.968927264213562,-0.11530318111181259,1.0486116409301758,-0.19676584005355835,-0.07375556230545044,-0.4666862487792969
-1.8942935466766357,-0.5274585485458374,0.8914344310760498,-0.16402417421340942,-0.06705878674983978,-0.3505849242210388
-2.1316709518432617,-0.8307810425758362,0.5661735534667969,-0.23568496108055115,-0.0950867161154747,-0.5034325122833252
-1.8064221143722534,-0.6543550491333008,0.23701897263526917,-0.1951228678226471,-0.04871002584695816,-0.6440243721008301
-0.9051298499107361,-0.6422891616821289,0.6413067579269409,-0.1787964105606079,-0.07059211283922195,-0.5926614999771118
-0.6073077321052551,-0.2375386357307434,0.37469711899757385,-0.34622374176979065,-0.15350183844566345,-0.42735594511032104
-1.0228261947631836,-0.2960836887359619,-0.35693538188934326,-0.2454480528831482,-0.22081181406974792,-0.34633487462997437
-1.294651985168457,-1.6307753324508667,0.11049015820026398,-0.08474752306938171,-0.2048826366662979,-0.6957019567489624
0.21943996846675873,-0.9292135834693909,0.46156105399131775,-0.18123334646224976,-0.12593454122543335,-1.0124716758728027
1.8771934509277344,0.7367847561836243,0.4705284535884857,-0.17825156450271606,0.0005308240652084351,-0.4642597436904907
2.007814645767212,0.8364837765693665,0.22628875076770782,-0.1288747787475586,0.04236406832933426,0.16916418075561523
1.0328997373580933,0.3511194586753845,0.016664423048496246,-0.04874831438064575,0.0537378266453743,0.45548301935195923
-0.11608722060918808,0.08991564065217972,-0.06752055138349533,-0.01071879267692566,0.03803905099630356,0.40187859535217285
-0.8576913475990295,0.23598845303058624,-0.2181205004453659,-0.025880128145217896,0.03306328505277634,0.24972903728485107
-1.108010172843933,0.06896308064460754,-0.24346251785755157,0.012809962034225464,0.008519625291228294,0.13055521249771118
-1.1022334098815918,-0.4482543170452118,-0.26376771926879883,0.021058470010757446,-0.007209796458482742,0.012341856956481934
-0.848267138004303,-0.5304685831069946,-0.3117387294769287,0.037294745445251465,-0.04966643452644348,-0.1694437861442566
-0.2387927770614624,-0.2097792625427246,-0.22815832495689392,0.0471746027469635,-0.012715011835098267,-0.26012611389160156
0.23235037922859192,-0.09605652093887329,-0.02013085037469864,0.050620973110198975,0.0023779794573783875,-0.18438619375228882
0.34230858087539673,0.11418867111206055,0.06806875765323639,0.024337410926818848,-0.0033621788024902344,-0.0656854510307312
0.231401726603508,0.18791833519935608,0.055895522236824036,0.009058743715286255,0.002318829298019409,0.04203057289123535
0.13917745649814606,0.11713066697120667,0.024298712611198425,-0.042749762535095215,-0.0138624906539917,0.012982487678527832
0.18951880931854248,0.17925454676151276,-0.12982702255249023,-0.035299330949783325,-0.021724730730056763,-0.01155930757522583
0.15889306366443634,0.349051296710968,-0.0921296626329422,-0.02933204174041748,-0.050104543566703796,-0.030695676803588867
-0.08104005455970764,0.10822618007659912,-0.13099873065948486,-0.14631885290145874,-0.09614010155200958,-0.1283208131790161
-0.29741013050079346,0.575955331325531,-0.007313673850148916,-0.18647968769073486,-0.1566912829875946,-0.49687403440475464
-0.3108814060688019,1.6803557872772217,-0.10316857695579529,-0.37546345591545105,-0.16609878838062286,-0.6969540119171143
-0.1348598301410675,1.396822214126587,-0.36432817578315735,-0.23449236154556274,-0.2941725254058838,-0.8733008503913879
0.8262379169464111,1.1844741106033325,-0.6338882446289062,-0.20816844701766968,-0.24567748606204987,-1.0151751041412354
1.7439781427383423,1.1587650775909424,-0.6820405125617981,-0.22248372435569763,-0.12964221835136414,-0.9238949418067932
2.4806344509124756,1.0677906274795532,-0.5615137815475464,-0.25113701820373535,-0.038535963743925095,-0.7607652544975281
2.5117313861846924,1.2414872646331787,-0.8436530232429504,-0.29871493577957153,0.035972416400909424,-0.456554114818573
2.1774885654449463,0.9260677099227905,-0.962348222732544,-0.22726042568683624,0.12062197923660278,-0.3843306303024292
2.4597268104553223,0.9751745462417603,-1.0740635395050049,-0.19025860726833344,0.2094382643699646,-0.4364500045776367
2.678394079208374,1.134325623512268,-1.1784634590148926,-0.1780746579170227,0.36119091510772705,-0.25138992071151733
2.6550636291503906,1.080918312072754,-1.026677131652832,-0.13568927347660065,0.4590965211391449,-0.10571211576461792
2.542266607284546,1.3756080865859985,-0.8848349452018738,-0.10949040204286575,0.48719465732574463,0.025041639804840088
2.3100204467773438,1.4878662824630737,-0.7204517722129822,-0.04350271821022034,0.4697997570037842,0.19468170404434204
1.9811280965805054,1.1360740661621094,-0.7329500913619995,-0.059639617800712585,0.4045175313949585,0.3138030171394348
1.7044106721878052,0.6916986107826233,-0.7945556044578552,-0.05222737044095993,0.45283007621765137,0.3587631583213806
1.345758080482483,0.3082590103149414,-0.8139839172363281,-0.05955183506011963,0.4358648657798767,0.41687607765197754
1.0678330659866333,-0.15121197700500488,-0.6187882423400879,0.0031242817640304565,0.4477708339691162,0.3882438540458679
1.005735993385315,0.05702830106019974,-0.31916457414627075,-0.014749705791473389,0.43456965684890747,0.2978794574737549
1.1027289628982544,0.8002913594245911,-0.25386497378349304,-0.04133738577365875,0.41326504945755005,0.2773376703262329
1.1058858633041382,0.8642809391021729,-0.2959616482257843,-0.028070226311683655,0.38391417264938354,0.40110307931900024
0.9352614283561707,0.325187087059021,-0.16410091519355774,0.02313375473022461,0.3440595269203186,0.47224289178848267
0.5739219188690186,0.0671633929014206,0.044789135456085205,0.0026497840881347656,0.3088534474372864,0.42337971925735474
0.284464567899704,0.11490608006715775,0.09957188367843628,-0.02217845618724823,0.23464113473892212,0.3470349907875061
0.027438748627901077,0.1349647343158722,0.18279719352722168,0.00022272765636444092,0.16536831855773926,0.290874183177948
-0.1875901222229004,0.03815138339996338,0.2851937711238861,0.029494509100914,0.11187928915023804,0.21689581871032715
-0.23592078685760498,-0.049790892750024796,0.34516602754592896,0.006341114640235901,0.10514074563980103,0.14597421884536743
-0.1984885185956955,0.034508977085351944,0.3447163999080658,-0.051197782158851624,0.045560598373413086,0.11434692144393921
-0.27725985646247864,0.14947524666786194,0.1161874383687973,-0.09313425421714783,-0.0029476284980773926,0.05584156513214111
-0.15539951622486115,0.0043165553361177444,-0.07334502041339874,0.004475891590118408,0.004866540431976318,0.013790905475616455
-0.010957485064864159,-0.16328446567058563,0.08077686280012131,0.06438581645488739,-0.009265422821044922,0.019260883331298828
-0.16528165340423584,-0.09852824360132217,0.055565666407346725,-0.029683440923690796,0.008039116859436035,0.045083045959472656
-0.23524782061576843,-0.1280524730682373,0.04444005340337753,0.02210409939289093,0.02297794818878174,-0.006710469722747803
-0.22734355926513672,-0.07204502075910568,0.12139803916215897,0.03306874632835388,-0.01171654462814331,-0.04170113801956177
-0.040579505264759064,-0.11447224766016006,0.08841447532176971,0.016935020685195923,0.026813626289367676,-0.05606973171234131
0.02858451008796692,-0.08780031651258469,0.15144139528274536,0.025748685002326965,-0.01593416929244995,-0.027177035808563232
-0.011405888944864273,-0.1624745875597,0.09864284843206406,0.0010673552751541138,0.007533013820648193,-0.007360935211181641
-0.0027221019845455885,-0.10900607705116272,0.1520995795726776,-0.039640992879867554,0.017370223999023438,-0.03701305389404297
-0.026329638436436653,0.1662980169057846,0.07901189476251602,-0.008401528000831604,-0.0246848464012146,-0.014893412590026855
-0.005668390542268753,-0.020518003031611443,0.02001873403787613,-0.020495906472206116,0.03676724433898926,0.03994780778884888
0.06526820361614227,-0.007527226582169533,0.14660848677158356,0.0019574537873268127,0.04270428419113159,0.05554473400115967
-0.029030263423919678,0.05094924196600914,0.140861377120018,-0.0022414475679397583,0.015174329280853271,0.10395228862762451
-0.10179916769266129,0.01095632091164589,-0.03848091512918472,-0.0658712238073349,0.07786130905151367,0.13365167379379272
0.006873852573335171,-0.08051910251379013,-0.08645766973495483,-0.014337636530399323,0.14945942163467407,0.1563212275505066
0.16182273626327515,-0.07125633209943771,0.006984789855778217,0.015020862221717834,0.23479634523391724,0.22696977853775024
0.17044886946678162,0.04491988196969032,0.13100717961788177,0.038798004388809204,0.2856627106666565,0.3377067446708679
0.011027336120605469,-0.04761914536356926,0.29276925325393677,0.0035828053951263428,0.358781099319458,0.4399451017379761
-0.2587655484676361,-0.23961101472377777,0.38260406255722046,-0.019661329686641693,0.4632795453071594,0.4589230418205261
-0.5669044256210327,-0.36201801896095276,0.6929014325141907,0.15601852536201477,0.4120005965232849,0.4636402726173401
-0.831790566444397,-0.7872243523597717,1.0317212343215942,0.09461788833141327,0.47405707836151123,0.5094059109687805
-1.1950141191482544,-0.9945329427719116,1.0895583629608154,-0.12712031602859497,0.5937495231628418,0.4826188087463379
-1.5940948724746704,-0.1354186087846756,1.0475581884384155,0.026797592639923096,0.460889995098114,0.4389059543609619
-1.8720579147338867,-0.6417959928512573,1.0588107109069824,0.0746600478887558,0.4869036078453064,0.49541157484054565
-1.9642337560653687,-2.512693405151367,1.0285494327545166,-0.117617666721344,0.7407099008560181,0.37182605266571045
-2.0715389251708984,-1.5468025207519531,1.4201133251190186,0.04024025797843933,0.5466000437736511,0.16371357440948486
-3.0120949745178223,-0.8076995015144348,2.0439517498016357,-0.12142543494701385,0.38138753175735474,0.013576745986938477
-3.554532051086426,-0.26705291867256165,1.3168549537658691,-0.3041580319404602,0.21861746907234192,-0.376278281211853
-3.481705904006958,0.11158275604248047,0.4837433993816376,-0.06727534532546997,-0.11384755373001099,-0.5987598896026611
-2.1276285648345947,-0.16902364790439606,0.49606022238731384,-0.24491578340530396,0.028512299060821533,-0.779619574546814
-1.8714886903762817,-0.7096543312072754,0.35086482763290405,-0.20766934752464294,-0.14660042524337769,-0.6774795055389404
-2.184813976287842,-1.0684752464294434,0.3276011347770691,-0.2024996280670166,-0.1840200126171112,-0.857520580291748
-1.1494240760803223,-0.8087257146835327,0.366036981344223,-0.17052185535430908,-0.11232343316078186,-0.9109225273132324
-0.00281907687895,-0.9679767489433289,0.8736834526062012,-0.1662473976612091,-0.12129927426576614,-0.5338917374610901
0.2240331768989563,-1.1515947580337524,0.5010681748390198,-0.3872978985309601,-0.09740731120109558,-0.28298598527908325
-0.05122499540448189,-1.3014575242996216,0.3638675808906555,-0.21111547946929932,-0.09765505790710449,-0.21631217002868652
0.39093726873397827,-0.8417049050331116,0.6204208731651306,-0.15646487474441528,-0.028686732053756714,-0.22495228052139282
0.277392715215683,-0.18413731455802917,0.43496155738830566,-0.18060410022735596,-0.04008325934410095,-0.10406434535980225
-0.32971230149269104,0.2687031030654907,0.40588974952697754,-0.19038254022598267,-0.008472878485918045,-0.02062392234802246
-0.9738436341285706,-0.28586453199386597,0.5966983437538147,-0.12480461597442627,-0.054931528866291046,-0.0231325626373291
-1.8276050090789795,-1.6532551050186157,0.8375365138053894,-0.1368226408958435,-0.24133038520812988,-0.17864131927490234
-1.6211040019989014,-1.3747786283493042,0.04530997946858406,-0.18204116821289062,-0.19800600409507751,-0.507522463798523
-0.30266091227531433,-0.4171854257583618,-0.20611438155174255,0.012160301208496094,-0.12137442827224731,-0.43895822763442993
0.3143370747566223,0.5479035377502441,-0.14726661145687103,-0.010707616806030273,-0.04319541156291962,-0.15682083368301392
0.03876003995537758,0.4591729938983917,-0.19272379577159882,0.010457634925842285,-0.020774878561496735,0.06913471221923828
-0.01947764679789543,0.06168987229466438,-0.1964772343635559,0.015194058418273926,-0.014033682644367218,0.058668553829193115
-0.08846848458051682,0.10095132142305374,-0.21393337845802307,0.03312736749649048,0.00504322350025177,0.08206331729888916
-0.28026846051216125,0.13886812329292297,-0.24102966487407684,0.024826228618621826,0.012216217815876007,0.09465551376342773
-0.47064200043678284,-0.19062186777591705,-0.1220523864030838,0.03369736671447754,0.010396398603916168,0.035160839557647705
-0.37959182262420654,-0.19759079813957214,-0.06487996876239777,0.005918443202972412,0.005521215498447418,-0.05658674240112305
-0.18859273195266724,-0.031113481149077415,-0.04956364631652832,0.02511441707611084,-0.01156172901391983,-0.09245479106903076
0.04102705046534538,0.06156475841999054,0.014319692738354206,0.0008955597877502441,0.003880612552165985,-0.07671010494232178
0.15519273281097412,-0.08075486123561859,0.056370340287685394,-0.0068550705909729,0.004479274153709412,-0.03442943096160889
0.17016103863716125,-0.013303915970027447,0.03171293064951897,-0.02710205316543579,0.005352534353733063,-0.008610844612121582
0.11446326971054077,0.08390486240386963,0.01506108045578003,-0.02553403377532959,0.0006469190120697021,0.031164705753326416
0.036204274743795395,0.02718229591846466,-0.039277780801057816,-0.009278178215026855,-0.009107716381549835,0.043740272521972656
-0.0416824109852314,-0.032237257808446884,-0.054411448538303375,0.0023837685585021973,-0.0004628002643585205,0.019640088081359863
0.024166379123926163,-0.02848219685256481,-0.04155370593070984,-0.0191381573677063,-0.023005634546279907,-0.03327739238739014
0.09027518332004547,0.16055016219615936,-0.13002899289131165,-0.04811328649520874,-0.03650635480880737,-0.06861156225204468
0.13745322823524475,0.2865126132965088,-0.14284764230251312,-0.019850492477416992,-0.030506685376167297,-0.14568543434143066
0.324972003698349,0.7068797945976257,-0.20425240695476532,-0.06845855712890625,-0.0762285590171814,-0.3572150468826294
-0.2252539098262787,1.0033347606658936,-0.24389366805553436,-0.08743607997894287,-0.10931728780269623,-0.392707884311676
0.2730924189090729,-0.6226829886436462,0.8216066956520081,-0.20356148481369019,-0.3372117877006531,-1.0431514978408813
1.9488646984100342,0.5879890322685242,0.24787276983261108,-0.7706953883171082,-0.3902381658554077,-1.2104849815368652
2.439357042312622,1.473726511001587,-1.0965917110443115,-0.6392640471458435,-0.31286096572875977,-0.7576611042022705
2.3674869537353516,1.4082027673721313,-1.3601810932159424,-0.381305068731308,-0.04037346690893173,-0.49549639225006104
2.331995964050293,1.0983941555023193,-1.136957049369812,-0.297209233045578,0.08858087658882141,-0.37619638442993164
2.1335926055908203,1.1771708726882935,-1.2133228778839111,-0.31834468245506287,0.11803621053695679,-0.31714504957199097
2.0987212657928467,1.423891305923462,-1.3852804899215698,-0.2758471667766571,0.2076546847820282,-0.2810797691345215
2.1478028297424316,1.5177927017211914,-1.464805245399475,-0.19007733464241028,0.2920454144477844,-0.22476011514663696
2.501185178756714,1.4459127187728882,-1.2321852445602417,-0.10782565176486969,0.392814576625824,-0.16416436433792114
2.4953861236572266,1.4170894622802734,-1.0491410493850708,-0.11104097962379456,0.3915407061576843,-0.016491711139678955
2.0636653900146484,0.9308193922042847,-0.9961671233177185,-0.0450480580329895,0.38557666540145874,0.07279443740844727
2.1272506713867188,0.3346036374568939,-0.8264514207839966,0.049290843307971954,0.4093945026397705,0.03230917453765869
2.2657063007354736,0.5340219736099243,-0.5786481499671936,0.0009359270334243774,0.39130765199661255,0.06560695171356201
2.1303250789642334,0.6143124103546143,-0.6120540499687195,-0.020900748670101166,0.37937790155410767,0.18321824073791504
1.8592642545700073,0.4263891577720642,-0.6753422021865845,0.007615253329277039,0.36598581075668335,0.26348602771759033
1.515470266342163,0.2772134244441986,-0.6893852949142456,-0.02857673168182373,0.3598140478134155,0.2954326868057251
1.241779088973999,0.6611256003379822,-0.6709197163581848,-0.026518195867538452,0.3896598815917969,0.2785818576812744
1.1309962272644043,0.638051450252533,-0.4442039430141449,0.00574137270450592,0.3618704080581665,0.3055405616760254
1.131359338760376,0.402874618768692,-0.34549155831336975,0.0012531951069831848,0.3538796305656433,0.3378291130065918
0.9699351787567139,-0.09942745417356491,-0.371246874332428,-0.007912963628768921,0.3241915702819824,0.3690813183784485
0.7328765988349915,-0.11147872358560562,-0.34523099660873413,0.04931189864873886,0.3161623477935791,0.33885401487350464
0.14540110528469086,0.1588420867919922,-0.3197964131832123,0.07155442982912064,0.3262366056442261,0.36761191487312317
-0.326721727848053,-0.1140976995229721,0.14165623486042023,0.11657505482435226,0.26397085189819336,0.30286654829978943
-0.37924355268478394,-0.4102157950401306,0.3382444381713867,0.02150062471628189,0.2290627360343933,0.15933096408843994
-0.21999746561050415,-0.19804181158542633,0.11291014403104782,-0.028960704803466797,0.17244762182235718,0.09695720672607422
-0.16359350085258484,-0.15332093834877014,0.17811061441898346,0.04689478129148483,0.1181291937828064,0.0947311520576477
-0.11425349861383438,-0.09589682519435883,0.16966597735881805,0.004730679094791412,0.11975955963134766,0.09206333756446838
0.014337255619466305,-0.17903345823287964,0.11356885731220245,-0.05149103328585625,0.08985084295272827,0.09540286660194397
-0.01789127290248871,-0.06094922870397568,-0.032287657260894775,-0.014930754899978638,0.06806051731109619,0.13344234228134155
-0.13020744919776917,-0.06757935136556625,0.05808079242706299,0.028528470546007156,0.11956161260604858,0.15794172883033752
-0.25939396023750305,-0.052714940160512924,0.2775818407535553,0.02727573737502098,0.06358540058135986,0.1717890202999115
-0.36885207891464233,-0.15672734379768372,0.15477174520492554,-0.018602296710014343,0.08216875791549683,0.1711999773979187
-0.3202698826789856,-0.304569274187088,0.11264359951019287,-0.04489133507013321,0.1777673363685608,0.16630321741104126
-0.32288360595703125,-0.22150099277496338,0.20179951190948486,0.006683275103569031,0.20591503381729126,0.19767922163009644
-0.5159540772438049,-0.31501415371894836,0.35302573442459106,0.07763399928808212,0.19230717420578003,0.245652437210083
-0.5805017352104187,-0.4184238910675049,0.533824622631073,0.01533760130405426,0.2629467248916626,0.22228866815567017
-0.5885430574417114,-0.14708311855793,0.4576581120491028,-0.05687431991100311,0.2330206036567688,0.27664005756378174
-0.9324740171432495,-0.10686416178941727,0.28848835825920105,0.10269688814878464,0.1858169436454773,0.3611655831336975
-1.1832783222198486,-0.7025032043457031,0.3708515763282776,0.03495108336210251,0.3466870188713074,0.28354644775390625
-1.305092215538025,-0.2902745008468628,0.5370827913284302,0.0942251980304718,0.3617602586746216,0.2161937952041626
-1.5383622646331787,-0.08920859545469284,0.8917666077613831,0.1907094568014145,0.2711023688316345,0.24129945039749146
-1.590016484260559,-0.5814738273620605,0.7912906408309937,-0.021274328231811523,0.4185815453529358,0.2016962766647339
-1.5466190576553345,-0.08428307622671127,0.5955607295036316,0.10589668154716492,0.32208752632141113,0.12398040294647217
-1.7086384296417236,0.10624083131551743,0.8516462445259094,0.23081642389297485,0.21252453327178955,0.13683933019638062
-1.960367202758789,-0.511678159236908,0.7232885360717773,-0.01538318395614624,0.3540722131729126,0.09302854537963867
-2.1141300201416016,-0.828130841255188,0.4369798004627228,-0.010602951049804688,0.34853696823120117,-0.018471360206604004
-1.6307249069213867,-1.671838641166687,0.8484039306640625,0.03740236163139343,0.3179476261138916,-0.21640342473983765
-0.8280376195907593,-1.3193612098693848,0.9705692529678345,-0.08314895629882812,0.33687350153923035,-0.2636525630950928
-1.4053871631622314,-0.4144706428050995,1.172005534172058,0.06184113025665283,0.12060624361038208,-0.08594489097595215
-1.8350775241851807,-0.6016731262207031,1.5101737976074219,-0.12745314836502075,0.09324023127555847,-0.15330147743225098
-1.4040664434432983,-0.5427343249320984,1.3217856884002686,-0.30155956745147705,0.004330247640609741,-0.2790426015853882
-1.5339022874832153,-0.29582449793815613,1.055651068687439,-0.3104035556316376,-0.08753013610839844,-0.24031496047973633
-1.4289448261260986,-0.8822258114814758,0.9254111647605896,-0.258888304233551,-0.06325535476207733,-0.2671564221382141
-1.8556666374206543,-0.48796579241752625,0.6243799328804016,-0.33314499258995056,-0.1432124674320221,-0.27405035495758057
-2.295370578765869,-0.12550728023052216,0.133484348654747,-0.282388836145401,-0.09216336160898209,-0.39279305934906006
-1.7539643049240112,-0.46713170409202576,0.373869389295578,-0.18296897411346436,-0.10424289107322693,-0.5940853953361511
-0.8368188738822937,-0.08275962620973587,0.24029523134231567,-0.2625621557235718,-0.13658034801483154,-0.6097642779350281
-0.34163737297058105,0.3271903097629547,0.1350158154964447,-0.12275359034538269,-0.10031050443649292,-0.357824444770813
-0.13511008024215698,0.7025170922279358,0.4141356945037842,-0.18305259943008423,-0.045217663049697876,-0.19624567031860352
-0.9992942810058594,0.15823625028133392,0.45741167664527893,-0.2168256938457489,-0.12109144032001495,-0.0829693078994751
-1.9386427402496338,-1.423744797706604,0.28785014152526855,-0.24872365593910217,-0.28786370158195496,-0.4584271311759949
-0.5947260856628418,-1.05519437789917,-0.26377633213996887,-0.15840372443199158,-0.10598292946815491,-0.6990574598312378
1.0171688795089722,-0.03600200638175011,-0.12630409002304077,0.11046546697616577,-0.03517310321331024,-0.3914225101470947
1.2332404851913452,0.7892178297042847,0.07075563073158264,0.08927342295646667,0.004027888178825378,0.047600626945495605
0.30378422141075134,0.6730964779853821,0.02501879632472992,0.010172277688980103,-0.0028419271111488342,0.2976081967353821
-0.3629790246486664,-0.11016720533370972,-0.015435189008712769,0.033289968967437744,-0.01677248626947403,0.22951340675354004
-0.06906364113092422,-0.4177308976650238,-0.0765545442700386,0.04326051473617554,0.0015288442373275757,0.01159137487411499
0.1770392507314682,-0.45959922671318054,-0.06456664949655533,0.06211733818054199,0.013487882912158966,0.0015402436256408691
-0.10689125210046768,-0.4665102958679199,-0.020742226392030716,0.026264488697052002,-0.012853749096393585,-0.014771103858947754
-0.1755022555589676,-0.2758862376213074,-0.030466517433524132,0.014631211757659912,-0.0018800273537635803,-0.09453094005584717
0.11880333721637726,0.024270271882414818,0.05646572634577751,0.038916826248168945,0.007549986243247986,-0.12459415197372437
0.37206852436065674,0.05115332454442978,0.1848558634519577,0.02659052610397339,0.009742923080921173,-0.02163827419281006
0.2722882926464081,-0.0519525445997715,0.1794808804988861,-0.022386908531188965,-0.012525931000709534,0.05418872833251953
0.12602034211158752,-0.23547062277793884,0.13371829688549042,-0.031838417053222656,-0.024786286056041718,0.05609196424484253
0.13669399917125702,-0.16755934059619904,0.06494326889514923,-0.05280506610870361,-0.02717450261116028,0.013162434101104736
0.026098841801285744,-0.0022257710807025433,-0.09476233273744583,-0.056571781635284424,-0.029047735035419464,0.02655494213104248
-0.10201319307088852,-0.03625181317329407,-0.09105892479419708,-0.019275963306427002,-0.013177227228879929,0.0007890462875366211
-0.20043674111366272,0.3518427908420563,-0.1151125505566597,-0.08442354202270508,-0.053476668894290924,-0.13782572746276855
-0.15423071384429932,0.6819674968719482,-0.18441073596477509,-0.1522497534751892,-0.11635437607765198,-0.3618367910385132
-0.3417784571647644,1.7307171821594238,-0.27933913469314575,-0.25647035241127014,-0.23336181044578552,-0.460410475730896
-1.6082156896591187,0.7087569236755371,-0.5009494423866272,-0.43894878029823303,-0.308464914560318,-0.6934612393379211
0.21499915421009064,0.07165621221065521,-0.6911858320236206,-0.4219290614128113,-0.2609536647796631,-1.4773186445236206
2.767324686050415,1.1832926273345947,-1.1208274364471436,-0.19069474935531616,-0.1329338252544403,-1.1446285247802734
3.1065585613250732,0.926074206829071,-0.770363986492157,-0.15944525599479675,0.01738118752837181,-0.461254358291626
2.3206536769866943,0.5093050599098206,-0.6910297870635986,-0.309213250875473,0.0010768473148345947,-0.20524513721466064
1.7515690326690674,0.35406258702278137,-1.0776766538619995,-0.29542866349220276,0.022191092371940613,-0.2507532238960266
2.222101926803589,-0.014651941135525703,-1.0241385698318481,-0.2560206949710846,0.08881670236587524,-0.3672439455986023
2.5962233543395996,0.41672396659851074,-1.4839355945587158,-0.381110280752182,0.18331515789031982,-0.2512871026992798
2.513030767440796,0.9302508234977722,-1.9017101526260376,-0.293272465467453,0.29338371753692627,-0.1326514482498169
2.1813812255859375,0.9617061614990234,-2.0532126426696777,-0.1565513163805008,0.4190308153629303,0.023539245128631592
1.8482811450958252,1.1659932136535645,-1.7504467964172363,-0.0011799335479736328,0.4590957760810852,0.05637764930725098
1.423460841178894,1.3457798957824707,-1.2962837219238281,0.06603804230690002,0.43448352813720703,0.12404924631118774
1.109835147857666,1.345276951789856,-0.9969260692596436,0.05097860097885132,0.46753013134002686,0.11597698926925659
1.0896786451339722,1.088187336921692,-0.7117801308631897,0.06777872145175934,0.4273598790168762,0.1519153118133545
1.0470643043518066,0.8996038436889648,-0.5999118685722351,0.030367687344551086,0.42173904180526733,0.15640634298324585
1.2562564611434937,0.7666203379631042,-0.5544637441635132,0.05384307727217674,0.4330541491508484,0.18206286430358887
1.66301691532135,0.5187702775001526,-0.24905619025230408,0.10850324481725693,0.41225558519363403,0.2532849907875061
1.5808905363082886,0.31417903304100037,-0.12221426516771317,0.01945900171995163,0.39825528860092163,0.4107511043548584
1.152604103088379,0.06559544801712036,-0.21483759582042694,-0.031232275068759918,0.36172759532928467,0.458218514919281
0.7616689205169678,0.01141404639929533,-0.03660166636109352,0.007548727095127106,0.28555744886398315,0.39321577548980713
0.3881061375141144,0.36646929383277893,-0.09347549825906754,-0.03374873101711273,0.2719078063964844,0.3436421751976013
0.39345410466194153,0.26051509380340576,-0.030115794390439987,-0.05468713492155075,0.22680604457855225,0.2545856833457947
0.3233126103878021,0.4693206250667572,-0.15988366305828094,-0.05152080953121185,0.16139328479766846,0.23950845003128052
0.4042394161224365,0.26467159390449524,-0.16497854888439178,-0.0021552443504333496,0.16763997077941895,0.211203932762146
0.34757664799690247,0.18533921241760254,-0.078403040766716,0.06497929990291595,0.07863819599151611,0.24981963634490967
0.028935231268405914,-0.11667449027299881,-0.054384004324674606,-0.04123397171497345,0.08585429191589355,0.20957523584365845
-0.15773986279964447,0.08048644661903381,-0.1764097511768341,-0.029173798859119415,0.054444849491119385,0.12190335988998413
-0.2226170301437378,0.015758126974105835,-0.27397266030311584,0.038889601826667786,0.03652149438858032,0.10352593660354614
-0.11260320246219635,-0.0854584202170372,-0.1688457578420639,0.01718345284461975,0.09194201231002808,0.055032968521118164
-0.09853004664182663,0.015285786241292953,-0.1538332849740982,0.022015482187271118,0.07073867321014404,0.06998181343078613
-0.17133045196533203,0.12161864340305328,-0.054080985486507416,0.06699338555335999,0.04316061735153198,0.043414533138275146
0.023746151477098465,-0.08187020570039749,0.07113882899284363,0.05798658728599548,0.08964645862579346,0.002653837203979492
0.28539547324180603,-0.04845216125249863,0.20568758249282837,0.0019367039203643799,0.07294785976409912,0.039044320583343506
0.12612448632717133,0.12628483772277832,-0.033848270773887634,-0.08499838411808014,0.0858997106552124,0.1798839569091797
-0.00516356248408556,-0.03425914794206619,-0.16188345849514008,-0.014422029256820679,0.1764228343963623,0.2411676049232483
-0.01651255413889885,-0.23761571943759918,-0.04134276136755943,0.04113747179508209,0.2580950856208801,0.2962014079093933
-0.19788402318954468,-0.1055677980184555,0.0877060666680336,0.003996983170509338,0.3785324692726135,0.3534353971481323
-0.4733332693576813,0.09438706189393997,0.30746278166770935,0.024359941482543945,0.43967390060424805,0.4189068078994751
-1.1639058589935303,0.19108563661575317,0.42618417739868164,0.06178867816925049,0.4265103340148926,0.5153911113739014
-1.5719025135040283,-0.6204125881195068,0.6702635884284973,0.07255308330059052,0.5151299238204956,0.4596428871154785
-1.524727702140808,-0.9403226971626282,1.0321385860443115,0.03634815663099289,0.5732529759407043,0.330691933631897
-1.5961943864822388,-0.4320424795150757,1.2956664562225342,0.08456067740917206,0.4591556787490845,0.3336440920829773
-1.788482427597046,-0.7851787209510803,1.435097098350525,-0.129596546292305,0.5448124408721924,0.3186532258987427
-1.8475006818771362,-0.514206051826477,1.3173738718032837,-0.13857349753379822,0.40543943643569946,0.16281485557556152
-1.324448823928833,-0.9305241703987122,1.0633807182312012,-0.0621306449174881,0.27821898460388184,-0.004496216773986816
-0.6652030348777771,-1.5299383401870728,0.7096573114395142,-0.13761338591575623,0.4688543677330017,-0.06464087963104248
-0.834977388381958,0.2413763701915741,1.1333149671554565,0.15073232352733612,0.25141632556915283,-0.02718806266784668
-1.6038202047348022,-0.006165360566228628,1.8588943481445312,0.037556469440460205,0.10565328598022461,0.11350148916244507
-2.2486116886138916,-0.7028066515922546,1.5311663150787354,-0.28903430700302124,-0.0021616220474243164,-0.0991584062576294
-2.743868827819824,-0.8152016401290894,0.667270302772522,-0.29622867703437805,-0.25105783343315125,-0.3898507356643677
-2.556868314743042,-1.1157917976379395,0.44792014360427856,-0.2788846492767334,-0.17492738366127014,-0.8407506942749023
-2.1425559520721436,-0.5382572412490845,0.8352256417274475,-0.25299185514450073,-0.20177286863327026,-0.9184925556182861
-1.9492167234420776,-0.08915257453918457,0.7156471014022827,-0.26031383872032166,-0.276988685131073,-0.6989389657974243
-1.778351068496704,-0.5297954678535461,0.2665708661079407,-0.26174691319465637,-0.28789475560188293,-0.549862802028656
-1.3350603580474854,-1.0131118297576904,-0.011060645803809166,-0.08230650424957275,-0.16115371882915497,-0.5310733914375305
-0.4407096207141876,-0.6392257809638977,0.32786989212036133,-0.14512473344802856,-0.12344583123922348,-0.5211711525917053
-0.24256056547164917,-0.12238966673612595,0.18726854026317596,-0.20132231712341309,-0.11243990063667297,-0.18188750743865967
-0.7622750401496887,-0.1835777312517166,-0.12672194838523865,-0.12145665287971497,-0.03335569053888321,0.055473923683166504
-1.1763787269592285,-0.20573633909225464,-0.18117888271808624,-0.04780048131942749,0.028293615207076073,0.016581416130065918
-1.4591017961502075,-0.38948699831962585,-0.16849318146705627,-0.015417128801345825,-0.02913423255085945,-0.14009571075439453
-1.9272398948669434,-0.8692383170127869,-0.06826673448085785,-0.01501116156578064,-0.0692363977432251,-0.31814485788345337
-1.1680837869644165,-0.7731615304946899,0.06616178900003433,-0.024544954299926758,-0.033755093812942505,-0.5172960162162781
0.20899295806884766,-0.14814169704914093,0.1097261905670166,-0.0013085007667541504,0.026971302926540375,-0.37768763303756714
0.7730695009231567,0.16618983447551727,0.05955086648464203,-0.0013329386711120605,0.017605438828468323,-0.12095463275909424
0.4081898331642151,0.24558453261852264,-0.042276959866285324,-0.005969136953353882,0.010366097092628479,0.06862539052963257
0.020744485780596733,0.02280021458864212,0.028307761996984482,0.030759066343307495,0.010734334588050842,0.10566973686218262
-0.042480576783418655,-0.04111720621585846,0.0654139593243599,0.028781026601791382,-0.007558770477771759,0.065407395362854
-0.12781625986099243,-0.06658002734184265,0.035036373883485794,0.0066814124584198,-0.03656031936407089,0.05159115791320801
-0.19725631177425385,-0.22273629903793335,0.004575496539473534,-0.005071759223937988,-0.06366632133722305,-0.0023599863052368164
-0.07302463054656982,-0.22518904507160187,-0.07846464216709137,-0.040883421897888184,-0.045090071856975555,-0.07886481285095215
0.15030133724212646,0.10111589729785919,-0.08485908806324005,-0.018518954515457153,-0.014821261167526245,-0.09117549657821655
0.16497810184955597,0.2408105731010437,-0.04511106014251709,-0.0126991868019104,-0.017079629004001617,-0.004417359828948975
0.055108264088630676,0.14581499993801117,-0.08013546466827393,-0.010984718799591064,-0.017309673130512238,0.054197609424591064
0.006611905992031097,0.00891882088035345,-0.15256644785404205,-0.014201164245605469,-0.005575269460678101,0.03877103328704834
0.005967455916106701,0.08613065630197525,-0.18480245769023895,-0.007464468479156494,0.0027164630591869354,-0.0158846378326416
-0.036114271730184555,0.22576755285263062,-0.13401368260383606,0.008199423551559448,0.004773855209350586,-0.01463615894317627
-0.08342444896697998,0.20237918198108673,-0.08872157335281372,-0.033351510763168335,-0.006137430667877197,-0.07141566276550293
0.12578032910823822,0.3265765905380249,-0.13407249748706818,-0.03695669770240784,-0.0322469100356102,-0.21150678396224976
0.46155741810798645,0.5100647211074829,-0.21480894088745117,-0.09022447466850281,-0.0282171368598938,-0.37339699268341064
0.7690500020980835,0.5081260204315186,0.02069273218512535,-0.13084185123443604,-0.10000442713499069,-0.3922981023788452
0.5499321818351746,-0.06596021354198456,-0.02981708198785782,-0.2336098849773407,-0.21953529119491577,-0.4479091763496399
-0.02801499329507351,0.9540522694587708,-0.8247084021568298,-0.2677370309829712,-0.2859650254249573,-0.6442630290985107
0.5363245606422424,1.4456286430358887,-0.9430898427963257,-0.0889558494091034,-0.14334645867347717,-0.884182333946228
1.604335904121399,1.3393892049789429,-0.2860901355743408,-0.07795733213424683,-0.05808214843273163,-0.8285816311836243
2.1585001945495605,0.9923608303070068,-0.1825549155473709,-0.17993691563606262,-0.022360391914844513,-0.5898988246917725
1.9269105195999146,0.8626707196235657,-0.47791633009910583,-0.18589544296264648,-0.018423214554786682,-0.4318222403526306
1.8614758253097534,1.0539255142211914,-0.5262959003448486,-0.15200625360012054,0.05170561373233795,-0.44905757904052734
2.4902663230895996,1.3316439390182495,-0.3788721561431885,-0.18699896335601807,0.17419689893722534,-0.4121776819229126
2.6439876556396484,1.449958324432373,-0.45317602157592773,-0.17359592020511627,0.1913483440876007,-0.14720362424850464
2.3036441802978516,1.110733985900879,-0.5386778116226196,-0.11436155438423157,0.25269564986228943,-0.003073275089263916
2.2445688247680664,0.873906672000885,-0.45379453897476196,-0.08204372227191925,0.2765752673149109,0.00835031270980835
2.1205670833587646,0.8703866004943848,-0.48828014731407166,-0.048406653106212616,0.2882940173149109,0.08740752935409546
1.7946417331695557,0.9027826189994812,-0.43760961294174194,0.0003331005573272705,0.26851731538772583,0.14461970329284668
1.5924720764160156,0.7666855454444885,-0.36215338110923767,-0.03612622618675232,0.3098697066307068,0.2029780149459839
1.522431492805481,0.21970510482788086,-0.22679542005062103,-0.02266807295382023,0.3014482259750366,0.1774631142616272
1.4827502965927124,0.11465682834386826,-0.2746294438838959,-0.02289280667901039,0.2858979105949402,0.17675137519836426
1.234104871749878,0.013784470967948437,-0.5513626337051392,0.0118977390229702,0.2662794589996338,0.2546905279159546
1.2274125814437866,-0.34355923533439636,-0.47008225321769714,0.08429472148418427,0.3304201364517212,0.24760496616363525
0.9958829283714294,-0.11357057839632034,-0.2778141498565674,0.04687759652733803,0.3267046809196472,0.2603408694267273
0.6971452832221985,0.16989798843860626,-0.10511953383684158,-0.0031711310148239136,0.34399324655532837,0.22535443305969238
0.8276462554931641,0.01021342072635889,-0.1807728409767151,-0.05343012884259224,0.3073384165763855,0.2089860439300537
0.965745210647583,-0.07952618598937988,-0.19635440409183502,0.03404446691274643,0.26481038331985474,0.27273303270339966
0.6543866395950317,-0.18873028457164764,-0.13184218108654022,0.01821250468492508,0.3082563281059265,0.2685428857803345
0.12947788834571838,0.6836258769035339,0.17617054283618927,0.02636048197746277,0.23118984699249268,0.2276773452758789
-0.0511590875685215,0.9352431893348694,0.2837596833705902,-0.055852100253105164,0.16142362356185913,0.16129213571548462
0.2961387634277344,0.3093503415584564,0.0589136928319931,-0.08378306031227112,0.13443565368652344,0.13884079456329346
0.5760826468467712,-0.2032865732908249,-0.1838805377483368,-0.018380023539066315,0.12496131658554077,0.17612993717193604
0.20954559743404388,-0.23310662806034088,-0.23216655850410461,0.04991695284843445,0.1545659899711609,0.21535158157348633
-0.2237783521413803,0.17640571296215057,-0.014908090233802795,0.05570445954799652,0.1119837760925293,0.1582992672920227
-0.08884434401988983,-0.07040649652481079,0.11807229369878769,0.06810127198696136,0.1026301383972168,0.08009219169616699
-0.0006459716241806746,-0.2989989221096039,0.27238747477531433,0.01990398019552231,0.029907047748565674,0.06947940587997437
-0.23475012183189392,0.0865694060921669,0.021754764020442963,-0.09924591332674026,0.07193601131439209,0.04309487342834473
-0.12875282764434814,0.26351508498191833,-0.05126478895545006,0.07922927290201187,0.04168987274169922,0.04995328187942505
-0.004654258489608765,-0.28836092352867126,0.16599085927009583,0.07447738945484161,0.0382806658744812,0.06839156150817871
-0.05557038635015488,-0.25091758370399475,0.13732193410396576,-0.014053434133529663,0.0468369722366333,0.0334855318069458
-0.23844587802886963,0.045061152428388596,0.19670388102531433,-0.0009968727827072144,-0.03929793834686279,-0.02580052614212036
-0.12204834818840027,0.08442069590091705,0.0859910324215889,-0.028147179633378983,0.013148248195648193,-0.05721348524093628
-0.11727213859558105,-0.08295909315347672,0.1050948053598404,0.01984875649213791,-0.0661001205444336,-0.01715296506881714
-0.18326227366924286,-0.10033836960792542,0.04970720410346985,-0.015110868960618973,-0.032829105854034424,-0.03942781686782837
-0.10041999071836472,-0.0917670875787735,-0.031094979494810104,-0.028887875378131866,0.00643235445022583,-0.0831151008605957
-0.055061399936676025,0.2240828275680542,-0.00608518160879612,-0.01141626387834549,0.012621641159057617,-0.07647973299026489
0.078459732234478,0.15340527892112732,-0.04514428600668907,0.03171310946345329,0.06267434358596802,0.017003774642944336
-0.008025643415749073,-0.07659189403057098,0.11103407293558121,0.04156738519668579,0.053592026233673096,0.06543749570846558
-0.11212646216154099,0.14003369212150574,0.05256354436278343,-0.04014361649751663,0.10128402709960938,0.0338253378868103
0.04905923083424568,0.2543547749519348,-0.010244360193610191,-0.03329544886946678,0.17114990949630737,0.0763896107673645
0.17645303905010223,0.36742454767227173,-0.06645131856203079,-0.025477439165115356,0.19112646579742432,0.20070767402648926
0.07094558328390121,0.2964210510253906,-0.2156907618045807,-0.03732459247112274,0.3024436831474304,0.33795756101608276
-0.15228861570358276,0.14523132145404816,-0.22510071098804474,-0.005754418671131134,0.43686020374298096,0.3914949297904968
-0.4878382682800293,0.11386508494615555,0.10632073134183884,0.12625530362129211,0.40464699268341064,0.4299411177635193
-0.7141151428222656,-0.19547000527381897,0.38163331151008606,0.02432655543088913,0.46703213453292847,0.4495227336883545
-1.0814857482910156,-0.04715564101934433,0.5067769289016724,0.08975652605295181,0.38241028785705566,0.478537380695343
-1.448193073272705,-0.4054464101791382,0.7480754852294922,0.11085061728954315,0.33028584718704224,0.484563946723938
-1.3846999406814575,-1.170548677444458,0.8316699862480164,-0.031908974051475525,0.400978684425354,0.380645751953125
-1.241349458694458,-1.0082453489303589,0.8182780742645264,0.035163767635822296,0.356797456741333,0.3301764726638794
-1.4730172157287598,-1.5382357835769653,1.0695972442626953,0.037714071571826935,0.274658739566803,0.3111547827720642
-1.8344404697418213,-1.68617844581604,0.7909609079360962,-0.0846642404794693,0.4136298894882202,0.1514487862586975
-2.3865084648132324,-1.4207139015197754,1.0413790941238403,-0.019154652953147888,0.29497241973876953,0.027568936347961426
-2.525712728500366,-1.723427653312683,1.3144195079803467,-0.20124605298042297,0.25281643867492676,-0.1291237473487854
-2.358325719833374,-1.2307997941970825,0.7473003268241882,-0.13876065611839294,0.14175406098365784,-0.2966299057006836
-1.9823217391967773,-1.3873693943023682,0.8163121938705444,0.07324260473251343,-0.007781535387039185,-0.3973369002342224
-1.4239189624786377,-1.0436301231384277,0.8634963631629944,-0.17969173192977905,0.09894511103630066,-0.34919750690460205
-1.5065151453018188,-0.4890969693660736,1.0117710828781128,-0.146671861410141,-0.06129562854766846,-0.3313055634498596
-1.652348518371582,-0.5837202668190002,1.1347532272338867,-0.2564229965209961,-0.08951160311698914,-0.41098421812057495
-1.0812287330627441,-1.0112593173980713,0.797246515750885,-0.31773531436920166,-0.072525754570961,-0.487595796585083
-1.1364786624908447,-0.37506163120269775,0.3726640045642853,-0.19819572567939758,-0.15712657570838928,-0.4646279811859131
-0.8502153754234314,-0.4440044164657593,0.6551135778427124,-0.09216606616973877,-0.10454986989498138,-0.5026972889900208
-0.3099789619445801,-0.09093790501356125,0.8052096366882324,-0.24573564529418945,-0.16864943504333496,-0.4933568239212036
-0.573305606842041,0.3875860273838043,0.17857038974761963,-0.2861676514148712,-0.20003250241279602,-0.3296223282814026
-0.4857713580131531,0.05044303089380264,-0.058993950486183167,-0.07875385880470276,-0.14028629660606384,-0.3328881859779358
-0.13149090111255646,0.3011661767959595,-0.04320072382688522,-0.10595721006393433,-0.08276472240686417,-0.26856088638305664
-0.13442537188529968,0.6459430456161499,0.011658009141683578,-0.10768625140190125,-0.06863469630479813,-0.14703023433685303
-0.04506082087755203,0.3601842522621155,0.037562329322099686,-0.08618471026420593,-0.07407334446907043,-0.06701213121414185
-0.09746444225311279,0.11337245255708694,-0.004925823770463467,-0.11271026730537415,-0.053528375923633575,-0.09377062320709229
0.001915528206154704,-0.38723593950271606,0.17338161170482635,-0.06361299753189087,-0.049199700355529785,-0.16196948289871216
0.15155601501464844,-0.581463098526001,0.27890831232070923,-0.13174989819526672,-0.0884801521897316,-0.1688351035118103
-0.07549551129341125,-0.45580971240997314,-0.04010074585676193,-0.12169754505157471,-0.14253273606300354,-0.15546411275863647
-0.23815487325191498,0.3383190631866455,-0.48155277967453003,-0.09614086151123047,-0.0692582055926323,-0.16534090042114258
-0.12036170065402985,0.6618552803993225,-0.5324227213859558,0.016761034727096558,0.011624276638031006,-0.04763990640640259
0.002249311888590455,0.36697816848754883,-0.2878120541572571,0.05291563272476196,0.02955716848373413,0.019513070583343506
-0.052027225494384766,0.38604405522346497,-0.2491437792778015,0.07293036580085754,0.008614018559455872,0.06557154655456543
-0.2169279307126999,0.13400651514530182,-0.2451103776693344,0.08110776543617249,0.017021439969539642,0.04683607816696167
-0.15115559101104736,0.043532680720090866,-0.08317655324935913,0.024324238300323486,0.024475499987602234,-0.03987759351730347
-0.0018648291006684303,0.11766663938760757,-0.02414717711508274,0.03196778893470764,-0.00798095017671585,-0.060247063636779785
0.1360933631658554,0.21404583752155304,-0.015262145549058914,0.057131946086883545,-0.028173096477985382,-0.049998939037323
0.22666634619235992,0.24617040157318115,0.00408401433378458,0.04433760046958923,-0.020399034023284912,-0.030803203582763672
0.21256744861602783,0.23877884447574615,0.0646418035030365,0.005027979612350464,-0.02043146640062332,-0.009450674057006836
0.10300552845001221,0.31098711490631104,-0.05801798775792122,-0.038174718618392944,-0.01273791491985321,0.011994421482086182
-0.007055150344967842,0.43380534648895264,-0.1696280837059021,-0.010976463556289673,-0.019728533923625946,0.000526726245880127
-0.2282680720090866,0.7131928205490112,-0.2209787219762802,-0.001187831163406372,-0.007177948951721191,-0.0028096437454223633
-0.5182319283485413,1.2228623628616333,-0.2502952516078949,-0.022292733192443848,-0.004411511123180389,0.030116558074951172
-1.0600461959838867,1.498138427734375,-0.2873736619949341,-0.13372835516929626,-0.027426324784755707,0.06184166669845581
-2.0533158779144287,1.2648659944534302,-0.8705765604972839,-0.1438702642917633,-0.20964019000530243,-0.10523474216461182
-1.8786307573318481,0.7677106857299805,-1.0092641115188599,0.014493018388748169,-0.14785659313201904,-0.6038181781768799
-0.25515231490135193,0.2544763684272766,-0.29269078373908997,0.0361238569021225,-0.2006346583366394,-0.9926139116287231
0.8314557075500488,0.5116831064224243,-0.3827193081378937,-0.08451192080974579,-0.22641658782958984,-0.9582722187042236
0.912284791469574,0.533293604850769,-0.4092797040939331,-0.023295074701309204,-0.20796352624893188,-0.8086456060409546
1.515665888786316,0.4580567181110382,-0.20769719779491425,0.01603764295578003,-0.08410923928022385,-0.7718347311019897
2.1398658752441406,0.6085407733917236,-0.018378600478172302,-0.07326982915401459,-0.0595940500497818,-0.733070433139801
2.549226999282837,0.6332669854164124,-0.04854200780391693,-0.15557900071144104,0.05412961542606354,-0.5443164706230164
2.6909022331237793,0.5850743055343628,-0.21090131998062134,-0.16837088763713837,0.11741550266742706,-0.38758373260498047
2.650817394256592,0.7357125878334045,-0.34763303399086,-0.15626117587089539,0.2166951596736908,-0.21622884273529053
2.57694149017334,0.3371882438659668,-0.3658755123615265,-0.08815131336450577,0.25010934472084045,-0.06968152523040771
2.263599157333374,0.05715157464146614,-0.47116145491600037,-0.09439694881439209,0.27328428626060486,-0.007580280303955078
2.035978317260742,0.09704648703336716,-0.5828195810317993,-0.021586135029792786,0.29486697912216187,-0.0060166120529174805
1.7103217840194702,0.21697284281253815,-0.6345612406730652,0.012673340737819672,0.32582318782806396,0.05267655849456787
1.7896647453308105,0.2473696619272232,-0.3359009921550751,0.0433432012796402,0.36695605516433716,-0.0039272308349609375
1.7579312324523926,0.40158185362815857,-0.3589340150356293,0.03244922682642937,0.3705599308013916,0.09858536720275879
1.5547230243682861,0.20519191026687622,-0.34536898136138916,-0.03212268650531769,0.402898371219635,0.16982334852218628
1.4664819240570068,0.15216922760009766,-0.20923031866550446,-0.04692204296588898,0.37080997228622437,0.2246667742729187
1.3094929456710815,0.4049762487411499,-0.2444850653409958,-0.026650704443454742,0.33220285177230835,0.2701423168182373
1.0163681507110596,0.32668164372444153,-0.4632510244846344,-0.095158152282238,0.35046082735061646,0.34513986110687256
0.8961352705955505,0.14060257375240326,-0.4464949667453766,0.0029800962656736374,0.3325738310813904,0.29717421531677246
0.8937677145004272,0.14924927055835724,-0.3569517433643341,0.025920897722244263,0.336830735206604,0.2760477662086487
0.8790478706359863,0.13645771145820618,-0.2546786963939667,0.03775037080049515,0.31286174058914185,0.31681787967681885
0.629793107509613,0.06461077183485031,-0.1522536724805832,0.014785118401050568,0.29239505529403687,0.3543379306793213
0.37891897559165955,0.1636141985654831,-0.10901695489883423,0.010266609489917755,0.2998567223548889,0.2987818717956543
0.4891243577003479,-0.09985887259244919,-0.06268879771232605,0.0596073642373085,0.2621506452560425,0.22666412591934204
0.6917417645454407,-0.4795072674751282,0.06941583007574081,0.014927506446838379,0.2062343955039978,0.26703035831451416
0.47258085012435913,-0.15995582938194275,-0.0033248779363930225,-0.034161221235990524,0.15000659227371216,0.3044220805168152
-0.015566631220281124,0.34318989515304565,0.011129997670650482,0.06805356591939926,0.1303466558456421,0.3059830665588379
-0.21833810210227966,0.037440165877342224,0.25883805751800537,0.07548973709344864,0.07506263256072998,0.2891784906387329
-0.32616111636161804,-0.4256841242313385,0.23404252529144287,-0.014779500663280487,0.03766369819641113,0.20646649599075317
-0.4660290777683258,-0.25949856638908386,0.1432223916053772,-0.053723957389593124,-0.03601306676864624,0.06416988372802734
-0.29071560502052307,0.1279943734407425,0.01895192079246044,-0.04641791060566902,0.017159700393676758,-0.027433931827545166
0.045062750577926636,-0.3750837445259094,0.0542852059006691,0.032916102558374405,-0.004231274127960205,0.05216318368911743
-0.11762958019971848,-0.45506906509399414,0.10590173304080963,0.02251334674656391,-0.012471914291381836,0.04432791471481323
-0.03968512639403343,-0.22172358632087708,0.09073930233716965,-0.014472857117652893,-0.02567768096923828,-0.09066283702850342
0.18673893809318542,-0.02787296287715435,-0.02207617089152336,-0.11025531589984894,-0.05756920576095581,-0.12437295913696289
0.39474010467529297,-0.017090706154704094,-0.10983205586671829,-0.034360259771347046,-0.02052205801010132,-0.062101900577545166
0.0628432184457779,-0.5921071171760559,-0.12475769966840744,-0.003048419952392578,-0.07337981462478638,0.05396318435668945
-0.22753210365772247,-0.17239175736904144,-0.14277414977550507,-0.03189060091972351,-0.0018603205680847168,-0.0650671124458313
-0.08268362283706665,0.20337139070034027,-0.09061677753925323,0.01433983352035284,0.0371626615524292,-0.07174950838088989
0.07571273297071457,0.07055632770061493,-0.06723874062299728,0.0310960840433836,0.04357635974884033,0.03701144456863403
-0.03715736046433449,-0.09853670746088028,-0.2644611895084381,0.005612147971987724,0.11598902940750122,0.17440742254257202
-0.18052129447460175,-0.18941520154476166,-0.12250130623579025,0.08637130260467529,0.2305944561958313,0.17696917057037354
-0.18824034929275513,-0.08882682770490646,0.13512644171714783,0.05995076894760132,0.2961273193359375,0.1797310709953308
-0.20221805572509766,0.19905126094818115,0.19206345081329346,0.019537610933184624,0.34211403131484985,0.2520945072174072
-0.25948482751846313,0.03087102808058262,0.3613698184490204,-0.011994272470474243,0.38449835777282715,0.3223652243614197
-0.5314752459526062,0.10133643448352814,0.5718772411346436,-0.009625166654586792,0.320306658744812,0.32040905952453613
-0.8737838268280029,0.5055854916572571,0.42980992794036865,-0.01151308510452509,0.30446064472198486,0.3431326746940613
-0.9687661528587341,0.3001440763473511,0.4634191393852234,0.0488499253988266,0.3063957095146179,0.3711544871330261
-1.0752007961273193,-0.027056178078055382,0.4800914227962494,0.06358539313077927,0.3375113010406494,0.38181811571121216
-1.4412827491760254,-0.04204016178846359,0.5221682786941528,0.08370134979486465,0.3761765956878662,0.31537312269210815
-1.511574625968933,0.2024027407169342,0.8890806436538696,0.14627429842948914,0.27561837434768677,0.18415433168411255
-1.493833303451538,0.1463252305984497,0.7550092339515686,-0.04543498158454895,0.31331175565719604,0.1961129903793335
-1.7236459255218506,-0.21625439822673798,0.4802515208721161,0.07087526470422745,0.24436867237091064,0.18537360429763794
-1.6032048463821411,-1.160909652709961,0.554972231388092,0.0848291888833046,0.28889304399490356,0.02599579095840454
-1.5656119585037231,-0.4814164638519287,0.471440851688385,0.021872535347938538,0.3020777702331543,-0.08845013380050659
-2.1488401889801025,0.2532239556312561,0.6458887457847595,0.13799703121185303,0.10913711786270142,0.033033132553100586
-2.463418960571289,-1.221246361732483,0.695512592792511,-0.06152927875518799,0.1909908652305603,-0.08347010612487793
-2.154869318008423,-0.7546058893203735,0.5423030257225037,-0.12083426117897034,0.11913016438484192,-0.32222557067871094
-2.4642510414123535,-0.052805688232183456,0.47231054306030273,-0.09606203436851501,0.033920079469680786,-0.2948627471923828
-1.8272266387939453,-0.9719790816307068,0.7006385326385498,-0.10784891247749329,0.06792628765106201,-0.44681447744369507
-1.2258259057998657,-0.6311502456665039,0.5247929692268372,-0.06963121891021729,-0.01139882206916809,-0.43039238452911377
-1.288605809211731,-0.6852343082427979,0.7603616714477539,-0.010986387729644775,-0.11189697682857513,-0.27692610025405884
-1.3503868579864502,-0.906117856502533,0.6736165285110474,-0.2107536792755127,-0.038121581077575684,-0.3316560387611389
-1.8091963529586792,-0.30303049087524414,0.4356236457824707,-0.18853795528411865,-0.027896389365196228,-0.3365131616592407
-1.8823949098587036,-0.1341092437505722,0.33829838037490845,-0.06077176332473755,-0.06266738474369049,-0.42451012134552
-1.7252119779586792,-0.7208981513977051,0.5784153342247009,0.0010873377323150635,-0.05955364182591438,-0.32002151012420654
-1.541547417640686,-1.0365315675735474,0.7509617805480957,-0.12859630584716797,-0.08638034015893936,-0.25608986616134644
-1.150346279144287,-0.6063117384910583,0.43180835247039795,-0.17886334657669067,-0.17069873213768005,-0.3831678628921509
-0.8087021708488464,0.10322187840938568,0.03660731017589569,-0.13319110870361328,-0.052482083439826965,-0.31773054599761963
-0.5504823327064514,-0.20992304384708405,0.4200817048549652,-0.10845670104026794,0.01422300934791565,-0.20918631553649902
-0.8227131366729736,-1.3798506259918213,0.5369488596916199,-0.1622903048992157,-0.09803274273872375,-0.22493159770965576
-0.8145164251327515,-1.5433281660079956,0.3214271068572998,-0.21545740962028503,-0.1990940421819687,-0.6007853150367737
0.33073440194129944,-0.3097809851169586,-0.01704820618033409,-0.22191724181175232,-0.07222916185855865,-0.6150996088981628
1.0357216596603394,0.29041725397109985,0.04005901515483856,-0.11335763335227966,-0.0005968660116195679,-0.23599398136138916
0.8156697154045105,-0.06728091835975647,-0.19060911238193512,-0.10496455430984497,0.0019246339797973633,-0.037022173404693604
0.6941961646080017,-0.315608948469162,-0.37993618845939636,-0.05744737386703491,-0.009786128997802734,-0.1652699112892151
0.649240255355835,1.0804944038391113,-0.4230597913265228,-0.17433640360832214,-0.009925276041030884,-0.300275981426239
0.03918367624282837,1.3176943063735962,-0.49515625834465027,-0.22039178013801575,-0.22413386404514313,-0.3508571982383728
0.4212245047092438,0.2784291207790375,-0.7087266445159912,-0.3567269444465637,-0.29650062322616577,-0.8785066604614258
1.2594046592712402,1.6464048624038696,-1.4672298431396484,-0.44406434893608093,-0.2093292474746704,-1.0748200416564941
1.7509411573410034,1.8803811073303223,-1.12102472782135,-0.18244323134422302,-0.13697057962417603,-0.8768865466117859
2.3513829708099365,1.3384883403778076,-0.7975834012031555,-0.2412792444229126,-0.12031291425228119,-0.7801522612571716
2.5592117309570312,1.2977705001831055,-1.2403769493103027,-0.23153156042099,-0.11457383632659912,-0.6352558732032776
3.0460643768310547,1.2290805578231812,-1.0987420082092285,-0.24082359671592712,0.1203967034816742,-0.6286934614181519
3.180943727493286,1.5979868173599243,-1.1090375185012817,-0.2716746926307678,0.17431411147117615,-0.31093913316726685
2.6316776275634766,0.5725252628326416,-1.3484342098236084,-0.11525498330593109,0.18216818571090698,-0.08859622478485107
2.0870232582092285,-0.23479154706001282,-1.6593612432479858,-0.09857205301523209,0.19950497150421143,-0.09828436374664307
1.1854971647262573,1.1651567220687866,-1.605638861656189,-0.1225699931383133,0.3964168429374695,-0.09265053272247314
1.703466534614563,0.9892215132713318,-1.024282693862915,-0.19194145500659943,0.44666945934295654,-0.08691674470901489
2.305189371109009,0.3995697498321533,-1.2768020629882812,-0.07595391571521759,0.5147030353546143,0.13605093955993652
2.2603883743286133,-0.5438909530639648,-0.9697224497795105,0.06018605828285217,0.5862912535667419,0.19341003894805908
1.8174031972885132,0.49998530745506287,-0.4594510793685913,-0.02763621136546135,0.6374111771583557,0.12411266565322876
1.959396243095398,1.4010305404663086,-0.196705162525177,-0.044845156371593475,0.5723789930343628,0.21420109272003174
2.2284581661224365,0.5172192454338074,-0.30209189653396606,-0.08909648656845093,0.45265525579452515,0.47470515966415405
1.382912039756775,0.16824392974376678,-0.6269800066947937,-0.10784922540187836,0.5102584362030029,0.5761701464653015
0.560806930065155,0.24472494423389435,-0.4972044825553894,0.03912709653377533,0.46378493309020996,0.38768577575683594
0.24953539669513702,0.718370258808136,-0.22007301449775696,0.05277165770530701,0.3975943922996521,0.2841264009475708
0.5182104706764221,0.40020430088043213,0.10792423039674759,0.07947225868701935,0.32855963706970215,0.2554957866668701
0.6943724751472473,-0.011250811628997326,0.4192192256450653,0.09363621473312378,0.19573235511779785,0.2683255076408386
0.30922049283981323,0.18590599298477173,0.24779818952083588,-0.11177171766757965,0.18980509042739868,0.2786141037940979
0.4068582057952881,0.14686466753482819,0.05695808306336403,-0.059795230627059937,0.09971320629119873,0.20115286111831665
0.43939101696014404,-0.12283208966255188,-0.18279488384723663,-0.0646151602268219,0.11309695243835449,0.26650524139404297
0.25084036588668823,-0.24734780192375183,-0.22039049863815308,0.03832237422466278,0.13615632057189941,0.20377683639526367
0.21508440375328064,-0.1533059924840927,-0.06543062627315521,0.01536722481250763,0.22423696517944336,0.1733323335647583
0.18114052712917328,0.2707866132259369,0.20859120786190033,0.07428725063800812,0.17030149698257446,0.2176525890827179
0.1140289232134819,-0.006702527869492769,0.4393913149833679,0.023125380277633667,0.15952247381210327,0.3063771426677704
-0.14210966229438782,-0.7433987259864807,0.524560272693634,0.018723666667938232,0.09707075357437134,0.2785605192184448
-0.4324091672897339,-0.647205114364624,0.38173574209213257,-0.013494841754436493,0.08085888624191284,0.18644607067108154
-0.48565906286239624,-0.5497691631317139,0.39142704010009766,-0.04557487368583679,0.16539621353149414,0.14797872304916382
-0.4440057575702667,-0.15558046102523804,0.3958422839641571,0.007211551070213318,0.14690399169921875,0.1494264006614685
-0.4113410413265228,-0.12244263291358948,0.27301740646362305,-0.020268909633159637,0.2718825936317444,0.23837852478027344
-0.4273708462715149,-0.1651778519153595,0.22171533107757568,-0.028486724942922592,0.4187019467353821,0.28981953859329224
-0.5098417401313782,0.24203135073184967,0.3323783576488495,0.07987768948078156,0.4339601993560791,0.336331307888031
-0.6079636812210083,0.19392746686935425,0.5104907751083374,0.08595174551010132,0.49346083402633667,0.4219174385070801
-0.5534368753433228,-0.48067009449005127,0.7751563191413879,0.05711124837398529,0.5950180888175964,0.4862634539604187
-1.0806649923324585,-0.5768835544586182,1.149685263633728,0.16338127851486206,0.516390860080719,0.5241925120353699
-1.7265679836273193,-0.5009985566139221,1.5381441116333008,0.10790485143661499,0.5736106038093567,0.4515289068222046
-2.000490427017212,-0.6495828032493591,1.893796682357788,-0.0043764784932136536,0.6206226944923401,0.2945976257324219
-1.9615654945373535,-0.08455884456634521,2.133131980895996,0.07063303887844086,0.2384842038154602,0.16596031188964844
-2.293644428253174,-0.43675294518470764,1.2215410470962524,-0.3133229911327362,0.2997523546218872,0.15144968032836914
-2.6438136100769043,-0.2944604456424713,0.6816215515136719,-0.053303807973861694,0.32071369886398315,-0.06991171836853027
-2.8045566082000732,-0.03893979638814926,0.9662567377090454,-0.053069084882736206,0.1945279836654663,-0.05583888292312622
-2.612762689590454,-0.5193571448326111,0.29480308294296265,-0.2136153280735016,0.2690637409687042,-0.0580291748046875
-2.6200568675994873,-0.06065398082137108,-0.00634806277230382,0.036781489849090576,0.09899818897247314,-0.15614992380142212
-2.9634041786193848,-0.10727132111787796,0.11418001353740692,-0.036668360233306885,0.319039911031723,-0.1025010347366333
-3.3432016372680664,-1.3433582782745361,0.5861383676528931,-0.1533520519733429,0.269928514957428,-0.26149439811706543
-3.6863434314727783,-1.2313493490219116,0.3189844787120819,-0.2462666928768158,0.11407598108053207,-0.8502510190010071
-2.1493711471557617,-0.6453145146369934,0.6756710410118103,-0.17127323150634766,0.10609302669763565,-1.2170672416687012
-1.5338108539581299,-0.3384350836277008,0.9821512699127197,-0.20702549815177917,-0.1264546811580658,-0.796201229095459
-1.6384388208389282,-0.8994965553283691,0.3370342254638672,-0.3142681419849396,-0.233765110373497,-0.6512924432754517
-0.9056951999664307,-1.277510404586792,-0.03998695686459541,-0.3103889226913452,-0.18642759323120117,-0.8418353796005249
-1.0449881553649902,-2.125566005706787,0.0715034157037735,-0.15120559930801392,-0.2277124673128128,-1.284576177597046
1.0190013647079468,-0.6935979127883911,0.6132869124412537,-0.26928946375846863,-0.2540518641471863,-1.5508960485458374
1.4869651794433594,1.32090163230896,-0.03741869702935219,-0.35189148783683777,-0.210127055644989,-0.5173962116241455
0.5665637850761414,0.967239260673523,-0.3191649615764618,-0.30784836411476135,-0.11685388535261154,-0.12620675563812256
0.5265605449676514,0.06694785505533218,0.2463553249835968,-0.2347467839717865,-0.04999344050884247,-0.6503468155860901
1.3964412212371826,1.0514558553695679,0.34774357080459595,-0.3272426426410675,-0.18056653439998627,-0.9726094007492065
1.7620353698730469,1.351790428161621,-0.29454538226127625,-0.4648018479347229,-0.23649081587791443,-0.7330625653266907
2.066276788711548,0.5840572714805603,-0.9522581100463867,-0.5022010803222656,-0.1611310839653015,-0.686911940574646
2.340644598007202,0.7010210752487183,-1.3971279859542847,-0.31655725836753845,-0.003300495445728302,-0.6631121635437012
2.4418060779571533,1.3196154832839966,-1.0598945617675781,-0.1807018220424652,0.16348326206207275,-0.5710756778717041
2.5921273231506348,1.7858214378356934,-0.8394020795822144,-0.16497766971588135,0.16820108890533447,-0.3372906446456909
2.5930991172790527,1.4382250308990479,-0.9158647656440735,-0.09297676384449005,0.19045677781105042,-0.11751747131347656
2.3926661014556885,0.8542182445526123,-0.7436358332633972,-0.023072510957717896,0.2633861303329468,-0.04235541820526123
2.2882394790649414,0.38130903244018555,-0.5278245210647583,-0.036682575941085815,0.32564160227775574,-0.03468775749206543
2.322009801864624,0.517217755317688,-0.6210837364196777,-0.0550369918346405,0.3643319010734558,-0.10175979137420654
2.23364520072937,1.035584807395935,-0.9394190311431885,-0.11592184007167816,0.380271315574646,0.031873464584350586
1.759103775024414,1.0363227128982544,-1.087001085281372,-0.03111277148127556,0.46886348724365234,0.19651168584823608
1.7173939943313599,0.6102246642112732,-0.6067012548446655,0.04994717985391617,0.48466044664382935,0.16969025135040283
2.0275979042053223,0.36855077743530273,-0.41264840960502625,0.02091766893863678,0.4639442563056946,0.23719364404678345
2.0445303916931152,0.1035417914390564,-0.34841620922088623,0.06483150273561478,0.45865124464035034,0.3720806837081909
1.2223262786865234,0.47479185461997986,-0.36886778473854065,0.02518429234623909,0.43357306718826294,0.49363237619400024
0.6507514715194702,0.4070097804069519,-0.07693652808666229,0.05992768332362175,0.3952147960662842,0.41993004083633423
0.7320727705955505,-0.14912566542625427,0.19292239844799042,0.0896836668252945,0.3033132553100586,0.342207133769989
0.6130613088607788,-0.3386157155036926,0.11965732276439667,-0.048051655292510986,0.36326587200164795,0.28497809171676636
0.40186411142349243,0.17622138559818268,0.0036176214925944805,0.01609039679169655,0.25402891635894775,0.24809730052947998
-0.01321189571171999,0.3323020935058594,-0.14829964935779572,-0.024204261600971222,0.2633135914802551,0.2671331763267517
0.08565286546945572,0.03970217704772949,-0.005910942796617746,0.11225464195013046,0.1942843794822693,0.16403090953826904
0.5105838775634766,-0.39678066968917847,-0.005477888975292444,0.017685577273368835,0.1961660385131836,0.19612181186676025
0.36892053484916687,-0.3823867440223694,-0.09884137660264969,0.014201022684574127,0.16754037141799927,0.22538244724273682
0.11962879449129105,-0.347806453704834,0.24314558506011963,0.11494886130094528,0.08849400281906128,0.1743960976600647
0.0758829414844513,-0.18516905605793,0.40120193362236023,-0.034314244985580444,0.12551486492156982,0.1029667854309082
-0.10528847575187683,0.3642992675304413,0.27519023418426514,-0.047549404203891754,0.0024143457412719727,0.12896943092346191
-0.18562838435173035,0.09705613553524017,0.22055520117282867,-0.09133367985486984,-0.023504316806793213,0.1303885281085968
-0.29671552777290344,0.052712470293045044,0.018575113266706467,-0.10526812821626663,0.006754040718078613,0.07577461004257202
-0.5188950896263123,0.28259706497192383,-0.1949739009141922,0.044758379459381104,-0.021637558937072754,0.07336980104446411
-0.4343392252922058,0.0817096084356308,0.05605103075504303,0.07167871296405792,0.016862988471984863,-0.019002795219421387
-0.14188390970230103,0.07497180253267288,0.09122797101736069,0.02430829219520092,0.014452815055847168,-0.03834247589111328
-0.09148779511451721,-0.1311982125043869,0.08370979130268097,0.07056637108325958,-0.05297994613647461,-0.014496564865112305
0.007415366359055042,-0.28156909346580505,0.14341428875923157,-0.02278139255940914,0.005582332611083984,-0.06360423564910889
-0.026176605373620987,0.08322300016880035,-0.07251587510108948,-0.06317763775587082,0.001995682716369629,-0.03406798839569092
-0.08458682894706726,0.025600001215934753,-0.12503966689109802,0.03807356208562851,-0.010086238384246826,0.009292781352996826
0.045936234295368195,-0.04391886293888092,-0.06620671600103378,0.033094778656959534,0.08597993850708008,0.01689445972442627
0.01756996475160122,-0.06016283109784126,0.084490567445755,0.09439709037542343,0.05726158618927002,0.08684325218200684
-0.07971060276031494,-0.035944003611803055,0.18780145049095154,0.006870746612548828,0.08204847574234009,0.09771072864532471
-0.12314388900995255,0.1393425017595291,0.07131388038396835,-0.016540460288524628,0.10050433874130249,0.12999391555786133
-0.07539864629507065,-0.008711297996342182,0.051461052149534225,0.01377946138381958,0.12655895948410034,0.19212520122528076
-0.0633668377995491,-0.02073143608868122,0.05332014709711075,0.007769681513309479,0.17227303981781006,0.23803794384002686
-0.13247738778591156,0.017598185688257217,0.03959622606635094,0.036162443459033966,0.21046394109725952,0.3142440915107727
-0.30163124203681946,-0.05828557908535004,0.05768568068742752,0.032252393662929535,0.2797880172729492,0.371191143989563
-0.4467705190181732,0.08883645385503769,0.03188157454133034,-0.026094600558280945,0.35101908445358276,0.3916966915130615
-0.48206302523612976,0.22312107682228088,-0.049104243516922,0.026439949870109558,0.3827818036079407,0.43210989236831665
-0.676254391670227,-0.21775415539741516,-0.14526496827602386,0.05373966693878174,0.46514588594436646,0.49825960397720337
-1.1053537130355835,-0.7811334133148193,0.15686674416065216,0.04133651405572891,0.560646116733551,0.4700056314468384
-1.3087382316589355,-0.7450764179229736,0.7569878101348877,0.06814740598201752,0.4224008321762085,0.3381982445716858
-1.3345576524734497,-0.5124121308326721,0.8776372075080872,-0.11288008838891983,0.4701024293899536,0.23405873775482178
-1.4460004568099976,-0.006547243800014257,0.4571613669395447,-0.046604447066783905,0.28033578395843506,0.0920594334602356
-1.4188461303710938,0.24353978037834167,0.12856388092041016,0.007968559861183167,0.26700687408447266,0.07871556282043457
-1.5621163845062256,0.14514552056789398,0.10098984837532043,-0.08513650298118591,0.4077802300453186,0.2004668116569519
-2.447611093521118,0.003932964988052845,0.15355856716632843,0.10334988683462143,0.14661026000976562,0.15866619348526
-2.7314209938049316,-0.9386467337608337,0.25222718715667725,0.06432686746120453,0.20028966665267944,-0.1827683448791504
-2.3602514266967773,-1.026221752166748,0.30786365270614624,-0.05356137454509735,0.2421407699584961,-0.4327014684677124
-2.0058929920196533,-0.8445104360580444,0.870480477809906,0.09346860647201538,-0.012541770935058594,-0.4552112817764282
-1.3176634311676025,-1.5787696838378906,0.995245099067688,-0.16120296716690063,-0.047809749841690063,-0.5262819528579712
-1.7366905212402344,-1.3469547033309937,0.5781731009483337,-0.2641138732433319,-0.21392115950584412,-0.421950101852417
-1.9954966306686401,-1.4749118089675903,0.6378942728042603,-0.16645249724388123,-0.16376088559627533,-0.6913005709648132
-0.6638088822364807,-1.1709480285644531,0.927775502204895,-0.22498580813407898,-0.09287671744823456,-0.7969460487365723
-0.23349113762378693,-0.8428821563720703,0.5694273710250854,-0.27727627754211426,-0.19449226558208466,-0.458591103553772
-0.42676758766174316,-1.3902841806411743,0.4205663800239563,-0.16990238428115845,-0.18335270881652832,-0.37159550189971924
-0.427238404750824,-0.573930025100708,0.823492169380188,-0.12616166472434998,-0.1451689898967743,-0.4898725748062134
-0.636613130569458,0.8389211893081665,0.6033986210823059,-0.2515123784542084,-0.23083727061748505,-0.3305169343948364
-0.6717368364334106,0.008586148731410503,0.43993040919303894,-0.17446750402450562,-0.3377895653247833,-0.27819329500198364
0.13559648394584656,-0.8512041568756104,0.22963017225265503,-0.2606549859046936,-0.3462742567062378,-0.5885407328605652
0.4277878999710083,-0.29831287264823914,-0.290947824716568,-0.3803062438964844,-0.30689525604248047,-0.6837513446807861
0.1480441391468048,0.4969126284122467,-0.45434731245040894,-0.31228065490722656,-0.4365251362323761,-0.8631020784378052
0.5152405500411987,1.0616803169250488,-0.5392400622367859,-0.23236453533172607,-0.4010502099990845,-1.0141063928604126
1.6846020221710205,0.8489041924476624,-0.5917539000511169,-0.18552926182746887,-0.2962561547756195,-0.8901336193084717
2.257089614868164,0.4772370457649231,-0.6078444719314575,-0.2269321084022522,-0.2781202793121338,-0.8026028275489807
2.3096530437469482,0.6621831655502319,-0.8910363912582397,-0.29894328117370605,-0.190376877784729,-0.6989002823829651
2.4096336364746094,0.7133148908615112,-0.9783862829208374,-0.21041294932365417,-0.03073519468307495,-0.5615121126174927
2.5972962379455566,0.59208744764328,-0.917938232421875,-0.15505456924438477,0.04079252481460571,-0.46194028854370117
2.595731258392334,0.6779630780220032,-1.2035151720046997,-0.16432976722717285,0.19781911373138428,-0.26311707496643066
2.4783058166503906,0.36870789527893066,-1.20672607421875,-0.11074957251548767,0.278250515460968,-0.10158360004425049
2.370154619216919,0.34999099373817444,-1.275972843170166,-0.1360626071691513,0.3318995237350464,-0.022764980792999268
2.1716907024383545,0.3688119649887085,-1.470794916152954,-0.07606491446495056,0.3770856261253357,0.02937239408493042
1.9030381441116333,0.5812209844589233,-1.3310606479644775,-0.05641864985227585,0.4361422061920166,0.10242879390716553
1.7147923707962036,0.7358033657073975,-1.3698759078979492,-0.05865921825170517,0.4749784469604492,0.19891834259033203
1.1632388830184937,0.9292081594467163,-1.1673107147216797,-0.021355226635932922,0.4435916543006897,0.31681525707244873
0.7421490550041199,0.7921221256256104,-0.7748233079910278,0.03303655982017517,0.454928994178772,0.27156317234039307
0.9075727462768555,0.68356853723526,-0.6026574969291687,0.06922715902328491,0.4060726761817932,0.16612863540649414
0.946266233921051,1.0306074619293213,-0.42055872082710266,-0.03783131390810013,0.37977278232574463,0.1891322135925293
0.7516326904296875,0.868245542049408,-0.3940603733062744,-0.09851936995983124,0.35431355237960815,0.27137619256973267
0.7646547555923462,0.2815896272659302,-0.5793197751045227,-0.04576028883457184,0.24274766445159912,0.2864111065864563
0.548506498336792,-0.15876351296901703,-0.8554201722145081,-0.021266326308250427,0.2917603850364685,0.29138046503067017
-0.01721861958503723,0.3367573022842407,-0.7952293753623962,0.052948057651519775,0.26527315378189087,0.2691892087459564
-0.4029410183429718,0.3617124557495117,-0.4792967438697815,0.03853638470172882,0.2845603823661804,0.21612733602523804
-0.20747846364974976,0.31278401613235474,-0.17977678775787354,0.061886727809906006,0.2068975567817688,0.11187678575515747
0.07815419882535934,0.0528201088309288,-0.18692706525325775,0.025387659668922424,0.16417396068572998,0.12675464153289795
0.21368826925754547,-0.17886579036712646,-0.06606688350439072,0.02148929238319397,0.18550705909729004,0.08139809966087341
0.4780806601047516,-0.1733492910861969,-0.0401902049779892,-0.013423040509223938,0.18303251266479492,0.07099476456642151
0.6547651886940002,-0.4923394024372101,-0.0528583787381649,0.006481260061264038,0.15721464157104492,0.09389615058898926
0.8137533664703369,-0.6807125806808472,-0.07867031544446945,-0.004704400897026062,0.08835434913635254,0.10419407486915588
0.37883827090263367,-0.27859392762184143,-0.3614450693130493,-0.015899091958999634,0.08994555473327637,0.18388605117797852
-0.08984369784593582,-0.04516279324889183,-0.07750802487134933,0.10461388528347015,0.06878006458282471,0.1604941487312317
-0.13681182265281677,-0.31122666597366333,0.08145441114902496,0.025221869349479675,0.019047200679779053,0.0819748044013977
