rotation_x,rotation_y,rotation_z,acceleration_x,acceleration_y,acceleration_z
-0.14786796271800995,-0.4557313621044159,0.01512535847723484,0.10964947938919067,0.019931793212890625,0.15881824493408203
-0.2787265479564667,-0.5148366093635559,0.06881795078516006,0.08691331744194031,-0.014269530773162842,0.06544500589370728
-0.4316563010215759,-0.20211546123027802,0.0980861485004425,0.02310168743133545,-0.011241912841796875,0.0077326297760009766
-0.5254285335540771,0.13881701231002808,0.13736075162887573,-0.036869704723358154,-0.00046509504318237305,-0.016268372535705566
-0.3105018138885498,0.09917186200618744,0.06633081287145615,-0.020357459783554077,-0.021126627922058105,-0.03882920742034912
-0.0225120410323143,-0.17110690474510193,0.010695545934140682,0.027681484818458557,-0.018747270107269287,-0.0089033842086792
0.030075976625084877,-0.22733758389949799,0.07403996586799622,0.0459686815738678,-0.0033538341522216797,0.030628979206085205
-0.06428836286067963,-0.1459069848060608,0.13659881055355072,0.054564639925956726,-0.0005588531494140625,0.04841041564941406
-0.1770617663860321,0.07806707173585892,0.1859598457813263,0.06922757625579834,-0.000690460205078125,0.02144908905029297
-0.25837719440460205,0.30902233719825745,0.37228667736053467,0.11865897476673126,0.02127242088317871,0.015398681163787842
-0.21595391631126404,0.3753584325313568,0.5694536566734314,0.11811666190624237,0.03138202428817749,0.005839347839355469
-0.2073878049850464,0.3523438274860382,0.6354488134384155,0.08756892383098602,0.027924954891204834,0.03032749891281128
-0.254519522190094,0.4601040482521057,0.6892064809799194,0.0839078277349472,-0.013906002044677734,0.042643845081329346
-0.3823475241661072,0.5315885543823242,0.6081380844116211,0.046175673604011536,0.01501917839050293,0.08876383304595947
-0.5248377919197083,0.773621141910553,0.4249131977558136,-0.061076387763023376,0.02790433168411255,0.10362207889556885
-0.4248330295085907,0.7884271144866943,-0.05015565827488899,-0.22155390679836273,-0.018388569355010986,-0.04608559608459473
-0.6012465953826904,0.47068288922309875,-0.8249176740646362,-0.5285764336585999,-0.23747479915618896,0.2777178883552551
-0.8217176198959351,0.4373895823955536,-1.062925934791565,-0.15356916189193726,0.011584818363189697,0.19433897733688354
-0.8350682258605957,-0.6190239787101746,-0.9660749435424805,0.18162432312965393,0.03525805473327637,0.04137837886810303
-0.6146007776260376,-0.9718571901321411,-0.8803345561027527,0.09683355689048767,-0.11651217937469482,0.10554593801498413
-0.41328397393226624,-1.446228265762329,-0.4500587284564972,0.12251603603363037,-0.20402228832244873,0.019645094871520996
-0.45101311802864075,-1.3448517322540283,0.12670718133449554,0.21895407140254974,-0.15470516681671143,0.15830504894256592
-0.5416477918624878,-0.7660315036773682,0.18901365995407104,0.16362349689006805,-0.019322991371154785,0.24770814180374146
-0.34531959891319275,0.06536753475666046,0.2890481650829315,0.08421117067337036,-0.03332185745239258,0.19654422998428345
0.15308554470539093,0.5730052590370178,0.48395293951034546,0.0712428092956543,-0.0382445752620697,0.155473530292511
0.5408081412315369,0.8281703591346741,0.7191678285598755,0.11677601933479309,-0.010126590728759766,0.23077291250228882
0.7156548500061035,0.984497606754303,1.017676830291748,0.09892264008522034,-0.0032296180725097656,0.33304375410079956
0.7663729786872864,1.1021335124969482,1.2118819952011108,0.032309457659721375,0.07647550106048584,0.42800676822662354
0.7611040472984314,1.0838208198547363,1.2306710481643677,-0.05705074965953827,0.16478842496871948,0.4738224744796753
0.7763776183128357,1.1469035148620605,1.1615129709243774,-0.10286161303520203,0.24474966526031494,0.4314410090446472
0.792656660079956,1.1693459749221802,1.0577778816223145,-0.1084643304347992,0.26433509588241577,0.42549020051956177
0.7232134938240051,1.1597492694854736,1.0118449926376343,-0.11679622530937195,0.31472617387771606,0.4665220379829407
0.5437187552452087,1.179442286491394,0.9443846344947815,-0.16582006216049194,0.35514748096466064,0.47771137952804565
0.32526442408561707,1.167443871498108,0.8174484372138977,-0.21803344786167145,0.359600305557251,0.44180846214294434
0.17710937559604645,1.1378906965255737,0.7113766074180603,-0.1808473765850067,0.34013450145721436,0.3723594546318054
0.12863560020923615,1.0679717063903809,0.6766475439071655,-0.09525588154792786,0.29597002267837524,0.23233157396316528
0.22342397272586823,0.894047737121582,0.7029969096183777,0.006169706583023071,0.27340400218963623,0.07617080211639404
0.38283607363700867,0.5596444010734558,0.6440855264663696,0.0479363352060318,0.22925066947937012,0.009800851345062256
0.4439486563205719,0.46332308650016785,0.45195624232292175,-0.018606945872306824,0.2220367193222046,0.005376458168029785
0.4213520288467407,0.40295419096946716,0.20505690574645996,-0.0646204799413681,0.20577549934387207,-0.027553856372833252
0.6004372239112854,0.27682843804359436,0.07266997545957565,0.016307666897773743,0.1444106101989746,-0.07593512535095215
0.786647617816925,0.07738404721021652,0.1325862556695938,0.09156949818134308,0.06889158487319946,-0.0806313157081604
0.7147231698036194,0.007198840845376253,0.277148962020874,0.012721404433250427,0.01869910955429077,-0.028701186180114746
0.4757691025733948,0.08131053298711777,0.31268370151519775,-0.042688921093940735,-0.017930150032043457,0.002268970012664795
0.35065481066703796,0.16365720331668854,0.1934792846441269,-0.05203181505203247,-0.03668522834777832,-0.04746901988983154
0.3494686782360077,0.18852244317531586,0.13843771815299988,-0.003866136074066162,-0.05325782299041748,-0.11381745338439941
0.29825857281684875,0.18052208423614502,0.29594096541404724,0.06856702268123627,-0.10040146112442017,-0.15218335390090942
0.31756386160850525,0.1506870687007904,0.4463118612766266,0.07270979881286621,-0.087776780128479,-0.20825821161270142
0.5258520841598511,-0.024548601359128952,0.430134654045105,0.01224169135093689,-0.05149322748184204,-0.2526426911354065
0.7249850630760193,0.002580709056928754,0.25204914808273315,-0.025934696197509766,-0.02259540557861328,-0.22576111555099487
0.7099955677986145,0.16915281116962433,0.10796388238668442,0.008604168891906738,-0.049006879329681396,-0.196058452129364
0.48349225521087646,0.08031101524829865,0.17268703877925873,0.15752825140953064,-0.08248782157897949,-0.19762617349624634
0.1657598614692688,-0.21944043040275574,0.32454609870910645,0.23464912176132202,-0.11271655559539795,-0.1904725432395935
0.06408164650201797,-0.3613668978214264,0.4663981795310974,0.21838675439357758,-0.11407667398452759,-0.23320692777633667
0.13338647782802582,-0.48377934098243713,0.5832286477088928,0.1358017921447754,-0.10197210311889648,-0.2315293550491333
0.21926110982894897,-0.6057322025299072,0.4818815290927887,0.11388130486011505,-0.013749778270721436,-0.20994919538497925
0.23010548949241638,-0.45039042830467224,0.45693641901016235,0.06488031148910522,-0.0763925313949585,-0.15056121349334717
0.0672631710767746,-0.19610244035720825,0.4554601013660431,-0.005773440003395081,-0.09120965003967285,-0.07562470436096191
-0.1346084028482437,0.1596575826406479,0.4286651015281677,-0.06424379348754883,-0.1528301239013672,-0.04137587547302246
-0.3504757583141327,0.3736986517906189,0.29944127798080444,-0.10004040598869324,-0.19452744722366333,-0.0934188961982727
-0.47898077964782715,0.3270301818847656,0.09214016795158386,-0.08401218801736832,-0.19096630811691284,-0.19704586267471313
-0.48373717069625854,0.18907472491264343,-0.047236938029527664,-0.036488234996795654,-0.23905229568481445,-0.28871023654937744
-0.6721166968345642,0.0806213840842247,-0.05340385064482689,0.005024075508117676,-0.2846066951751709,-0.289409875869751
-0.7522547841072083,0.030316976830363274,-0.010988838039338589,0.007532984018325806,-0.316209614276886,-0.37147557735443115
-0.511984646320343,0.1812683790922165,0.0005261814221739769,-0.0632999837398529,-0.28600287437438965,-0.40419435501098633
-0.5234470367431641,0.5950239300727844,-0.24430683255195618,-0.10644012689590454,-0.2563965320587158,-0.36845672130584717
-0.8120524883270264,0.5534712076187134,-0.631550133228302,0.026973575353622437,-0.3067944049835205,-0.5168653726577759
-0.9231434464454651,-0.017943857237696648,-0.7049360275268555,0.294615238904953,-0.43163275718688965,-0.7413750886917114
-0.7697357535362244,-0.3572668135166168,-0.5015063285827637,0.42212796211242676,-0.49774569272994995,-0.8420930504798889
-0.3892567753791809,-0.33333712816238403,-0.3247871994972229,0.3921256363391876,-0.4751834273338318,-0.8510545492172241
0.03910607099533081,-0.16564828157424927,-0.18441709876060486,0.31964167952537537,-0.42785996198654175,-0.7310442924499512
0.1907368153333664,-0.1142863929271698,-0.12331942468881607,0.24409863352775574,-0.37987220287323,-0.5169363021850586
0.054662927985191345,-0.23594413697719574,-0.06612260639667511,0.18492864072322845,-0.32663363218307495,-0.322098970413208
-0.14174912869930267,-0.29568004608154297,0.02229987643659115,0.15100210905075073,-0.27073508501052856,-0.22523051500320435
-0.1583927869796753,-0.21870416402816772,0.121817946434021,0.11539565026760101,-0.21588057279586792,-0.22910302877426147
-0.0555737242102623,-0.0011092500062659383,0.11330755800008774,0.08044074475765228,-0.1447879672050476,-0.22374659776687622
0.06798508763313293,0.10487934947013855,0.1060427576303482,0.09404954314231873,-0.10367953777313232,-0.21190887689590454
0.11199873685836792,-0.035721197724342346,0.11349399387836456,0.09281931817531586,-0.08702963590621948,-0.17559319734573364
0.06327270716428757,-0.21019819378852844,0.12208089232444763,0.08101785182952881,-0.08081656694412231,-0.1268705129623413
-0.011849867179989815,-0.2433658093214035,0.15112310647964478,0.07274758815765381,-0.06284916400909424,-0.08601462841033936
-0.033678747713565826,-0.09662841260433197,0.2115999460220337,0.08555515110492706,-0.06026214361190796,-0.08076024055480957
0.13942548632621765,0.1490410566329956,0.2233438640832901,0.09197720885276794,-0.06609106063842773,-0.13040673732757568
0.3799619674682617,0.2497384399175644,0.2561917006969452,0.12401607632637024,-0.08070182800292969,-0.12664705514907837
0.3357695937156677,0.12183069437742233,0.3497876226902008,0.1434723138809204,-0.100322425365448,-0.02884852886199951
-0.012058940716087818,-0.08053519576787949,0.44483157992362976,0.12555494904518127,-0.07500886917114258,0.06953901052474976
-0.4320794641971588,-0.21196071803569794,0.5427004098892212,0.08020046353340149,-0.011528730392456055,0.09797322750091553
-0.690326988697052,-0.20017118752002716,0.5843077301979065,0.03053686022758484,0.05212688446044922,0.08039087057113647
-0.486053466796875,0.15867149829864502,0.4343531131744385,-0.028002358973026276,0.04949826002120972,-0.04682493209838867
-0.0664462223649025,0.512687087059021,0.42347797751426697,0.06145092844963074,0.032703518867492676,-0.11292213201522827
0.16666914522647858,0.5921556353569031,0.6037265062332153,0.13771012425422668,0.012993335723876953,-0.06577008962631226
-0.03642325475811958,0.41267839074134827,0.8306441903114319,0.14656350016593933,0.025127768516540527,0.03246474266052246
-0.4629782438278198,0.03459843248128891,0.8919557332992554,0.07044175267219543,0.10116344690322876,0.07738131284713745
-0.7002911567687988,-0.2733694314956665,0.6977437138557434,-0.03376010060310364,0.15919125080108643,0.04586482048034668
-0.47336527705192566,-0.37448596954345703,0.4467880129814148,-0.09073112159967422,0.18087619543075562,0.001608133316040039
-0.046123187988996506,-0.25199586153030396,0.27295708656311035,-0.08998670428991318,0.20890206098556519,0.06016266345977783
0.31376513838768005,-0.0014779322082176805,0.22894489765167236,-0.07775837182998657,0.2391257882118225,0.18816328048706055
0.40907803177833557,0.2375805824995041,0.30718058347702026,-0.05617353692650795,0.25792354345321655,0.3376907706260681
0.1910093128681183,0.28880059719085693,0.3420883119106293,-0.08915629982948303,0.2875787019729614,0.45474928617477417
-0.11616455018520355,0.13839882612228394,0.265933632850647,-0.12880536913871765,0.3390513062477112,0.4892529249191284
-0.17267592251300812,-0.018485553562641144,0.08979818969964981,-0.15903383493423462,0.362196147441864,0.44706422090530396
0.10131432116031647,0.01960933767259121,-0.15746477246284485,-0.16112837195396423,0.35933220386505127,0.41271382570266724
0.44351109862327576,0.28696057200431824,-0.35937681794166565,-0.11137145757675171,0.3348567485809326,0.4338502883911133
0.5487761497497559,0.5342139005661011,-0.3052474856376648,0.03048330545425415,0.3019688129425049,0.4633448123931885
0.5613351464271545,0.5634342432022095,-0.018851634114980698,0.10478389263153076,0.24776321649551392,0.42425215244293213
0.5587702989578247,0.18498007953166962,0.21998505294322968,0.05201265215873718,0.23283958435058594,0.334436297416687
0.6149852871894836,-0.2956879436969757,0.23697742819786072,-0.05857256054878235,0.2435241937637329,0.2784366011619568
0.7546735405921936,-0.4972371459007263,-0.047221049666404724,-0.20920664072036743,0.2131490707397461,0.22078007459640503
0.8762468099594116,-0.41634297370910645,-0.27145737409591675,-0.229536771774292,0.1351327896118164,0.22217470407485962
0.7534338235855103,0.02467781864106655,-0.17390725016593933,-0.14754849672317505,0.004096627235412598,0.23938828706741333
0.4926188290119171,0.43629851937294006,0.05208134651184082,-0.07859015464782715,-0.09081530570983887,0.17115211486816406
0.17982549965381622,0.4866847097873688,0.1760711967945099,-0.04413124918937683,-0.10573196411132812,0.0590747594833374
0.003792333882302046,0.19662310183048248,0.13785932958126068,-0.05341315269470215,-0.08628380298614502,-0.04864954948425293
-0.03456724435091019,-0.14467330276966095,-0.01550532691180706,-0.05103844404220581,-0.041597962379455566,-0.09148412942886353
0.07463151961565018,-0.32077908515930176,-0.15460734069347382,-0.03648817539215088,-0.017303109169006348,-0.11132776737213135
0.3262362480163574,-0.3059310019016266,-0.18201866745948792,-0.01639312505722046,-0.007527709007263184,-0.09692269563674927
0.5633984208106995,-0.25589996576309204,-0.057378534227609634,0.02702847123146057,-0.0019303560256958008,-0.040440261363983154
0.6472862958908081,-0.2711930274963379,0.09137269854545593,0.002180039882659912,-0.016314029693603516,0.04595106840133667
0.4985945224761963,-0.2792057991027832,0.09153571724891663,-0.06089824438095093,0.0039435625076293945,0.14306455850601196
0.31997236609458923,-0.28413060307502747,0.010545041412115097,-0.08799034357070923,0.02144157886505127,0.1724931001663208
0.18042293190956116,-0.275420606136322,-0.022671716287732124,-0.08187925815582275,0.028038382530212402,0.18479007482528687
0.12087429314851761,-0.1968461126089096,0.0007358626462519169,-0.06665259599685669,0.03994566202163696,0.17010432481765747
0.1216258555650711,-0.1487610936164856,0.038139257580041885,-0.05671319365501404,0.06598412990570068,0.1544364094734192
0.1758434921503067,-0.13726387917995453,0.05910934507846832,-0.04764586687088013,0.09907859563827515,0.1433086395263672
0.25013670325279236,-0.12021981179714203,0.026860639452934265,-0.05233168601989746,0.1314624547958374,0.1622943878173828
0.28821897506713867,-0.1080869808793068,-0.019200021401047707,-0.056083232164382935,0.17031818628311157,0.2153853178024292
0.34770360589027405,-0.031092332676053047,-0.058058470487594604,-0.05440440773963928,0.2127988338470459,0.25624287128448486
0.38155597448349,0.04574897140264511,-0.07230407744646072,-0.05393189191818237,0.2692769765853882,0.3200390338897705
0.40106090903282166,0.09656888246536255,-0.06568673998117447,-0.04807543754577637,0.3234151005744934,0.3528138995170593
0.37826433777809143,0.09345559775829315,-0.04941043257713318,-0.04468953609466553,0.3569115400314331,0.38606226444244385
0.2603740394115448,0.08667638152837753,-0.04543508589267731,-0.02655935287475586,0.3964226245880127,0.4157096743583679
0.19854854047298431,0.045832179486751556,-0.013348611071705818,-0.014451269060373306,0.3984608054161072,0.3718194365501404
0.22367344796657562,0.002475966000929475,0.013515936210751534,-0.008256703615188599,0.42020153999328613,0.3182239532470703
0.2053486853837967,-0.05706941336393356,0.011850664392113686,-0.022532790899276733,0.4548938274383545,0.3105142116546631
0.12269313633441925,-0.12141535431146622,-0.011229400523006916,-0.03922182694077492,0.4469960927963257,0.28724128007888794
0.027967549860477448,-0.2244659811258316,-0.019141873344779015,-0.045762836933135986,0.4023604393005371,0.2549596428871155
-0.05252372473478317,-0.25083425641059875,-0.02809569612145424,-0.05109378695487976,0.33624374866485596,0.20486348867416382
-0.12358426302671432,-0.17725755274295807,0.006324734538793564,-0.009787086397409439,0.2878813147544861,0.1334686279296875
-0.03479732200503349,-0.01929529383778572,0.060461513698101044,0.04725789278745651,0.2386873960494995,-0.012310624122619629
0.12049690634012222,-0.0119555052369833,0.0876258909702301,0.048643436282873154,0.22103232145309448,-0.10822552442550659
0.3277359902858734,-0.12941904366016388,0.0020429505966603756,0.021642833948135376,0.1570301651954651,-0.17161476612091064
0.5412370562553406,-0.28921300172805786,-0.06918906420469284,0.05938491225242615,0.11735701560974121,-0.16945862770080566
0.6268358826637268,-0.3963613510131836,-0.031060539186000824,0.09737363457679749,0.0838925838470459,-0.08410370349884033
0.4577653408050537,-0.47391411662101746,0.10805921256542206,0.10417401790618896,0.0345115065574646,0.015140295028686523
0.1802080124616623,-0.5776651501655579,0.20882651209831238,0.060630470514297485,0.01878899335861206,0.06265521049499512
0.15053090453147888,-0.7469590902328491,0.19383476674556732,0.020353496074676514,0.040659427642822266,-0.026946842670440674
0.38478678464889526,-0.8678709864616394,0.07257242500782013,-0.028780579566955566,0.0581212043762207,-0.06594163179397583
0.5863015651702881,-0.7484786510467529,-0.04846079275012016,-0.06255146861076355,0.00721365213394165,-0.013620257377624512
0.6176515817642212,-0.2995026111602783,0.09005939960479736,0.046622395515441895,-0.04644608497619629,0.08615922927856445
0.4126797318458557,0.06060120090842247,0.3080921471118927,0.09298250079154968,-0.09009867906570435,0.11393165588378906
0.009777740575373173,-0.36276304721832275,0.2881300449371338,-0.008276164531707764,-0.11394500732421875,0.05467957258224487
-0.2760302424430847,-0.7719951272010803,0.09159697592258453,-0.06619593501091003,-0.12277829647064209,-0.016280293464660645
-0.18875014781951904,-0.6007782220840454,-0.010588378645479679,-0.022977501153945923,-0.15346002578735352,-0.13305658102035522
0.10995743423700333,-0.01612226851284504,0.2069733738899231,0.09668809175491333,-0.2212667465209961,-0.22069042921066284
0.2025909423828125,0.3017755150794983,0.4354798495769501,0.11853033304214478,-0.2518824338912964,-0.20655083656311035
-0.02230142243206501,-0.024072229862213135,0.4016817510128021,0.031087540090084076,-0.24139362573623657,-0.17087984085083008
-0.27814117074012756,-0.47350460290908813,0.24074435234069824,-0.028421133756637573,-0.2421565055847168,-0.16219085454940796
-0.3498728275299072,-0.5042180418968201,0.08138144761323929,-0.04970177263021469,-0.26343756914138794,-0.1990339159965515
-0.30574271082878113,-0.13016481697559357,0.08723236620426178,0.03894996643066406,-0.32044148445129395,-0.2556666135787964
-0.17945675551891327,0.20918050408363342,0.34844687581062317,0.16703617572784424,-0.3965449333190918,-0.366110622882843
-0.2229873239994049,0.11453055590391159,0.5418656468391418,0.13661158084869385,-0.4363898038864136,-0.36975109577178955
-0.48617318272590637,-0.25115421414375305,0.42168357968330383,-0.005970090627670288,-0.43853479623794556,-0.33441805839538574
-0.6594112515449524,-0.4080212116241455,0.2623966634273529,-0.03602805733680725,-0.47188639640808105,-0.3812367916107178
-0.6072676181793213,-0.2387688010931015,0.108578622341156,-0.043494485318660736,-0.5044227242469788,-0.480461061000824
-0.3877704441547394,0.22814127802848816,0.02381344512104988,0.01060253381729126,-0.5701768398284912,-0.5608097314834595
-0.219151109457016,0.40584027767181396,0.09694872796535492,0.10836726427078247,-0.6166232824325562,-0.5838785767555237
-0.22575445473194122,0.12430057674646378,0.14263606071472168,0.10636216402053833,-0.621238112449646,-0.5453755855560303
-0.4320331811904907,-0.3271844685077667,0.08715313673019409,0.027287542819976807,-0.5800148248672485,-0.4884740114212036
-0.42021286487579346,-0.4661730229854584,-0.03361359238624573,-0.025113433599472046,-0.5213974714279175,-0.5245879888534546
0.022174756973981857,-0.20413024723529816,-0.21483561396598816,-0.03937554359436035,-0.5082322359085083,-0.5953340530395508
0.5177932381629944,0.26745790243148804,-0.27470603585243225,0.025007575750350952,-0.49422597885131836,-0.48891401290893555
0.6758514046669006,0.6599898338317871,-0.13485422730445862,0.10052035003900528,-0.4753510355949402,-0.28962743282318115
0.32783639430999756,0.5706689953804016,0.017516350373625755,0.06997644901275635,-0.39252710342407227,-0.1176828145980835
-0.2286454141139984,-0.06208125501871109,0.08957918733358383,0.01986938714981079,-0.29842132329940796,-0.11585849523544312
-0.524275541305542,-0.4366997480392456,-0.09039009362459183,-0.1037004292011261,-0.2102665901184082,-0.21188801527023315
-0.3234912157058716,-0.24084222316741943,-0.3496476411819458,-0.11503180861473083,-0.16656827926635742,-0.32417476177215576
0.10841358453035355,0.33034297823905945,-0.34222736954689026,0.02533450722694397,-0.18002504110336304,-0.33873236179351807
0.2486627995967865,0.6238208413124084,-0.09645601361989975,0.11180916428565979,-0.19381928443908691,-0.20547866821289062
0.048464253544807434,0.3962640166282654,0.09901303052902222,0.07342183589935303,-0.149428129196167,-0.11594343185424805
-0.233396977186203,-0.12861379981040955,0.1450994312763214,-0.0025843381881713867,-0.08284997940063477,-0.08740687370300293
-0.405246764421463,-0.3411833941936493,-0.0789809376001358,-0.1361871063709259,0.009692549705505371,-0.0492243766784668
-0.06799601763486862,-0.12780392169952393,-0.42008140683174133,-0.13771486282348633,0.002237677574157715,-0.1473677158355713
0.4670289158821106,0.385591059923172,-0.4412442445755005,0.039669156074523926,-0.0598217248916626,-0.1318289041519165
0.5862239003181458,0.7322690486907959,-0.15212546288967133,0.15079021453857422,-0.1345912218093872,0.04804509878158569
0.058113791048526764,0.6602104902267456,0.06431355327367783,0.10472538322210312,-0.14064550399780273,0.23067140579223633
-0.8216127157211304,0.21848873794078827,0.20682302117347717,0.06755420565605164,-0.07274031639099121,0.2890293002128601
-1.5091021060943604,-0.16432109475135803,0.2864670157432556,-0.024345602840185165,0.009178876876831055,0.21250420808792114
-1.5102732181549072,-0.14984187483787537,0.0971069186925888,-0.12094399333000183,0.07540488243103027,0.04233884811401367
-0.8691989779472351,0.43372464179992676,-0.0817117989063263,-0.08402061462402344,0.1011996865272522,-0.05633598566055298
-0.14982809126377106,1.0692639350891113,0.03291412442922592,0.05271303653717041,0.11917996406555176,0.0061337947845458984
-0.004517233930528164,1.2058547735214233,0.30527815222740173,0.10791438817977905,0.1417844295501709,0.21151912212371826
-0.5540746450424194,0.795619547367096,0.499418169260025,0.08278229832649231,0.19388413429260254,0.4152713418006897
-1.115502953529358,0.2354210913181305,0.4956938326358795,0.011895239353179932,0.23646748065948486,0.374919056892395
-0.9260169267654419,0.03793663531541824,0.07643056660890579,-0.12057435512542725,0.3702459931373596,0.12969529628753662
0.06991063803434372,0.21878759562969208,-0.32268479466438293,-0.0759783387184143,0.3193063735961914,-0.020889222621917725
1.0447312593460083,0.505348265171051,-0.2783818542957306,0.10065463185310364,0.29982882738113403,0.09604352712631226
1.2719855308532715,0.6487334966659546,0.1132909283041954,0.20617711544036865,0.2778799533843994,0.32582807540893555
0.7204320430755615,0.4668501913547516,0.48270076513290405,0.17597299814224243,0.2709277272224426,0.5181283354759216
-0.1392955482006073,0.04644333943724632,0.6071220636367798,0.07817575335502625,0.3196946382522583,0.5594961047172546
-0.5659494400024414,-0.27072980999946594,0.40968120098114014,-0.042290955781936646,0.35618460178375244,0.3933563232421875
-0.29557809233665466,-0.33663126826286316,0.09755650907754898,-0.09193044900894165,0.3583919405937195,0.19394999742507935
0.28929948806762695,-0.3484416604042053,0.016854196786880493,-0.05390197038650513,0.3634822368621826,0.13880151510238647
0.6307596564292908,-0.32972028851509094,0.23919831216335297,0.042127251625061035,0.32708168029785156,0.15235638618469238
0.6866673231124878,-0.1210741177201271,0.4854222238063812,0.05904516577720642,0.26980292797088623,0.25093042850494385
0.666532576084137,0.18884937465190887,0.4886819124221802,-0.03573483228683472,0.2190290093421936,0.27115386724472046
0.600737988948822,0.4153274595737457,0.27529942989349365,-0.1601088047027588,0.1985751986503601,0.21956217288970947
0.49037879705429077,0.47109636664390564,0.1170399934053421,-0.17113208770751953,0.15645289421081543,0.13752710819244385
0.3214501142501831,0.37583422660827637,0.18797196447849274,-0.06957513093948364,0.07776075601577759,0.0739365816116333
0.2563186287879944,0.2220838963985443,0.3241746425628662,0.006754457950592041,0.028032541275024414,0.005412578582763672
0.2539947032928467,0.07493535429239273,0.30484437942504883,-0.016185995191335678,0.03159910440444946,-0.020659685134887695
0.2881239652633667,0.010800925083458424,0.14719222486019135,-0.07546329498291016,0.043766915798187256,-0.0062187910079956055
0.28247013688087463,0.027255240827798843,0.001922698225826025,-0.0996006429195404,0.049639880657196045,0.021136820316314697
0.2858200967311859,0.10445539653301239,-0.016902707517147064,-0.06787395477294922,0.037543654441833496,0.025752663612365723
0.2859009802341461,0.10666551440954208,0.061408087611198425,-0.030503209680318832,0.03430980443954468,0.027226150035858154
0.3575630784034729,0.0002533289371058345,0.12153198570013046,-0.010118424892425537,0.04015028476715088,-0.0014600157737731934
0.4322960078716278,-0.08525378257036209,0.03029104508459568,-0.04214191436767578,0.06591796875,0.0022679567337036133
0.40387240052223206,-0.10912281274795532,-0.10988377034664154,-0.09556019306182861,0.063809335231781,0.05609685182571411
0.3341846764087677,-0.10548485815525055,-0.13502468168735504,-0.07913544774055481,0.04030811786651611,0.11590087413787842
0.2747677266597748,-0.03688308969140053,-0.08308491855859756,-0.0587533675134182,0.018718183040618896,0.12279725074768066
0.2029976099729538,0.03758007287979126,-0.014818243682384491,-0.04786759614944458,0.00597226619720459,0.1163100004196167
0.18945883214473724,0.008544264361262321,-0.04433264210820198,-0.06420597434043884,0.002697587013244629,0.08113467693328857
0.25858834385871887,-0.12000586092472076,-0.15450289845466614,-0.07554382085800171,0.01770162582397461,0.02661418914794922
0.36386770009994507,-0.16592681407928467,-0.248695969581604,-0.06911304593086243,0.02401447296142578,0.008017778396606445
0.4433981478214264,-0.08867902308702469,-0.20935694873332977,0.020410720258951187,0.022800207138061523,0.05696076154708862
0.4725164473056793,0.02702811174094677,-0.09668362885713577,0.06083747744560242,0.043944597244262695,0.09747523069381714
0.48929715156555176,0.12051244080066681,0.0029317010194063187,0.06441059708595276,0.08464330434799194,0.1177937388420105
0.5591093897819519,0.0848684087395668,0.04816865921020508,0.048770368099212646,0.14901494979858398,0.13510560989379883
0.6097732186317444,-0.035645365715026855,0.038445036858320236,0.016849040985107422,0.22184044122695923,0.19414299726486206
0.6387003660202026,-0.07516281306743622,0.0025690956972539425,0.0046962834894657135,0.2914431691169739,0.25937339663505554
0.625763475894928,0.03201868757605553,0.03818441554903984,0.02544504404067993,0.34264111518859863,0.3285350799560547
0.5893637537956238,0.21263493597507477,0.07396481931209564,0.019453227519989014,0.4064220190048218,0.3732801675796509
0.545806884765625,0.43597865104675293,0.09027116745710373,0.02020016312599182,0.45699185132980347,0.3884820342063904
0.6073849201202393,0.6138387322425842,0.09719587117433548,0.016811851412057877,0.49612849950790405,0.3398810923099518
0.7522143125534058,0.640711784362793,0.1432337462902069,0.04647388681769371,0.5144027471542358,0.2453441619873047
0.7812284231185913,0.4982249140739441,0.2150464653968811,0.049583882093429565,0.5211611390113831,0.2306029200553894
0.6126380562782288,0.31113848090171814,0.22303344309329987,0.021903812885284424,0.5018006563186646,0.24172484874725342
0.39433249831199646,0.12174791842699051,0.1650349199771881,-0.009708493947982788,0.45355361700057983,0.21161878108978271
0.11901570856571198,0.02508660964667797,0.05354909598827362,-0.017902374267578125,0.3924211859703064,0.1862046718597412
-0.0691545307636261,-0.09426790475845337,0.055047597736120224,0.04395962134003639,0.313254177570343,0.11440065503120422
-0.014921806752681732,-0.15122540295124054,0.20866289734840393,0.10785874724388123,0.2234565019607544,-0.0006512999534606934
0.1591694951057434,-0.15428456664085388,0.46966996788978577,0.16361185908317566,0.16782450675964355,-0.061872005462646484
0.23075108230113983,-0.0044538103975355625,0.5662835240364075,0.09389162808656693,0.13929355144500732,-0.045718878507614136
0.15321367979049683,0.22716344892978668,0.354901522397995,-0.004592567682266235,0.1322401762008667,-0.04363495111465454
0.044496480375528336,0.2897050082683563,0.09382182359695435,0.01482895016670227,0.10897207260131836,-0.0969088077545166
-0.041698768734931946,0.087839275598526,0.00042218295857310295,0.09611198306083679,0.05539441108703613,-0.14207279682159424
-0.07856349647045135,-0.20871572196483612,0.14813001453876495,0.1537379026412964,0.008764505386352539,-0.14138755202293396
-0.01686764322221279,-0.3151279389858246,0.32010820508003235,0.1083962619304657,-0.009730398654937744,-0.10806131362915039
0.061861202120780945,-0.25466102361679077,0.30733227729797363,-0.007940500974655151,0.005118370056152344,-0.058004140853881836
0.19782806932926178,-0.13709905743598938,0.11713536828756332,-0.08813425898551941,-0.019086599349975586,-0.06069612503051758
0.3323400616645813,-0.055018823593854904,-0.07561224699020386,-0.07683077454566956,-0.04259598255157471,-0.05734825134277344
0.3931821584701538,0.06081073358654976,-0.11734160035848618,-0.030862629413604736,-0.07640552520751953,-0.01072847843170166
0.3301083445549011,0.2617551386356354,0.007752949371933937,0.02390989661216736,-0.11996358633041382,0.041700005531311035
0.13652244210243225,0.3893223702907562,0.11938977986574173,0.010292507708072662,-0.1690806746482849,0.06251248717308044
-0.16728876531124115,0.3786561191082001,0.035954587161540985,-0.041440606117248535,-0.19213718175888062,0.04288429021835327
-0.4468877613544464,0.20171745121479034,-0.1686202436685562,-0.05100347846746445,-0.21027034521102905,-0.04312053322792053
-0.5648298263549805,-0.14213837683200836,-0.3133288323879242,-0.040090739727020264,-0.23270833492279053,-0.12640583515167236
-0.5050245523452759,-0.4687047004699707,-0.1892372965812683,0.05051413178443909,-0.2507873773574829,-0.14635306596755981
-0.28621333837509155,-0.35553890466690063,0.002201231662184,0.027011610567569733,-0.27086490392684937,-0.11574167013168335
0.020932303741574287,0.16464245319366455,-0.022923855111002922,-0.056798458099365234,-0.27913886308670044,-0.10574603080749512
0.18373951315879822,0.527123749256134,-0.14915888011455536,-0.04978790879249573,-0.30589020252227783,-0.09697175025939941
0.003757019992917776,0.3289490044116974,-0.1998414248228073,-0.008711837232112885,-0.33770519495010376,-0.0468887984752655
-0.42984673380851746,-0.09199220687150955,-0.11151233315467834,0.027940697968006134,-0.38236182928085327,0.004113107919692993
-0.7528368234634399,-0.16594834625720978,-0.042177118360996246,0.002938002347946167,-0.4452742338180542,-0.05265122652053833
-0.8592002987861633,0.1860113888978958,-0.03186081722378731,0.017410852015018463,-0.515783965587616,-0.17098253965377808
-0.8383749723434448,0.3837043046951294,-0.008788466453552246,0.051090873777866364,-0.5761557817459106,-0.31400245428085327
-0.8362782001495361,0.06542202085256577,-0.001758125377818942,0.03947669267654419,-0.6013873815536499,-0.3865694999694824
-0.809003472328186,-0.2633315324783325,-0.005344328936189413,0.0056190527975559235,-0.6048752665519714,-0.40154382586479187
-0.6667232513427734,-0.14245501160621643,0.023045295849442482,-0.0185868963599205,-0.6271231770515442,-0.4076889455318451
-0.2856389582157135,0.3523562550544739,0.03606491535902023,-0.059739917516708374,-0.6368920803070068,-0.4490242004394531
0.07564881443977356,0.7392956018447876,-0.03391959145665169,-0.0946282148361206,-0.644151508808136,-0.4395805299282074
0.1809624284505844,0.5811527967453003,-0.1469733566045761,-0.07852774858474731,-0.5949212312698364,-0.3653717041015625
0.0633401870727539,0.10976368933916092,-0.19708620011806488,-0.015950944274663925,-0.5486316084861755,-0.288906067609787
-0.01719694584608078,-0.2182193547487259,-0.21083824336528778,0.009901020675897598,-0.5082153677940369,-0.2964187562465668
0.07133544981479645,-0.16380417346954346,-0.1295686513185501,0.027221858501434326,-0.48789358139038086,-0.32940369844436646
0.16744202375411987,0.0843915119767189,-0.051563721150159836,-0.00030433759093284607,-0.4699086546897888,-0.31367215514183044
0.08474794030189514,0.1433088779449463,-0.09093888849020004,-0.020036637783050537,-0.43529343605041504,-0.2733640670776367
-0.06798424571752548,0.029594089835882187,-0.09061095118522644,0.035281334072351456,-0.42069560289382935,-0.2766834795475006
-0.1274106651544571,-0.13436000049114227,0.06916780769824982,0.1282307505607605,-0.4134538173675537,-0.3354203701019287
-0.10166479647159576,-0.2685060203075409,0.23584213852882385,0.14082041382789612,-0.36587464809417725,-0.358268678188324
0.022170700132846832,-0.2543371319770813,0.2728956639766693,0.08993598818778992,-0.2938902974128723,-0.36287984251976013
0.12264665961265564,-0.26224851608276367,0.2573772668838501,0.06614252924919128,-0.20457643270492554,-0.29938629269599915
0.16799740493297577,-0.2628574073314667,0.18949425220489502,0.009999871253967285,-0.1248159408569336,-0.2056952714920044
0.15735004842281342,-0.22805748879909515,0.07006309181451797,-0.014341920614242554,-0.06614243984222412,-0.10253715515136719
0.10457485169172287,-0.1565442979335785,0.0472041480243206,0.0507928729057312,-0.07180052995681763,-0.010864496231079102
-0.022119397297501564,-0.05327741056680679,0.14720889925956726,0.11644995957612991,-0.08062213659286499,0.0452595055103302
-0.2132994532585144,0.042322710156440735,0.2777365446090698,0.11403010040521622,-0.05806666612625122,0.08896169066429138
-0.3603164851665497,0.09108550101518631,0.2871740758419037,0.07551589608192444,0.030876338481903076,0.07035380601882935
-0.4124435484409332,0.04423665627837181,0.18359801173210144,0.047699540853500366,0.1370435357093811,0.058776259422302246
-0.28878653049468994,0.01506393775343895,-0.03679328411817551,0.03119558095932007,0.20090198516845703,0.06823664903640747
-0.010388036258518696,0.23973222076892853,-0.08170627802610397,0.13189387321472168,0.18773573637008667,0.0966654121875763
0.10132814198732376,0.4238635301589966,0.2111150622367859,0.2487795054912567,0.19692373275756836,0.19872641563415527
-0.11286810785531998,0.36575496196746826,0.500411331653595,0.2001868486404419,0.2598538398742676,0.30747300386428833
-0.4613925516605377,0.09700421243906021,0.5662462115287781,0.08694833517074585,0.34933531284332275,0.3475533127784729
-0.436916708946228,-0.080413818359375,0.3602975010871887,-0.013647221028804779,0.38490647077560425,0.24851518869400024
0.005414844956248999,0.08455739170312881,0.06924709677696228,-0.024117641150951385,0.364594042301178,0.15953344106674194
0.32889029383659363,0.34410563111305237,-0.043350402265787125,0.06424862891435623,0.3512573838233948,0.220073401927948
0.26890185475349426,0.4501754343509674,0.20762935280799866,0.21442610025405884,0.32107263803482056,0.29636573791503906
-0.10099246352910995,0.3371501863002777,0.5229483842849731,0.20569506287574768,0.3118464946746826,0.32407259941101074
-0.4665227234363556,0.04574461653828621,0.5434160232543945,0.09200245141983032,0.3627842664718628,0.27026766538619995
-0.40481430292129517,-0.254098117351532,0.26001501083374023,-0.03040149062871933,0.38789790868759155,0.12303817272186279
0.1434968113899231,-0.2455376833677292,-0.1324426829814911,-0.06603184342384338,0.38660728931427,0.016441166400909424
0.7092975378036499,0.02267594449222088,-0.14277632534503937,0.09763307124376297,0.34618622064590454,0.06273818016052246
0.9307999610900879,0.1420944631099701,0.37204018235206604,0.26569464802742004,0.2544524073600769,0.161786288022995
0.7831401824951172,0.06967298686504364,0.8092772364616394,0.19421058893203735,0.241196870803833,0.23615729808807373
0.5169882774353027,-0.1997942179441452,0.7878168225288391,-0.004711821675300598,0.2606050372123718,0.22401264309883118
0.3759857714176178,-0.4718060791492462,0.4540727436542511,-0.13248513638973236,0.275490403175354,0.14259248971939087
0.34125569462776184,-0.5336589813232422,0.20041297376155853,-0.10628527402877808,0.24775469303131104,0.10938739776611328
0.306932657957077,-0.31929197907447815,0.30068159103393555,0.022430136799812317,0.18738210201263428,0.11960205435752869
0.18118281662464142,-0.03752956539392471,0.5303905010223389,0.044346630573272705,0.14336693286895752,0.14210104942321777
0.07234169542789459,0.07963480800390244,0.5133004784584045,-0.054182857275009155,0.1393986940383911,0.10009455680847168
0.04826468229293823,-0.029945962131023407,0.25477877259254456,-0.1351824402809143,0.15100055932998657,0.050253212451934814
0.08728829026222229,-0.1625334769487381,0.016458019614219666,-0.11315879225730896,0.11892890930175781,0.02131521701812744
0.1097874715924263,-0.14811718463897705,0.05005292221903801,-0.018351823091506958,0.06252074241638184,0.03835344314575195
0.10412119328975677,-0.07597289234399796,0.1755238026380539,0.0003553032875061035,0.03275120258331299,0.0361407995223999
0.10955830663442612,-0.0668070912361145,0.2205623835325241,-0.03277952969074249,0.03378170728683472,0.022077709436416626
0.15976180136203766,-0.1344231516122818,0.17835627496242523,-0.07035435736179352,0.053438425064086914,0.02767983078956604
0.21048416197299957,-0.1452988237142563,0.06094248592853546,-0.10936878621578217,0.07215088605880737,0.05923756957054138
0.2264624834060669,-0.03898494318127632,-0.09171906858682632,-0.12641267478466034,0.07229006290435791,0.09171238541603088
0.1505996137857437,0.10261349380016327,-0.1357554793357849,-0.0595339834690094,0.051224470138549805,0.12188911437988281
0.02106204256415367,0.12172570079565048,-0.08818914741277695,-0.0199582576751709,0.030430912971496582,0.11769318580627441
-0.09201552718877792,0.02531287632882595,-0.08634424209594727,-0.020616456866264343,0.04755532741546631,0.09322765469551086
-0.11125943809747696,-0.05455535277724266,-0.147139772772789,-0.03867523372173309,0.06767034530639648,0.06700149178504944
-0.05822988972067833,-0.03542272746562958,-0.23494096100330353,-0.044034481048583984,0.09103238582611084,0.062178850173950195
-0.01852455921471119,0.016528893262147903,-0.25516825914382935,-0.014669865369796753,0.1001783013343811,0.0780823826789856
0.025306524708867073,-0.011485587805509567,-0.2034675031900406,0.017589598894119263,0.10063600540161133,0.07577395439147949
0.04910998418927193,-0.029304934665560722,-0.18088553845882416,0.009336158633232117,0.10875582695007324,0.08437767624855042
0.06771086156368256,-0.04876270890235901,-0.21938087046146393,-0.006369233131408691,0.13267672061920166,0.10449331998825073
0.14572270214557648,-0.04508768394589424,-0.28409117460250854,-0.009664207696914673,0.1525660753250122,0.10599523782730103
0.2874429523944855,0.012126476503908634,-0.3336927890777588,0.002415969967842102,0.17294615507125854,0.12142601609230042
0.38137659430503845,0.08017107844352722,-0.29463112354278564,0.03464189171791077,0.18764960765838623,0.17142951488494873
0.3710590898990631,0.09511774033308029,-0.15230564773082733,0.06962993741035461,0.20193397998809814,0.21919047832489014
0.33689266443252563,0.05980757251381874,0.04542892053723335,0.1094866394996643,0.231434166431427,0.2082619071006775
0.40192916989326477,-0.02352900803089142,0.15171660482883453,0.09050478041172028,0.25978559255599976,0.14589253067970276
0.48388180136680603,-0.25002342462539673,0.12483160942792892,0.0715770274400711,0.32226425409317017,0.12178447842597961
0.5390015840530396,-0.37822073698043823,0.030936380848288536,0.07591186463832855,0.3786044120788574,0.12705394625663757
0.5395724177360535,-0.2973461449146271,0.0027147112414240837,0.11335930228233337,0.40403759479522705,0.15120351314544678
0.470995157957077,-0.1609726846218109,0.08251034468412399,0.15296314656734467,0.40259647369384766,0.17753741145133972
0.3199460804462433,-0.09067386388778687,0.16659484803676605,0.15928532183170319,0.3970490097999573,0.17992672324180603
0.14176303148269653,-0.20106634497642517,0.2004365772008896,0.15879639983177185,0.4044609069824219,0.14461711049079895
0.026864096522331238,-0.3867948055267334,0.19781582057476044,0.1328504979610443,0.39151692390441895,0.09749022126197815
-0.036288972944021225,-0.47366857528686523,0.14871856570243835,0.08428499102592468,0.3798189163208008,0.0837775468826294
-0.051525093615055084,-0.46825045347213745,0.057793498039245605,0.036546528339385986,0.32799088954925537,0.06710571050643921
-0.0153502793982625,-0.30614468455314636,0.01991342194378376,0.024788185954093933,0.2730686664581299,0.06450006365776062
0.014801811426877975,0.022963594645261765,-0.06457597017288208,-0.014924213290214539,0.1831766963005066,0.059145957231521606
-0.08929545432329178,0.18751157820224762,-0.1719406098127365,-0.025574147701263428,0.136680006980896,0.08462071418762207
-0.2813969850540161,0.030940955504775047,-0.2650676369667053,-0.006648331880569458,0.08177536725997925,0.05149722099304199
-0.42669057846069336,-0.3254433572292328,-0.2726081609725952,0.009402886033058167,0.029278695583343506,0.006891161203384399
-0.4538474380970001,-0.512694776058197,-0.23603327572345734,-0.005878612399101257,-0.030238449573516846,-0.018382638692855835
-0.34104064106941223,-0.2683008313179016,-0.1747957170009613,-0.03786185383796692,-0.06989920139312744,-0.02360588312149048
-0.13588055968284607,0.13478751480579376,-0.1332295536994934,-0.0705958902835846,-0.10906821489334106,-0.05579671263694763
-0.09141742438077927,0.18197788298130035,-0.2382209599018097,-0.10360437631607056,-0.10719209909439087,-0.07232168316841125
-0.24706706404685974,-0.19662512838840485,-0.3266945481300354,-0.06602026522159576,-0.13405519723892212,-0.0782686173915863
-0.4213111996650696,-0.6312445402145386,-0.3514072895050049,-0.04936353862285614,-0.17137622833251953,-0.08798614144325256
-0.37826967239379883,-0.6845927834510803,-0.3192715346813202,-0.04791530966758728,-0.21390151977539062,-0.13712167739868164
-0.14272311329841614,-0.32926157116889954,-0.2912760376930237,-0.037876442074775696,-0.23317104578018188,-0.1764715015888214
0.18038462102413177,0.0348544642329216,-0.25292256474494934,0.012913256883621216,-0.25594037771224976,-0.20098161697387695
0.4215584397315979,0.13530601561069489,-0.2045794427394867,0.05129335820674896,-0.2759544849395752,-0.18386808037757874
0.307902991771698,-0.1673838198184967,-0.165946826338768,0.06315617263317108,-0.2795746326446533,-0.08180579543113708
0.014071725308895111,-0.4712396562099457,-0.09860635548830032,0.06108710169792175,-0.28547513484954834,-0.020902633666992188
-0.16722948849201202,-0.442791223526001,0.04604567214846611,0.06149594485759735,-0.2915840148925781,-0.05299648642539978
-0.10246715694665909,-0.28464382886886597,0.11984123289585114,0.030324772000312805,-0.26332974433898926,-0.14891210198402405
0.1633339822292328,-0.15522992610931396,0.05406126752495766,-0.011697039008140564,-0.2370084524154663,-0.21509185433387756
0.33944544196128845,-0.16903026401996613,-0.05269848182797432,-0.026483654975891113,-0.2195044755935669,-0.15502631664276123
0.2703167200088501,-0.19393481314182281,-0.07958509027957916,-0.013473749160766602,-0.2519294023513794,-0.056747376918792725
0.011896274983882904,-0.287565141916275,-0.004893063101917505,0.0029998868703842163,-0.26703840494155884,-0.006732076406478882
-0.3102099597454071,-0.25366997718811035,0.10902540385723114,0.0015726834535598755,-0.28426098823547363,-0.021421760320663452
-0.4769817292690277,-0.10312427580356598,0.08393213152885437,-0.05704939365386963,-0.30609118938446045,-0.12546992301940918
-0.28973034024238586,-0.1700023114681244,-0.09706448763608932,-0.08851221203804016,-0.26607364416122437,-0.28095704317092896
0.09448210150003433,-0.13871724903583527,-0.22189944982528687,-0.07424552738666534,-0.3114365339279175,-0.3361389935016632
0.3134565055370331,0.20024967193603516,-0.12228470295667648,-0.02230459451675415,-0.3916824460029602,-0.2190171480178833
0.16537079215049744,0.45164352655410767,0.020148705691099167,-0.04043543338775635,-0.4555776119232178,-0.0959932804107666
-0.18071596324443817,0.35947513580322266,0.015710262581706047,-0.06929901242256165,-0.504982590675354,-0.11924165487289429
-0.5374518036842346,-0.04011245444417,-0.07852441072463989,-0.06686323881149292,-0.5513661503791809,-0.1797647476196289
-0.7040669918060303,-0.4323628544807434,-0.1528605967760086,-0.0429815948009491,-0.5624485015869141,-0.2732691764831543
-0.4523189961910248,-0.5100833177566528,-0.18734124302864075,-0.0413333922624588,-0.5542042255401611,-0.38371512293815613
0.07290128618478775,-0.12911051511764526,-0.18222714960575104,-0.04368959367275238,-0.5171137452125549,-0.38459667563438416
0.4575178921222687,0.3476147949695587,-0.20662963390350342,-0.029782190918922424,-0.48583918809890747,-0.27080783247947693
0.5149490833282471,0.5110141634941101,-0.3036486804485321,-0.011616766452789307,-0.463839054107666,-0.18825674057006836
0.285478800535202,0.1419549435377121,-0.4504278004169464,0.023524418473243713,-0.42886555194854736,-0.17153194546699524
0.0015301215462386608,-0.4526200294494629,-0.4367360770702362,0.07161124050617218,-0.35816526412963867,-0.16566595435142517
0.11823061853647232,-0.5360141396522522,-0.20715998113155365,0.09609469771385193,-0.2931390404701233,-0.22743725776672363
0.5359310507774353,-0.09521887451410294,-0.09750976413488388,-0.005974754691123962,-0.23594582080841064,-0.2048155963420868
0.7658669948577881,0.4063607454299927,-0.19040213525295258,-0.07595962285995483,-0.186559796333313,-0.07510244846343994
0.6846749186515808,0.6888216137886047,-0.29657453298568726,-0.05069749057292938,-0.1890210509300232,-0.0016920268535614014
0.387784481048584,0.5641143918037415,-0.2607933580875397,0.02117866277694702,-0.17614120244979858,0.02291494607925415
-0.05295071005821228,0.203464537858963,-0.06294655799865723,0.11233896017074585,-0.1432139277458191,0.023027420043945312
-0.29200422763824463,-0.15900741517543793,0.1085117906332016,0.10509753227233887,-0.10314750671386719,-0.05275285243988037
-0.15210363268852234,-0.1955123096704483,0.04770391434431076,0.03256100416183472,-0.05053818225860596,-0.10680806636810303
0.11502234637737274,0.1363218128681183,-0.048010364174842834,0.03512272238731384,-0.037249207496643066,-0.061452388763427734
0.14909306168556213,0.4388931691646576,-0.04444214701652527,0.06797836720943451,-0.036721885204315186,0.039924949407577515
-0.21201570332050323,0.47049739956855774,0.10619332641363144,0.09779389202594757,-0.0074073076248168945,0.1470770537853241
-0.7160797715187073,0.2406827211380005,0.16257545351982117,0.05360541492700577,0.04153317213058472,0.15979710221290588
-0.6917994022369385,0.11145211011171341,0.033426590263843536,0.044055163860321045,0.09039068222045898,-0.057689547538757324
-0.11188028007745743,0.20448051393032074,-0.06028048321604729,0.11049938946962357,0.1395416259765625,-0.21453449130058289
0.4670565724372864,0.48150232434272766,-0.02822575345635414,0.14624127745628357,0.17907631397247314,-0.15526586771011353
0.3517633378505707,0.640526294708252,0.10110513120889664,0.13159185647964478,0.19382309913635254,0.06952273845672607
-0.0842580646276474,0.35838639736175537,0.18571053445339203,0.10170798003673553,0.20734214782714844,0.1718917191028595
-0.2732844948768616,0.12712624669075012,0.19968435168266296,0.07918185740709305,0.21361273527145386,0.0969991385936737
-0.3610408306121826,-0.019146325066685677,0.18010807037353516,0.04649157077074051,0.2575076222419739,0.13283470273017883
-0.3924107849597931,0.0849151462316513,0.13826210796833038,0.003543175756931305,0.27110356092453003,0.14968958497047424
-0.2686212956905365,0.35429051518440247,0.013997908681631088,-0.015421390533447266,0.21243983507156372,0.09943938255310059
-0.05382160842418671,0.6040037870407104,-0.0006833751685917377,0.024201005697250366,0.16769909858703613,0.06672048568725586
0.09981875121593475,0.6231949329376221,0.12050165981054306,0.12249267101287842,0.12599992752075195,0.04125773906707764
0.03577544540166855,0.347687304019928,0.29079586267471313,0.16815602779388428,0.13473474979400635,0.06790593266487122
-0.17143818736076355,-0.059844907373189926,0.3376019299030304,0.1322002410888672,0.18168926239013672,0.12481537461280823
-0.14096753299236298,-0.23260238766670227,0.19820645451545715,0.021437883377075195,0.21670037508010864,0.1349906325340271
0.23886902630329132,-0.11359263211488724,0.005014676135033369,-0.012123636901378632,0.23465150594711304,0.07522144913673401
0.5973432064056396,0.07589256763458252,-0.13279737532138824,-0.010376505553722382,0.2582100033760071,0.05252423882484436
0.6260930895805359,0.07714370638132095,-0.02962389960885048,0.04017096757888794,0.2606881856918335,0.1268627643585205
0.41311803460121155,-0.006095618009567261,0.24467021226882935,0.10361331701278687,0.25750064849853516,0.20818233489990234
0.19658948481082916,-0.10029520094394684,0.3607213795185089,0.07429419457912445,0.2633591294288635,0.2270963490009308
0.11334629356861115,-0.1080058366060257,0.29526254534721375,0.008205726742744446,0.2820082902908325,0.18734368681907654
0.1267150491476059,-0.04798666015267372,0.17915798723697662,-0.028964802622795105,0.2624344229698181,0.1383817493915558
0.24686813354492188,-0.004131846129894257,0.24866628646850586,0.01500922441482544,0.23853826522827148,0.08969426155090332
0.4087250232696533,0.07772639393806458,0.45592862367630005,0.09415863454341888,0.1966877579689026,0.03803709149360657
0.4126351475715637,0.109432153403759,0.5429539680480957,0.07364726066589355,0.1751498579978943,0.05343508720397949
0.20611128211021423,0.009611818939447403,0.455899178981781,-0.007489010691642761,0.1734703779220581,0.12671956419944763
0.028421133756637573,-0.146961972117424,0.35155901312828064,-0.05347558856010437,0.1583385467529297,0.14881372451782227
-0.016713809221982956,-0.2092253863811493,0.28552085161209106,-0.06311298906803131,0.1357625126838684,0.10684266686439514
0.017205622047185898,-0.1276269555091858,0.26596876978874207,-0.07535752654075623,0.11401772499084473,0.0792393684387207
0.057263221591711044,-0.00974256545305252,0.25076642632484436,-0.07840943336486816,0.1034398078918457,0.0660552978515625
0.07840779423713684,0.043627187609672546,0.17873205244541168,-0.0974838137626648,0.09561169147491455,0.058544933795928955
0.00556572899222374,0.013695948757231236,0.03728752210736275,-0.1319994181394577,0.09269446134567261,0.07062724232673645
-0.1493350714445114,-0.10472619533538818,-0.07113677263259888,-0.1310943216085434,0.0712817907333374,0.09374991059303284
-0.2666405141353607,-0.19189490377902985,-0.11887750774621964,-0.09569719433784485,0.05032026767730713,0.0760682225227356
-0.24320831894874573,-0.09549254924058914,-0.0830206647515297,-0.04257221519947052,0.02288764715194702,0.03016480803489685
-0.07260622084140778,0.03478149697184563,-0.04995891451835632,-0.001161426305770874,0.0056645870208740234,-0.044035762548446655
0.0869048461318016,0.044108472764492035,-0.06688781827688217,0.009772494435310364,-0.015926897525787354,-0.10086390376091003
0.1309824436903,-0.03872428461909294,-0.11247904598712921,0.011505454778671265,-0.011222422122955322,-0.07622343301773071
0.08620286732912064,-0.10880735516548157,-0.11360367387533188,0.006296634674072266,-0.023702025413513184,-0.024779319763183594
0.0408705472946167,-0.1120096743106842,-0.08036036044359207,0.019053995609283447,-0.01789391040802002,0.02053987979888916
0.07115796953439713,-0.07138657569885254,-0.08736409991979599,-0.005055040121078491,-0.00845491886138916,0.02193129062652588
0.16456303000450134,-0.07715130597352982,-0.10559263825416565,-0.020519733428955078,0.01898658275604248,0.024976134300231934
0.2628413736820221,-0.0709899440407753,-0.11166132986545563,-0.023545503616333008,0.03858447074890137,0.027475059032440186
0.25937652587890625,-0.0423121377825737,-0.10322414338588715,-0.03103804588317871,0.06329941749572754,0.08102798461914062
0.16882829368114471,0.009259800426661968,-0.09789477288722992,-0.0333104133605957,0.08763283491134644,0.13342717289924622
0.019142452627420425,0.05443601682782173,-0.10708880424499512,-0.03735321760177612,0.11033064126968384,0.17221039533615112
-0.0652974471449852,0.07649379223585129,-0.12473009526729584,-0.02946437895298004,0.1380062699317932,0.1753477156162262
-0.0041401199996471405,0.05468108505010605,-0.13057053089141846,0.0012582391500473022,0.1671745777130127,0.11260190606117249
0.17702241241931915,0.001928752288222313,-0.12103106826543808,0.03586333990097046,0.2089674472808838,0.05414414405822754
0.34285229444503784,-0.012501750141382217,-0.12923546135425568,0.05374443531036377,0.24734479188919067,0.043732404708862305
0.3397693336009979,0.04139403998851776,-0.1288892775774002,0.05043594539165497,0.2824697494506836,0.10595420002937317
0.15195782482624054,0.12053412199020386,-0.09920548647642136,0.043919071555137634,0.29708611965179443,0.20166906714439392
-0.10512620210647583,0.09710360318422318,-0.08082865923643112,0.04146189987659454,0.30823177099227905,0.25184324383735657
-0.2434002310037613,0.0465228371322155,-0.0641832947731018,0.02767038345336914,0.3222144842147827,0.22303849458694458
-0.2563708424568176,-0.00846769567579031,-0.07474692165851593,0.027050122618675232,0.3193333148956299,0.15034893155097961
-0.268901526927948,-0.06490305066108704,-0.10126669704914093,0.019113212823867798,0.3329883813858032,0.11940872669219971
-0.321066677570343,-0.07473635673522949,-0.11719753593206406,0.030468955636024475,0.326710045337677,0.11446461081504822
-0.4025024473667145,-0.07540016621351242,-0.14991706609725952,0.034723371267318726,0.2996208667755127,0.10887670516967773
-0.4871467053890228,-0.06828656047582626,-0.18342110514640808,0.03228659927845001,0.28435152769088745,0.10827335715293884
-0.4594048261642456,-0.10328251868486404,-0.19537650048732758,0.053178295493125916,0.2723153233528137,0.05793944001197815
-0.37289053201675415,-0.23142175376415253,-0.20839320123195648,0.07763123512268066,0.27780604362487793,-0.0010360479354858398
-0.258309006690979,-0.2837725281715393,-0.22615504264831543,0.07799522578716278,0.2667703628540039,-0.027288168668746948
-0.18945570290088654,-0.24716387689113617,-0.2420991063117981,0.07340076565742493,0.2660335898399353,-0.010109186172485352
-0.15481069684028625,-0.19115163385868073,-0.23303289711475372,0.06188121438026428,0.250011146068573,0.015818357467651367
-0.14694535732269287,-0.18282029032707214,-0.21962985396385193,0.05960439145565033,0.22966718673706055,0.025183290243148804
-0.13017210364341736,-0.24413752555847168,-0.21617969870567322,0.05172736942768097,0.21849536895751953,0.007975190877914429
-0.06464405357837677,-0.34786295890808105,-0.20602764189243317,0.050051167607307434,0.19553595781326294,-0.022402197122573853
-0.01823456399142742,-0.4597533643245697,-0.19910652935504913,0.03972446918487549,0.1570056676864624,-0.04256856441497803
-0.009883984923362732,-0.42031484842300415,-0.17322085797786713,0.02806974947452545,0.1059996485710144,-0.01310083270072937
-0.0024674334563314915,-0.16338786482810974,-0.16493017971515656,0.017028123140335083,0.05867469310760498,0.017721056938171387
0.018983835354447365,0.10162709653377533,-0.12467051297426224,0.045385122299194336,0.006453096866607666,0.009613871574401855
-0.04562978073954582,0.08132262527942657,-0.0854213759303093,0.08072955906391144,-0.045279860496520996,-0.0160616934299469
-0.25298357009887695,-0.29589545726776123,-0.07525931298732758,0.10094624757766724,-0.07140499353408813,-0.012726247310638428
-0.3579220473766327,-0.5784056186676025,-0.059268079698085785,0.09198176860809326,-0.09641462564468384,-0.04049164056777954
-0.27782365679740906,-0.5510346293449402,-0.04165694862604141,0.07430444657802582,-0.10775309801101685,-0.08628860116004944
-0.10617808997631073,-0.30700889229774475,0.014183206483721733,0.06665399670600891,-0.11932945251464844,-0.11354714632034302
0.0074932267889380455,-0.19340255856513977,0.054635852575302124,0.06731453537940979,-0.13168078660964966,-0.12083256244659424
0.021623453125357628,-0.44341665506362915,0.02020283415913582,0.04281485080718994,-0.13135647773742676,-0.08556497097015381
0.025556176900863647,-0.598771333694458,-0.037396494299173355,-0.0017628371715545654,-0.12186777591705322,-0.08022749423980713
-0.03713878244161606,-0.5039277672767639,-0.08173096179962158,-0.03870841860771179,-0.13941830396652222,-0.02127861976623535
-0.008390376344323158,-0.11646122485399246,-0.10800714045763016,-0.05913427472114563,-0.15935200452804565,-0.007914066314697266
0.08192872256040573,0.2287733256816864,-0.12560074031352997,-0.03913736343383789,-0.2093735933303833,-0.06910848617553711
-0.0016000012401491404,0.12241052836179733,-0.15976950526237488,-0.017308145761489868,-0.23436343669891357,-0.09055536985397339
-0.21588730812072754,-0.2861243188381195,-0.23903433978557587,-0.005084708333015442,-0.26418089866638184,-0.0903376042842865
-0.44230368733406067,-0.532415509223938,-0.28867506980895996,-0.013479053974151611,-0.29748833179473877,-0.0800776481628418
-0.4679848551750183,-0.2243114560842514,-0.2084982544183731,0.0147019624710083,-0.34012043476104736,-0.08626151084899902
-0.22001588344573975,0.4030064642429352,-0.004650701768696308,0.09282208979129791,-0.39855271577835083,-0.1676327884197235
0.01448526419699192,0.599443256855011,0.14572297036647797,0.13746321201324463,-0.4590938091278076,-0.2669525146484375
-0.056378863751888275,0.021048137918114662,0.21015623211860657,0.15469321608543396,-0.47506117820739746,-0.28968632221221924
-0.3994515538215637,-0.507468581199646,0.23037827014923096,0.1345122754573822,-0.516096830368042,-0.20143812894821167
-0.6624774932861328,-0.38394641876220703,0.3148481845855713,0.09554706513881683,-0.553097665309906,-0.1352349817752838
-0.6248660087585449,0.12327519804239273,0.4360312223434448,0.11670410633087158,-0.5968464612960815,-0.20949065685272217
-0.4655483365058899,0.40410372614860535,0.4510679244995117,0.08413940668106079,-0.60030198097229,-0.3061363697052002
-0.3611692488193512,0.17310672998428345,0.40240687131881714,0.06381453573703766,-0.5793917775154114,-0.3616279065608978
-0.27686092257499695,-0.10608986020088196,0.27320945262908936,0.01974228024482727,-0.5746522545814514,-0.353563129901886
-0.05905306339263916,-0.012843433767557144,0.16500549018383026,-0.05417470633983612,-0.562038779258728,-0.34650442004203796
0.1451343148946762,0.3220593333244324,0.17204958200454712,-0.05662702023983002,-0.5579596161842346,-0.3021415174007416
0.16611994802951813,0.43602195382118225,0.15483492612838745,-0.054862841963768005,-0.5267054438591003,-0.20945510268211365
0.21489757299423218,0.3486124575138092,0.0266694538295269,-0.0761004239320755,-0.4850212335586548,-0.1952182650566101
0.3488834500312805,0.2569420635700226,-0.1281721144914627,-0.08154270052909851,-0.4372725486755371,-0.2302379012107849
0.43948468565940857,0.21284933388233185,-0.1632729321718216,-0.05459599196910858,-0.3847995400428772,-0.22150918841362
0.35371437668800354,0.08006978780031204,-0.04089983552694321,-0.023925229907035828,-0.37699949741363525,-0.17729637026786804
0.2375325858592987,0.060056619346141815,0.12771064043045044,-0.006297633051872253,-0.3560858368873596,-0.1319415271282196
0.20122793316841125,0.053836796432733536,0.09918669611215591,-0.05589969456195831,-0.3047293424606323,-0.11732906103134155
0.33213478326797485,0.10557269304990768,-0.12052097171545029,-0.1286814659833908,-0.24118167161941528,-0.14177092909812927
0.5463150143623352,0.1336207240819931,-0.2946334481239319,-0.12172830104827881,-0.19703376293182373,-0.18656325340270996
0.687141478061676,0.09088849276304245,-0.22890034317970276,-0.017010122537612915,-0.16545915603637695,-0.1935274600982666
0.617547869682312,0.13160985708236694,0.026739276945590973,0.07691173255443573,-0.14039337635040283,-0.1346588432788849
0.4135199785232544,0.1711730659008026,0.20377549529075623,0.09431305527687073,-0.11456495523452759,-0.07415962219238281
0.24808350205421448,0.14365297555923462,0.16375041007995605,0.017351195216178894,-0.04381084442138672,-0.05856785178184509
0.20966647565364838,0.12520860135555267,0.0009567281231284142,-0.031744182109832764,0.014304876327514648,-0.07532429695129395
0.24877750873565674,0.1165129691362381,-0.19628474116325378,-0.056720584630966187,0.06693756580352783,-0.06310749053955078
0.2851536273956299,0.12258783727884293,-0.2516074478626251,-0.02424788475036621,0.09998178482055664,-0.034675002098083496
0.2827170789241791,0.17082715034484863,-0.06459775567054749,0.09627166390419006,0.09318530559539795,0.012174725532531738
0.1429630070924759,0.2815064489841461,0.1138760894536972,0.14428947865962982,0.07719892263412476,0.06876388192176819
-0.12497900426387787,0.2958499789237976,0.10462535917758942,0.07223916053771973,0.09172791242599487,0.14108067750930786
-0.4051147699356079,0.31505483388900757,-0.09393274039030075,-0.03760284185409546,0.14696747064590454,0.16847187280654907
-0.6413884162902832,0.26685723662376404,-0.29241234064102173,-0.08116351068019867,0.21208685636520386,0.16427019238471985
-0.5515655875205994,0.24125349521636963,-0.2742781937122345,0.014953941106796265,0.24784958362579346,0.11564850807189941
-0.17372740805149078,0.38516560196876526,-0.04238079488277435,0.12383006513118744,0.21096861362457275,-0.007495790719985962
0.09960802644491196,0.4541966915130615,0.16885194182395935,0.17072942852973938,0.24785935878753662,0.004454523324966431
0.0829874575138092,0.5093380212783813,0.19241288304328918,0.08980347216129303,0.31048333644866943,0.12802907824516296
-0.07303556799888611,0.5418239831924438,-0.018567170947790146,-0.04344809055328369,0.3789494037628174,0.247325599193573
-0.14886726438999176,0.5510724186897278,-0.2936681807041168,-0.11470707505941391,0.4156094789505005,0.27303174138069153
-0.05830802395939827,0.6114935874938965,-0.34873896837234497,-0.03877970576286316,0.42117828130722046,0.20946431159973145
0.016018979251384735,0.609830379486084,-0.12200594693422318,0.11711463332176208,0.3623867630958557,0.15346819162368774
-0.15204569697380066,0.46698734164237976,0.08738995343446732,0.15574043989181519,0.3044828772544861,0.1782384216785431
-0.46954190731048584,0.1732395589351654,0.14356553554534912,0.10255414992570877,0.2806100845336914,0.20892992615699768
-0.7102811932563782,-0.1937653124332428,0.06335604190826416,0.04164057970046997,0.2641338109970093,0.19152629375457764
-0.7728994488716125,-0.4728688597679138,-0.2058207392692566,-0.016525566577911377,0.29216742515563965,0.14243745803833008
-0.5365901589393616,-0.4875716269016266,-0.34027165174484253,-0.02053796499967575,0.2951914668083191,0.07505837082862854
-0.038243845105171204,-0.2903764843940735,-0.07899986207485199,0.12444981932640076,0.24131476879119873,-0.02927011251449585
0.5153517127037048,-0.03015654720366001,0.299967497587204,0.22054308652877808,0.17405277490615845,-0.08859044313430786
0.788057804107666,0.047581061720848083,0.4074864387512207,0.1669517159461975,0.17498648166656494,-0.04589271545410156
0.7348542213439941,-0.04190121218562126,0.2439911663532257,0.027839213609695435,0.1856902837753296,0.059154629707336426
0.5179966688156128,-0.15983349084854126,0.03925409913063049,-0.0390169620513916,0.15845096111297607,0.11723262071609497
0.34859922528266907,-0.16946278512477875,0.11252755671739578,0.01803949475288391,0.11397922039031982,0.10042691230773926
0.3532363474369049,-0.04573315009474754,0.46220138669013977,0.14231589436531067,0.04490441083908081,0.027881264686584473
0.34408989548683167,-0.01921362802386284,0.6442294716835022,0.1390986293554306,0.014779925346374512,-0.011890619993209839
0.25491049885749817,-0.16955530643463135,0.5426555275917053,0.029962465167045593,0.04976600408554077,0.011070877313613892
0.133309006690979,-0.3352378010749817,0.33596283197402954,-0.05137290060520172,0.06750738620758057,0.04128113389015198
0.06862964481115341,-0.3513529300689697,0.18953610956668854,-0.06855906546115875,0.07016479969024658,0.06789520382881165
-0.002247636206448078,-0.2899185121059418,0.17845143377780914,-0.04450121521949768,0.0564960241317749,0.07687318325042725
-0.030771689489483833,-0.19343402981758118,0.27696919441223145,-0.0038140416145324707,0.037204623222351074,0.08051538467407227
0.07498163729906082,-0.0454062819480896,0.2903776168823242,0.011055588722229004,0.03190720081329346,0.0377422571182251
0.23373623192310333,-0.008679901249706745,0.18679600954055786,-0.028010055422782898,0.04403573274612427,-0.019459396600723267
0.3182234466075897,-0.09258895367383957,0.04084090143442154,-0.04203289747238159,0.05171382427215576,-0.02383369207382202
0.28075307607650757,-0.16609437763690948,-0.08604840934276581,-0.05161355435848236,0.04830324649810791,0.01860681176185608
0.16877253353595734,-0.12925106287002563,-0.09519510716199875,-0.03265438973903656,0.04407733678817749,0.06912139058113098
0.08705967664718628,-0.06437187641859055,0.0046027651987969875,0.027902469038963318,0.017866790294647217,0.0828198492527008
0.035597965121269226,-0.04793356731534004,-0.011600341647863388,0.01091603934764862,0.02395308017730713,0.06815871596336365
0.051676761358976364,-0.10097216814756393,-0.09960602223873138,-0.01777571439743042,0.04310488700866699,0.04699254035949707
0.06604257971048355,-0.13196824491024017,-0.20238614082336426,-0.030180171132087708,0.048044443130493164,0.036142438650131226
0.10078655183315277,-0.14062568545341492,-0.2375200241804123,-0.009205549955368042,0.04608887434005737,0.038512468338012695
0.12214210629463196,-0.017812326550483704,-0.20841005444526672,-0.007328540086746216,0.04776203632354736,0.0462375283241272
0.1262420117855072,0.09112954139709473,-0.06751220673322678,0.06254236400127411,0.0225369930267334,0.05960950255393982
0.0704725906252861,0.11885035037994385,-0.03644257411360741,0.045916035771369934,0.02203613519668579,0.06864991784095764
-0.021840635687112808,0.03740899637341499,-0.0869135931134224,0.01743677258491516,0.026648640632629395,0.07249820232391357
-0.13625632226467133,-0.10804635286331177,-0.17408500611782074,0.0023277103900909424,0.035099565982818604,0.0668482780456543
