rotation_x,rotation_y,rotation_z,acceleration_x,acceleration_y,acceleration_z
-0.05896301567554474,0.08155643939971924,0.24840834736824036,0.005781084299087524,0.008107185363769531,0.045637547969818115
-0.14583538472652435,0.11013919860124588,0.22661428153514862,-0.030159413814544678,0.008939772844314575,0.0660710334777832
-0.21860946714878082,0.11370071768760681,0.163320392370224,-0.046921879053115845,0.009669691324234009,0.05187118053436279
-0.1796218454837799,0.08862491697072983,0.07202626764774323,-0.05141282081604004,0.011808216571807861,0.0018050074577331543
-0.07327330857515335,0.09075359255075455,0.007686852943152189,-0.04361391067504883,0.022929102182388306,-0.024067699909210205
-0.013338998891413212,0.1125071793794632,-0.030451752245426178,-0.035811543464660645,0.01893174648284912,-0.015694737434387207
-0.022053467109799385,0.12133974581956863,-0.046612054109573364,-0.03120267391204834,0.011543065309524536,-0.002034902572631836
-0.040438659489154816,0.08416305482387543,-0.05930592492222786,-0.02640947699546814,0.013367891311645508,-0.0027449727058410645
-0.0644746795296669,0.0473041832447052,-0.07473577558994293,-0.019638583064079285,0.014606446027755737,-0.0005514025688171387
-0.07006566971540451,0.04322618618607521,-0.08334627002477646,-0.013070747256278992,0.00829082727432251,-0.0026384592056274414
-0.07264966517686844,0.07701777666807175,-0.08802254498004913,-0.010785683989524841,0.003810405731201172,0.00019919872283935547
-0.07143186777830124,0.0729682520031929,-0.0926736518740654,-0.003364160656929016,-0.0013508200645446777,0.0005394220352172852
-0.050433576107025146,0.060579705983400345,-0.07366341352462769,0.0043868571519851685,-0.006571263074874878,-0.003920495510101318
-0.02849285677075386,0.04405231028795242,-0.04533708840608597,0.00813816487789154,-0.007107794284820557,-0.004829466342926025
-0.052721232175827026,0.06490006297826767,-0.026312530040740967,0.00905434787273407,-0.003767043352127075,0.005050241947174072
-0.06565440446138382,0.08493635058403015,-0.017902282997965813,0.008760526776313782,0.0047407448291778564,-0.003768742084503174
-0.01576773077249527,0.05804075300693512,-0.025346191599965096,0.007506176829338074,0.01558142900466919,-0.028890252113342285
0.04015105217695236,0.02784767374396324,-0.011809639632701874,0.012609511613845825,0.021448880434036255,-0.03417080640792847
0.0321216881275177,0.03446045145392418,-0.012710757553577423,0.003659076988697052,0.01520964503288269,-0.007764279842376709
3.312528133392334e-05,0.0542089007794857,-0.025013569742441177,0.0028474852442741394,0.016597449779510498,0.00932300090789795
-0.016888801008462906,0.06481169164180756,-0.02850411832332611,0.008449718356132507,0.01749974489212036,0.012227952480316162
-0.003959338180720806,0.022610442712903023,-0.027041126042604446,0.011800147593021393,0.010885417461395264,-0.0029135942459106445
0.008068956434726715,0.03629832714796066,-0.02542678825557232,0.009775780141353607,0.010444700717926025,-0.0006900429725646973
0.0053671058267354965,0.05665438994765282,-0.03234272450208664,0.006747707724571228,0.008362233638763428,0.009140491485595703
-0.0034677968360483646,0.07060738652944565,-0.039030611515045166,0.011129863560199738,0.010459810495376587,0.015562653541564941
-0.006600676104426384,0.08683884888887405,-0.03709671273827553,0.007868826389312744,0.005477041006088257,0.013482928276062012
0.006730043329298496,0.07130922377109528,-0.03588740900158882,0.012806467711925507,0.00417366623878479,0.011232972145080566
0.02500905841588974,0.06635849177837372,-0.036587297916412354,0.009225107729434967,0.0044796764850616455,0.020335257053375244
-0.016327938064932823,0.09645915776491165,-0.018269097432494164,0.012515880167484283,-0.0036088228225708008,0.03856402635574341
-0.08226567506790161,0.1262110024690628,0.039915602654218674,0.018154039978981018,-0.010811060667037964,0.031423866748809814
-0.09726287424564362,0.12089231610298157,0.06480764597654343,0.013808824121952057,0.004091233015060425,-0.0038086771965026855
-0.029998743906617165,0.037663694471120834,0.054989445954561234,-3.769993782043457e-05,0.011186063289642334,-0.040446937084198
0.028533609583973885,-0.028866585344076157,0.015482531860470772,-0.014955155551433563,0.005092531442642212,-0.03605145215988159
0.04399413242936134,-0.030189836397767067,0.0003666696138679981,-0.014739654958248138,0.002328842878341675,-0.007215440273284912
0.018878262490034103,0.027832353487610817,0.005502688232809305,-0.010526038706302643,-0.0006522834300994873,0.02027308940887451
0.008990605361759663,0.06829565763473511,0.022092511877417564,-0.004056096076965332,0.0034822821617126465,0.0186690092086792
0.011519876308739185,0.06328833103179932,0.03190365433692932,-0.0037807822227478027,0.0034005343914031982,0.006386458873748779
0.018883580341935158,0.02034788206219673,0.02569010481238365,-0.005699627101421356,0.007642120122909546,-0.003733396530151367
0.02348065935075283,-0.024473661556839943,0.02954581193625927,-0.00042769312858581543,0.013853371143341064,-0.0007451176643371582
0.02358013205230236,-0.043746467679739,0.029745623469352722,-0.0026596710085868835,0.009480178356170654,0.009818077087402344
0.009886490181088448,-0.001737015787512064,0.03679480031132698,-0.00463470071554184,0.004292875528335571,0.02426058053970337
-0.015192694030702114,0.06909029930830002,0.04778541624546051,-0.004333406686782837,0.0019277334213256836,0.02978050708770752
-0.019888518378138542,0.073170505464077,0.05425873026251793,-0.0007182955741882324,0.006255418062210083,0.012148916721343994
0.0036899810656905174,0.02698560804128647,0.05898384004831314,-0.0012104511260986328,0.008319735527038574,-0.01125192642211914
0.020153585821390152,-0.02318517491221428,0.03187480941414833,-0.005792707204818726,0.009560555219650269,-0.014051616191864014
0.02262565679848194,-0.027624959126114845,0.01290961168706417,-0.009285986423492432,0.006676137447357178,-0.004198312759399414
0.013805996626615524,-0.0006262307288125157,-0.005283178761601448,-0.0069282278418540955,-0.005536466836929321,0.009539425373077393
0.005229089874774218,0.01170247420668602,-0.00207519787363708,0.003156334161758423,-0.007914960384368896,0.011681139469146729
-0.007408612873405218,0.023459235206246376,0.014417441561818123,0.011322803795337677,-0.007045835256576538,0.012575268745422363
-0.004433794878423214,0.03362692520022392,0.03130829334259033,0.008930861949920654,-0.010164529085159302,0.005751132965087891
0.02153123915195465,0.023174867033958435,0.050000548362731934,0.005210652947425842,-0.011362820863723755,-0.00014466047286987305
0.025002125650644302,0.022307779639959335,0.0467587374150753,-0.0037847086787223816,-0.009570837020874023,0.006655871868133545
0.003871339373290539,0.03472649306058884,0.017448727041482925,-0.01458374410867691,-0.0017258524894714355,0.016595840454101562
-0.02123667299747467,0.04141807556152344,-0.014841383323073387,-0.015005245804786682,0.0038207173347473145,0.018008768558502197
-0.01108170673251152,0.018764492124319077,-0.016795016825199127,-0.0023332014679908752,-0.0012513399124145508,0.0018813014030456543
0.005830628331750631,0.022290125489234924,0.019823160022497177,0.005179241299629211,-0.004277139902114868,-0.0028139352798461914
0.011447099968791008,0.03478539362549782,0.030755670741200447,-0.004058122634887695,-0.002283036708831787,0.004830300807952881
0.008969960734248161,0.05861285701394081,0.009968211874365807,-0.020010389387607574,0.008002787828445435,0.009620726108551025
-0.007211204618215561,0.05763724818825722,-0.02987068146467209,-0.022709332406520844,0.013061821460723877,0.005166828632354736
0.01034907903522253,0.017838099971413612,-0.05385136231780052,-0.015199840068817139,0.016220062971115112,-0.012448132038116455
0.029841020703315735,-0.02382652275264263,-0.05624154955148697,-0.00440080463886261,0.014493584632873535,-0.01654505729675293
0.03815028443932533,-0.021339816972613335,-0.04157907888293266,0.006157763302326202,0.013814806938171387,-0.002011239528656006
0.032343994826078415,0.016066286712884903,-0.023403212428092957,0.009720712900161743,0.009935319423675537,0.01794576644897461
0.02482915110886097,0.012300907634198666,-0.005272962618619204,0.015119381248950958,0.009641200304031372,0.025312840938568115
-0.012929745018482208,0.0118214450776577,0.02686673030257225,0.015035368502140045,0.004565238952636719,0.037115395069122314
-0.050684649497270584,0.02767064794898033,0.0362999364733696,0.011037401854991913,0.004006534814834595,0.036014676094055176
-0.06261494010686874,0.03967006877064705,0.04239514470100403,0.014652788639068604,0.008737444877624512,0.01627635955810547
-0.053159259259700775,0.0159162525087595,0.04772835224866867,0.01776205003261566,0.003552675247192383,-0.0038716793060302734
-0.023664746433496475,-0.009758037514984608,0.0687624141573906,0.019606545567512512,0.0029428303241729736,-0.015733838081359863
-0.004434660077095032,-0.03635728359222412,0.0738706886768341,0.016474060714244843,0.006166994571685791,-0.0033100247383117676
-0.012562427669763565,-0.02305421233177185,0.07243917882442474,0.009048081934452057,0.006084352731704712,0.019392848014831543
-0.05063057318329811,0.0440942645072937,0.06076877564191818,-0.0006119981408119202,8.940696716308594e-05,0.036283791065216064
-0.065041683614254,0.08275266736745834,0.061473406851291656,-0.00057954341173172,-0.004494994878768921,0.018070459365844727
-0.03318588063120842,0.07802959531545639,0.06067011505365372,0.001800537109375,-0.002891331911087036,-0.013410568237304688
0.018694227561354637,0.032491836696863174,0.04631712660193443,-0.0012362152338027954,0.002008497714996338,-0.03163415193557739
0.03658394515514374,0.020771581679582596,0.02076776698231697,-0.00546303391456604,0.0009772777557373047,-0.02000737190246582
0.008374614641070366,0.054791416972875595,0.024934113025665283,0.002914048731327057,-0.00363922119140625,-0.008652269840240479
0.001860321033746004,0.06950325518846512,0.048451706767082214,0.011735022068023682,-0.005179047584533691,-0.01931244134902954
0.021657126024365425,0.03411673381924629,0.05654115229845047,0.012360431253910065,0.001378089189529419,-0.02945852279663086
0.07661053538322449,-0.018551591783761978,0.0473446324467659,0.0028285011649131775,-0.0012212097644805908,-0.02478235960006714
0.10955475270748138,-0.03453296050429344,0.04648695886135101,0.0010677799582481384,7.408857345581055e-05,-0.00011658668518066406
0.07503760606050491,-0.0028218477964401245,0.04551445320248604,0.005186498165130615,0.004356712102890015,0.038116633892059326
0.019794778898358345,0.049287162721157074,0.05484871193766594,0.003752194344997406,0.005626410245895386,0.05370253324508667
-0.030056798830628395,0.08203920722007751,0.07744570821523666,0.002502232789993286,0.0045379698276519775,0.04353988170623779
-0.057482361793518066,0.05679861828684807,0.08721785247325897,0.0006439685821533203,0.0058394670486450195,0.02354985475540161
-0.036170754581689835,0.015457354485988617,0.07864748686552048,-0.002730444073677063,0.014698833227157593,-0.001336812973022461
0.006676381453871727,-0.017610367387533188,0.038507573306560516,-0.008100762963294983,0.02256155014038086,-0.005285978317260742
0.014499481767416,0.001017266302369535,-0.0011582474689930677,-0.010789811611175537,0.020724982023239136,0.01215440034866333
-0.01968665048480034,0.03899415582418442,-0.010391103103756905,-0.0035203099250793457,0.014517873525619507,0.026392996311187744
-0.045417238026857376,0.05022910609841347,0.0032671187072992325,0.0031012743711471558,0.00528329610824585,0.018649160861968994
-0.04114946350455284,0.03370675817131996,0.019203998148441315,0.005747020244598389,0.004617214202880859,0.00677180290222168
-0.03849049657583237,0.014915858395397663,0.009256426244974136,0.0010785013437271118,0.007263451814651489,0.005812346935272217
-0.030784972012043,0.014873335137963295,-0.019779738038778305,-0.004181236028671265,0.00525239109992981,0.01005101203918457
-0.027357082813978195,0.020999036729335785,-0.03084399551153183,-0.002979852259159088,0.0008824467658996582,0.010841846466064453
-0.0353504978120327,0.03757298365235329,-0.021463366225361824,0.0021448135375976562,-0.006080597639083862,0.011384725570678711
-0.04397447779774666,0.04046457260847092,-0.004804227966815233,0.008781440556049347,-0.010039210319519043,0.0038806796073913574
-0.025179551914334297,0.011860438622534275,0.01681959070265293,0.012388564646244049,-0.007317692041397095,-0.008603215217590332
-0.003568068379536271,-0.005540724843740463,0.03836138918995857,0.010329358279705048,-0.005807012319564819,-0.006103813648223877
-0.011858409270644188,0.006964203901588917,0.046502485871315,0.0004438459873199463,-0.006531715393066406,0.007565736770629883
-0.023297691717743874,0.04336070269346237,0.03536373749375343,-0.0054454505443573,0.001247406005859375,0.00864475965499878
-0.0008615634869784117,0.022469330579042435,0.015953801572322845,-0.007748737931251526,0.006589829921722412,-0.010297954082489014
0.01619158871471882,-0.012061852030456066,-0.0017180230934172869,-0.008184835314750671,0.007839351892471313,-0.01421654224395752
0.00811169296503067,-0.03068685717880726,-0.007980716414749622,-0.0013733580708503723,0.010104596614837646,-0.0009120702743530273
-0.001189598347991705,-0.016405683010816574,-0.012253012508153915,-0.00043151527643203735,0.006519317626953125,0.011081814765930176
0.008838403038680553,-0.004150035325437784,-0.007860737852752209,0.0018866732716560364,0.0034013986587524414,0.011126458644866943
-0.0010370665695518255,0.02576984465122223,0.001780153252184391,0.003666125237941742,-0.0012102723121643066,0.01621878147125244
-0.03571561723947525,0.04810448735952377,0.01017300970852375,0.006374865770339966,-0.001923203468322754,0.013882935047149658
-0.026840901002287865,0.02429872378706932,0.013743890449404716,0.009872496128082275,0.005016982555389404,-0.009955286979675293
0.015562488697469234,-0.03859616816043854,0.002446107566356659,0.012544810771942139,0.009048104286193848,-0.02314150333404541
0.03897180035710335,-0.06687064468860626,0.010062942281365395,0.01440005749464035,0.00572088360786438,-0.004008233547210693
0.021940289065241814,-0.02233313024044037,0.026266740635037422,0.004637017846107483,-0.0042243897914886475,0.02819746732711792
-0.018013980239629745,0.04015585407614708,0.026469575241208076,0.003589935600757599,-0.006531476974487305,0.03674799203872681
-0.028807979077100754,0.04919986426830292,0.0427003838121891,0.009763143956661224,0.0019768476486206055,0.011653780937194824
-0.0006471131928265095,0.007119676563888788,0.06002114340662956,0.007035247981548309,0.0021750330924987793,-0.01317828893661499
0.025858329609036446,-0.025044908747076988,0.06268778443336487,0.0002724975347518921,0.009284615516662598,-0.012820661067962646
0.027439212426543236,-0.011383190751075745,0.04981523007154465,-0.009003043174743652,0.013328969478607178,0.00029271841049194336
0.025598211213946342,0.014299222268164158,0.029059501364827156,-0.016462452709674835,0.01275777816772461,0.006215989589691162
0.02407541126012802,-0.001023041782900691,0.010987404733896255,-0.014867901802062988,0.014022529125213623,0.0018903017044067383
0.013238475657999516,-0.028021428734064102,0.011987992562353611,-0.009801313281059265,0.010497868061065674,0.002421736717224121
0.008339595049619675,-0.04133181646466255,0.01391143910586834,-0.007971026003360748,0.004512429237365723,0.00231093168258667
0.03421447053551674,-0.05230339244008064,0.0174428578466177,-0.003193579614162445,0.006655663251876831,0.0008134841918945312
0.032110635191202164,-0.03038247674703598,0.015643883496522903,-0.0008006766438484192,0.00623282790184021,0.014943063259124756
-0.0007110955193638802,-0.00488494336605072,0.016019504517316818,-0.0007922053337097168,-9.66489315032959e-05,0.02470177412033081
-0.009269297122955322,-0.0018943161703646183,0.026193158701062202,0.0018945708870887756,-0.0019989609718322754,0.011899054050445557
0.003729861695319414,-0.055820900946855545,0.019405711442232132,0.0008153989911079407,0.0011324882507324219,-0.004663288593292236
-0.019861681386828423,-0.09248927235603333,0.003860404249280691,0.0036443322896957397,0.005676478147506714,0.002354562282562256
-0.02233702689409256,-0.04296110197901726,-0.008578862994909286,0.006350085139274597,0.001794278621673584,0.004844307899475098
0.02505272440612316,0.030508365482091904,-0.0004309951327741146,0.008628956973552704,-0.006139487028121948,-0.004843473434448242
0.061334170401096344,0.03870254009962082,0.016198961064219475,0.011521786451339722,-0.00786086916923523,-0.009128451347351074
0.055529139935970306,0.006909235380589962,0.025279732421040535,0.007545441389083862,-0.0026197731494903564,0.003253340721130371
0.012962177395820618,-0.028375642374157906,0.012984242290258408,-0.0017328187823295593,0.002971053123474121,0.020978808403015137
-0.012789862230420113,-0.026478590443730354,-0.004069824703037739,-0.0038880258798599243,0.0038608014583587646,0.02194148302078247
0.004972490016371012,0.0016731348587200046,0.006932456977665424,-0.0009088441729545593,-0.0011608004570007324,0.016689300537109375
0.01997973583638668,0.03685151785612106,0.023948021233081818,0.0007570013403892517,0.001695007085800171,0.018814444541931152
-0.0018243619706481695,0.04205024614930153,0.02694285474717617,-0.005304299294948578,0.0060367584228515625,0.02509629726409912
-0.03979544714093208,0.013430880382657051,0.018754590302705765,-0.010914325714111328,0.010309487581253052,0.022231698036193848
-0.05244918912649155,-0.02297027036547661,0.0026038503274321556,-0.01271732896566391,0.012495249509811401,0.011771917343139648
-0.04830271378159523,-0.010804986581206322,-0.016926880925893784,-0.01272224634885788,0.01441657543182373,0.010199546813964844
-0.0409792885184288,0.026561766862869263,-0.03803212568163872,-0.011570446193218231,0.008633196353912354,0.00884711742401123
-0.03822018951177597,0.049792055040597916,-0.047449350357055664,-0.00848841667175293,0.00796005129814148,0.0032129287719726562
-0.03543352335691452,0.03227652609348297,-0.05051348730921745,-0.006685279309749603,0.005390137434005737,-0.005393087863922119
-0.018688831478357315,-0.002881455235183239,-0.0601450577378273,-0.0035509616136550903,0.0009668469429016113,-0.018177151679992676
0.005700333043932915,-0.016703827306628227,-0.06245472654700279,-0.0015854090452194214,0.0009551942348480225,-0.018119454383850098
0.01610064134001732,-0.021714257076382637,-0.06803172081708908,0.00010932981967926025,-0.003737539052963257,-0.006717383861541748
0.008879480883479118,-0.03374573588371277,-0.04222534969449043,0.012688994407653809,-0.004199475049972534,0.00789862871170044
-0.008811953477561474,-0.019122494384646416,-0.0076856594532728195,0.017812594771385193,-0.006790071725845337,0.01970452070236206
-0.007133308332413435,0.002014242112636566,-0.007716451771557331,0.009296752512454987,-0.004662841558456421,0.022633373737335205
-0.012026994489133358,0.005433345213532448,-0.015117871575057507,0.00789034366607666,0.0024681687355041504,0.028772473335266113
-0.041764721274375916,0.05601167678833008,-0.022877618670463562,-0.0030315816402435303,-0.0003820359706878662,0.03867977857589722
-0.08296115696430206,0.06689175963401794,-0.022592926397919655,0.005947485566139221,0.004106998443603516,0.032315850257873535
-0.07068166136741638,0.0120598329231143,-0.0076404744759202,0.012372352182865143,0.007508605718612671,-0.004506587982177734
-0.03547140583395958,-0.02827080525457859,0.005011955741792917,0.011620648205280304,0.005072504281997681,-0.024039626121520996
-0.011488441377878189,-0.051869116723537445,-0.007031050510704517,0.009776823222637177,0.0016512274742126465,-0.021923303604125977
0.013373234309256077,-0.03522459790110588,0.004496862646192312,0.013896666467189789,0.0003351569175720215,-0.01473987102508545
0.022377047687768936,-0.029244892299175262,0.01623891294002533,0.011420950293540955,-0.006621509790420532,-0.004242658615112305
0.014962272718548775,-0.027301138266921043,0.02858041413128376,0.01064550131559372,-0.005193263292312622,0.007648050785064697
-0.0048891291953623295,-0.011567295528948307,0.03597371280193329,0.005408845841884613,-0.009744256734848022,0.014114022254943848
-0.016228534281253815,0.008356708101928234,0.04045221954584122,0.003124251961708069,-0.006689161062240601,0.006476640701293945
0.016156569123268127,0.013498472981154919,0.026967570185661316,0.0017044246196746826,-1.58846378326416e-05,-0.007038414478302002
0.04643205180764198,0.00017925153952091932,0.016001395881175995,-0.0011683180928230286,0.0036621689796447754,-0.008191585540771484
0.027259286493062973,0.0011004515690729022,0.01635909453034401,-0.0012433305382728577,0.004149138927459717,0.012165963649749756
-0.005129140801727772,0.0033848416060209274,0.026241552084684372,0.004047982394695282,0.005988389253616333,0.019903242588043213
0.0003098328597843647,0.006299084518104792,0.035715971142053604,-0.0013500228524208069,0.007670879364013672,0.012140035629272461
0.011888852342963219,0.024051573127508163,0.02335015870630741,-0.009651124477386475,0.009637206792831421,0.012040197849273682
-0.00583754712715745,0.05841189995408058,0.00980726070702076,-0.013705573976039886,0.011493861675262451,0.02027839422225952
-0.05198271572589874,0.03944121301174164,-0.0002863784320652485,-0.009243682026863098,0.01118972897529602,0.026534318923950195
-0.0971241146326065,0.033511221408843994,0.00012992462143301964,-0.0009314566850662231,0.011014372110366821,0.018980324268341064
-0.06072879955172539,-0.020522253587841988,0.017458530142903328,0.009564176201820374,0.008774429559707642,-0.014991939067840576
0.010482506826519966,-0.050325147807598114,0.03427541255950928,0.012847013771533966,0.010076940059661865,-0.0301244854927063
0.020615234971046448,-0.024108316749334335,0.01939365081489086,0.0025535449385643005,0.00855112075805664,-0.008691608905792236
0.0027528787031769753,-0.01555794570595026,0.005585316102951765,0.004678688943386078,0.011875808238983154,0.0010439753532409668
0.00707352627068758,-0.03834422305226326,0.010257545858621597,0.00935044139623642,0.008625447750091553,-0.0063506364822387695
0.02432022988796234,-0.048473190516233444,0.012524026446044445,0.006645791232585907,0.001896977424621582,-0.002302229404449463
0.024634942412376404,-0.019631199538707733,0.006274750921875238,0.003475673496723175,0.0012808442115783691,0.015710175037384033
-0.0005550985224545002,0.020771026611328125,-0.005947789177298546,0.002594470977783203,0.0017786026000976562,0.03220772743225098
-0.011647299863398075,0.03386932611465454,-0.006511581130325794,0.004303894937038422,-0.0010533928871154785,0.024560272693634033
-0.0009644923266023397,0.04685221612453461,0.013724924065172672,0.009309254586696625,-0.0019544363021850586,0.014041423797607422
0.0005201543681323528,0.05812223255634308,0.03591139242053032,0.013266034424304962,0.00393185019493103,0.011226475238800049
-0.017332345247268677,0.051798976957798004,0.059584494680166245,0.010172374546527863,0.008610904216766357,0.006910562515258789
-0.027889253571629524,-0.00706974882632494,0.06013071537017822,-0.0031356215476989746,0.003951936960220337,-0.0012142658233642578
-0.02842552214860916,-0.040280457586050034,0.0506204217672348,-0.00887966901063919,0.006861060857772827,0.0030747056007385254
-0.037915389984846115,-0.016560353338718414,0.038095872849226,-0.011888064444065094,0.007977217435836792,0.01806497573852539
-0.05119358003139496,0.036664675921201706,0.03131476044654846,-0.009909577667713165,0.0072737932205200195,0.024657487869262695
-0.04426143318414688,0.03855888545513153,0.0294813085347414,-0.012116283178329468,0.0009943842887878418,0.011538147926330566
-0.025622103363275528,0.002803269773721695,0.022376222535967827,-0.013744011521339417,0.00017878413200378418,-0.0025064945220947266
-0.01570122502744198,-0.02521122246980667,0.0025073084980249405,-0.011995874345302582,0.0022039711475372314,0.0015498995780944824
-0.01879175566136837,-0.01398450881242752,-0.0062264334410429,-0.004225201904773712,0.002649456262588501,0.003969132900238037
-0.014418183825910091,0.0014593807281926274,0.0014400859363377094,0.002892814576625824,-0.00127488374710083,0.0006307363510131836
-0.01072750799357891,-0.011792028322815895,0.017923245206475258,0.0046517327427864075,-0.009702622890472412,-0.00712960958480835
-0.01830979436635971,-0.02987409383058548,0.020864175632596016,0.002513006329536438,-0.010712474584579468,-0.00618898868560791
-0.01360904797911644,-0.03455512970685959,0.024331877008080482,0.010432682931423187,0.0005979835987091064,-0.00923842191696167
0.010336628183722496,-0.04255478084087372,0.021577712148427963,0.011282183229923248,0.003917485475540161,-0.012965977191925049
0.0388353131711483,-0.055554624646902084,0.00758483586832881,0.00755666196346283,0.005165696144104004,-0.011568248271942139
0.04461584612727165,-0.06259982287883759,-0.004438005853444338,0.00388152152299881,0.004791885614395142,0.007816851139068604
0.022767601534724236,-0.03022882714867592,0.014454744756221771,0.00779452919960022,2.1010637283325195e-05,0.026360034942626953
-0.0132637033239007,0.01918777823448181,0.03781966492533684,0.0053399428725242615,-0.0012289583683013916,0.034577369689941406
-0.030420586466789246,0.03711070120334625,0.055179137736558914,-0.0019320100545883179,0.004181325435638428,0.02244699001312256
-0.03739294037222862,0.03634440153837204,0.042421359568834305,-0.010444261133670807,0.012650549411773682,0.004531800746917725
-0.012114218436181545,0.017856203019618988,0.014788934960961342,-0.02240515500307083,0.016513824462890625,-0.017912864685058594
0.024456243962049484,-0.017136497423052788,-0.029495839029550552,-0.021712854504585266,0.023555278778076172,-0.024593651294708252
0.03080728091299534,-0.04595951363444328,-0.050157804042100906,-0.012310639023780823,0.02391141653060913,-0.01273036003112793
0.018543358892202377,-0.04527854919433594,-0.038645777851343155,-0.0036276280879974365,0.01357412338256836,0.0017868876457214355
0.01641743816435337,-0.04802173376083374,-0.009132878854870796,0.00376322865486145,0.006545811891555786,0.006710350513458252
-4.1105784475803375e-05,-0.06957490742206573,0.015450747683644295,0.0022203922271728516,0.007362693548202515,0.012372076511383057
-0.028592918068170547,-0.057314783334732056,0.007085470948368311,-0.008332356810569763,0.006238669157028198,0.016901493072509766
-0.021252835169434547,-0.04719450697302818,-0.02186420001089573,-0.013426192104816437,0.009061843156814575,0.004495561122894287
0.016582008451223373,-0.056231796741485596,-0.04077925905585289,-0.008596763014793396,0.00972360372543335,-0.008463144302368164
0.020296920090913773,-0.06121012568473816,-0.056721221655607224,-0.0036200955510139465,0.006380170583724976,0.000849604606628418
-0.0048838029615581036,-0.03087281621992588,-0.06316139549016953,0.001367136836051941,0.007868766784667969,0.015418708324432373
-0.007977994158864021,-0.001544236671179533,-0.0729762464761734,0.003287896513938904,0.0020966529846191406,0.0052751898765563965
0.015553439036011696,0.008794783614575863,-0.05927363783121109,0.012576863169670105,-2.115964889526367e-06,-0.009258866310119629
0.021569043397903442,-0.015792466700077057,-0.03901848569512367,0.017800718545913696,-0.003832489252090454,-0.015537738800048828
0.024862375110387802,-0.046812307089567184,-0.027742186561226845,0.01694813370704651,-0.0023639798164367676,-0.01411294937133789
0.03331119194626808,-0.05923699215054512,-0.034688375890254974,0.01385015994310379,0.00031489133834838867,-0.006859540939331055
0.04907738044857979,-0.0367610901594162,-0.03155429661273956,0.013836346566677094,-0.0030383169651031494,0.0032430291175842285
0.044942811131477356,-0.004013629164546728,-0.008912477642297745,0.012089595198631287,-0.006363034248352051,0.01715308427810669
0.025089941918849945,0.012823369354009628,0.012616345658898354,0.009459719061851501,-0.007222890853881836,0.024048268795013428
0.0071309818886220455,0.02514144405722618,0.03455635905265808,0.0027434751391410828,-0.0048306286334991455,0.021348416805267334
-0.0010804752819240093,0.035416822880506516,0.023482557386159897,-0.0025280192494392395,0.0022256970405578613,0.015394508838653564
0.007875673472881317,0.035130202770233154,0.008029581978917122,-0.004099622368812561,0.010953515768051147,0.00030684471130371094
0.02880977839231491,0.012336327694356441,-0.009704729542136192,-0.006901293992996216,0.013367712497711182,-0.00895833969116211
0.038599561899900436,-0.013616560027003288,-0.017057374119758606,-0.004510991275310516,0.013485193252563477,-0.004907786846160889
0.03233347833156586,-0.023759374395012856,-0.02163628116250038,-0.0034518614411354065,0.008175820112228394,0.017001807689666748
0.009783962741494179,0.005715159699320793,-0.019581388682127,-0.002814173698425293,0.005950748920440674,0.0256463885307312
0.0016531934961676598,0.028059864416718483,-0.015752676874399185,-0.0049177855253219604,0.0010355710983276367,0.016501188278198242
0.006039033178240061,0.04014572501182556,-0.01586327701807022,-0.0023812204599380493,0.003948688507080078,0.005637526512145996
0.015183323994278908,0.005612253211438656,-0.02193606086075306,-0.002255767583847046,0.00042623281478881836,0.009485423564910889
-0.0015787333250045776,-0.01275663636624813,-0.021852482110261917,-0.003849215805530548,-0.006083428859710693,0.02216404676437378
-0.03866839408874512,0.0007229597540572286,-0.01093904860317707,0.0009639859199523926,-0.003026723861694336,0.014717340469360352
-0.014703740365803242,0.00522674061357975,-0.0041483487002551556,0.002406798303127289,0.002654165029525757,-0.006033658981323242
0.009707723744213581,-0.020135387778282166,-0.003874765010550618,-0.005597740411758423,0.0042140185832977295,-0.00020265579223632812
-0.002053390257060528,-0.023842835798859596,-0.03150690719485283,-0.013281144201755524,-0.00560152530670166,1.5914440155029297e-05
-0.00012419652193784714,-0.017329810187220573,-0.037919532507658005,-0.006572365760803223,-0.009243369102478027,-0.007152915000915527
0.02600087970495224,-0.023456888273358345,-0.035420458763837814,0.0025809332728385925,-0.00552704930305481,-0.009784996509552002
0.04115339741110802,-0.017843900248408318,-0.022003550082445145,0.0025754794478416443,-0.0016616582870483398,-0.00729215145111084
0.0514698289334774,-0.0193417277187109,-0.024132750928401947,-0.003570854663848877,-0.0018456578254699707,0.00013780593872070312
0.04088815301656723,-0.02086542546749115,-0.031478699296712875,-0.006413668394088745,-0.004348576068878174,0.003770887851715088
0.043831340968608856,-0.04956284165382385,-0.03178705275058746,0.004730798304080963,0.0015391707420349121,0.0058509111404418945
0.05233081802725792,-0.03773355484008789,-0.022333666682243347,0.003868699073791504,0.0025235414505004883,0.016475319862365723
0.034735579043626785,-0.0022892788983881474,-0.024264991283416748,0.003010176122188568,0.003051459789276123,0.025449037551879883
0.011590713635087013,0.011107532307505608,-0.018307045102119446,0.00763353705406189,0.003557264804840088,0.012567758560180664
0.01658666878938675,-0.01234164647758007,-0.014744456857442856,0.0076930224895477295,0.004887223243713379,-6.961822509765625e-05
0.04216720908880234,-0.03887665271759033,-0.015771929174661636,-0.00025396794080734253,0.004302769899368286,0.007565021514892578
0.035636335611343384,-0.028379693627357483,-0.02469811961054802,-0.0036488696932792664,0.002667725086212158,0.027338385581970215
-0.0006126887165009975,0.008189240470528603,-0.02951495721936226,0.0034131035208702087,8.293986320495605e-05,0.026264071464538574
-0.009059900417923927,0.016168495640158653,-0.0114786047488451,0.009614557027816772,-0.000156402587890625,0.006724655628204346
0.0038108276203274727,-0.007169587537646294,0.009091364219784737,0.008163362741470337,0.004249691963195801,0.0007480382919311523
0.007547234185039997,-0.021342109888792038,0.009040841832756996,0.0004799067974090576,0.007771790027618408,0.00669550895690918
0.0017209039069712162,-0.019411807879805565,-0.0009317058138549328,-0.005328021943569183,0.004425168037414551,0.008336663246154785
0.005904463119804859,-0.026655957102775574,-0.009896022267639637,-0.004976339638233185,0.004742532968521118,0.009456038475036621
0.0012477952986955643,-0.03518885746598244,-0.020881254225969315,-0.00363912433385849,0.002568870782852173,0.018462538719177246
-0.0010467839892953634,-0.024484816938638687,-0.022471696138381958,-0.003087736666202545,-0.00041177868843078613,0.02475064992904663
-0.01800772361457348,0.008289162069559097,-0.013966148719191551,-0.0011936798691749573,-0.0035453438758850098,0.024428486824035645
-0.04235661029815674,0.020283518359065056,-0.006139879114925861,0.008383572101593018,0.002079010009765625,0.00851970911026001
-0.03814069181680679,-0.0020648264326155186,0.010426733642816544,0.009282611310482025,0.0032993555068969727,-0.012330710887908936
-0.004704172722995281,-0.024458428844809532,0.0006999927572906017,-0.00291500985622406,0.0018797516822814941,-0.01430433988571167
0.004784604534506798,-0.038965001702308655,-0.021313942968845367,-0.0034663453698158264,0.002980470657348633,0.001943349838256836
-0.002414252609014511,-0.025287220254540443,-0.03634381294250488,0.00879618525505066,-0.0018610358238220215,0.012402832508087158
-0.010420314967632294,-0.002110418165102601,-0.02019343711435795,0.02144719660282135,-0.004926621913909912,0.013800859451293945
-0.002272565383464098,-0.00012957444414496422,0.009025640785694122,0.020923636853694916,-0.005216419696807861,0.012304484844207764
-0.005968442186713219,0.0010003166971728206,0.032638467848300934,0.014280043542385101,-0.003113090991973877,0.02376723289489746
-0.026891957968473434,0.0018574628047645092,0.04593060165643692,0.006845533847808838,0.004416853189468384,0.02693086862564087
-0.03537386655807495,0.005592126399278641,0.0346139632165432,-0.0024051666259765625,0.00785115361213684,0.023427844047546387
-0.04068194329738617,0.012851475737988949,0.019513189792633057,-0.008303813636302948,0.0011225640773773193,0.021488487720489502
-0.08146346360445023,-4.621362313628197e-05,0.03073335438966751,-0.006349422037601471,0.0038610100746154785,0.01873999834060669
-0.13428792357444763,-0.057619865983724594,0.03629494830965996,0.0019875764846801758,0.012851893901824951,-0.00905311107635498
-0.08821196854114532,-0.0729939267039299,0.0323173813521862,-0.0017393231391906738,0.016120612621307373,-0.028211653232574463
0.00034652650356292725,-0.028849054127931595,0.004336001351475716,-0.009934298694133759,0.007597625255584717,-0.015053391456604004
0.03653770685195923,0.040892958641052246,-0.013893083669245243,-0.006803885102272034,-0.0007975995540618896,0.010427713394165039
-0.0014947277959436178,0.052802249789237976,-0.003212247509509325,0.0020484626293182373,-0.0018970370292663574,0.023254454135894775
-0.04553774744272232,-0.0017631574301049113,0.017238831147551537,0.0064492374658584595,0.00010323524475097656,0.010204076766967773
-0.05876793712377548,-0.027428090572357178,0.034442927688360214,0.00671745091676712,0.0019763410091400146,-0.0007957220077514648
-0.03625129908323288,-0.0047337026335299015,0.03358028829097748,0.006934277713298798,0.0015347301959991455,-0.007185637950897217
-0.0015072384849190712,0.04321156069636345,0.0333373136818409,0.0051657333970069885,0.001370459794998169,-0.011883378028869629
0.018805354833602905,0.03944867476820946,0.03244340419769287,0.007463231682777405,0.006255537271499634,-0.004700720310211182
0.007298165466636419,0.009213811717927456,0.03771089389920235,0.008389636874198914,0.005030840635299683,0.009800493717193604
-0.021174224093556404,-0.0035866149701178074,0.05116061866283417,0.004916295409202576,0.0004566311836242676,0.015299618244171143
-0.020259089767932892,0.013983424752950668,0.058141160756349564,0.0013572350144386292,0.005334705114364624,0.012662529945373535
-0.009581215679645538,0.03211859613656998,0.04682609438896179,-0.0015857964754104614,0.010922789573669434,0.01353907585144043
-0.0007891710847616196,0.032655373215675354,0.03538118675351143,-0.0050237104296684265,0.007933646440505981,0.019244849681854248
-0.013554984703660011,0.017775924876332283,0.03947331756353378,-0.0059464722871780396,0.008427947759628296,0.0286826491355896
-0.06052302569150925,0.023956380784511566,0.05440375953912735,-0.0055330172181129456,0.011869937181472778,0.023621857166290283
-0.07599832117557526,0.022641202434897423,0.06737824529409409,-0.009446442127227783,0.0097675621509552,-0.0020210742950439453
-0.045352719724178314,0.01746944710612297,0.0671546682715416,-0.02000962197780609,0.01146969199180603,-0.020221054553985596
-0.016561830416321754,-0.004994680173695087,0.04004330933094025,-0.02776774764060974,0.014882862567901611,-0.011553645133972168
-0.023453623056411743,-0.0032372078858315945,0.0006628232076764107,-0.027562282979488373,0.015893399715423584,-0.003145456314086914
-0.028289061039686203,-0.00850833673030138,-0.02481166273355484,-0.019284039735794067,0.007744967937469482,-0.011884808540344238
-0.006026212126016617,-0.02069338969886303,-0.01946389302611351,-0.0098501518368721,0.003124415874481201,-0.012156367301940918
0.001390005461871624,-0.03237052634358406,-0.02235356532037258,-0.003606542944908142,0.0009605884552001953,-0.007589101791381836
0.0054571907967329025,-0.043634332716464996,-0.02051609754562378,4.0821731090545654e-05,-0.003143519163131714,-0.004378199577331543
0.015971079468727112,-0.04556329548358917,-0.01885896548628807,0.0013915449380874634,-0.008996814489364624,0.002228677272796631
0.022289162501692772,-0.039853744208812714,-0.017603551968932152,0.010709352791309357,-0.0013925135135650635,0.01600736379623413
0.01828092709183693,-0.015288717113435268,-0.016196519136428833,0.011991478502750397,-0.00035646557807922363,0.027706623077392578
0.005649731960147619,0.024864593520760536,-0.00565185584127903,0.014117509126663208,8.71419906616211e-05,0.03246337175369263
-0.014498677104711533,0.055744245648384094,0.007958381436765194,0.01708749681711197,0.0024408698081970215,0.022143185138702393
-0.0297342911362648,0.042402878403663635,0.038250263780355453,0.012990936636924744,0.0032264292240142822,0.002210557460784912
-0.03788541257381439,-0.017558475956320763,0.05410157889127731,0.004336610436439514,0.010996460914611816,-0.010383307933807373
-0.02736513875424862,-0.04432414099574089,0.039404019713401794,-0.011801309883594513,0.017640620470046997,-0.010656952857971191
-0.006192939355969429,-0.04098278284072876,-0.0033180532045662403,-0.019668996334075928,0.017483502626419067,-0.004685699939727783
-0.0011455214116722345,-0.029278557747602463,-0.036696646362543106,-0.013400450348854065,0.010128229856491089,0.011701226234436035
-0.03243859112262726,0.007434230297803879,-0.039952438324689865,-0.006001293659210205,-0.0023253262042999268,0.014049530029296875
-0.04029218107461929,0.03119830973446369,-0.017804432660341263,0.005486153066158295,0.0009940862655639648,-0.007846057415008545
-0.004897966515272856,-0.01759996823966503,-0.014700447209179401,0.006136156618595123,0.001469433307647705,-0.021658658981323242
0.03111135959625244,-0.0437973216176033,-0.025903163477778435,0.002311982214450836,-0.003137648105621338,-0.0015456676483154297
0.025209655985236168,-0.02151470072567463,-0.045380908995866776,0.0004913583397865295,-0.012677103281021118,0.017700374126434326
0.006502554286271334,0.026324082165956497,-0.034991052001714706,0.011954613029956818,-0.013112485408782959,0.017960011959075928
-0.0012264128308743238,0.022605035454034805,-0.004054720513522625,0.018947914242744446,-0.011347919702529907,0.0006078481674194336
0.015265274792909622,-0.009143714793026447,0.031088298186659813,0.014733463525772095,-0.004166305065155029,-0.008238017559051514
0.025978509336709976,-0.025799138471484184,0.042969152331352234,0.002878628671169281,0.0020452141761779785,-0.00160980224609375
0.020219091325998306,0.0020905453711748123,0.03021152690052986,-0.0073152706027030945,0.006860494613647461,-0.0016234517097473145
0.02637418732047081,-0.002562206471338868,0.014711624942719936,-0.002767406404018402,0.016294240951538086,-0.011637568473815918
0.05252918228507042,-0.04403359815478325,0.007157040759921074,-0.003732450306415558,0.014254331588745117,-0.0063294172286987305
0.04448741674423218,-0.04970692843198776,0.0019711358472704887,-0.005274318158626556,0.013695389032363892,0.020707011222839355
0.0064120814204216,-0.016808370128273964,-0.00935852900147438,-0.002424687147140503,0.0123806893825531,0.027354121208190918
-0.010458119213581085,-0.004643634893000126,-0.01282401941716671,0.004572562873363495,0.011936783790588379,0.013689398765563965
0.0043436577543616295,-0.03003511391580105,-0.011624394915997982,0.006775714457035065,0.006577581167221069,0.008379161357879639
0.005740348249673843,-0.038847293704748154,-0.012414743192493916,0.006247468292713165,0.0028556883335113525,0.01998239755630493
-0.018724439665675163,-0.013810340315103531,-0.011233731172978878,0.011106722056865692,-0.0012739598751068115,0.024329185485839844
-0.021511876955628395,0.013247323222458363,-0.004148960113525391,0.013823173940181732,-0.0025121569633483887,0.01440417766571045
-0.010887219570577145,0.01980743184685707,0.012137731537222862,0.012560002505779266,-0.004599124193191528,0.001696944236755371
-0.004754155874252319,0.013172592036426067,0.019169367849826813,0.007309772074222565,-0.003913551568984985,-0.001117408275604248
0.004744351375848055,0.0021141888573765755,0.01071582268923521,0.0006311163306236267,-0.0033749938011169434,-0.0053209662437438965
0.014255473390221596,-0.020488742738962173,0.012022632174193859,0.002203322947025299,-0.0016552209854125977,-0.001401364803314209
0.011121004819869995,-0.029387062415480614,0.02350444905459881,0.0049742162227630615,-0.0029096603393554688,0.006734311580657959
0.007013820577412844,-0.021348899230360985,0.035496413707733154,0.0008599758148193359,-0.004428893327713013,0.0066481828689575195
0.01269495114684105,-0.0018928032368421555,0.04250730574131012,-0.0009123757481575012,0.00022530555725097656,0.009679853916168213
0.005473644006997347,0.00233762850984931,0.04491937905550003,-0.0059202685952186584,0.002060830593109131,0.010005414485931396
-0.0016737475525587797,-0.003580181859433651,0.04303332790732384,-0.011312417685985565,0.003339141607284546,0.0016797780990600586
0.011043519712984562,-0.0211159810423851,0.030123043805360794,-0.00901859998703003,0.008951336145401001,-0.004603445529937744
0.030083704739809036,-0.04289551451802254,0.020211853086948395,-0.012454137206077576,0.010228186845779419,0.0028144121170043945
0.03590945899486542,-0.032176673412323,0.006853707134723663,-0.013833463191986084,0.012002140283584595,0.019079148769378662
0.011549526825547218,-0.023677727207541466,-0.002267619827762246,-0.01220826804637909,0.009983807802200317,0.03317612409591675
-0.030056262388825417,-0.002547668293118477,-0.0012744369450956583,-0.011401355266571045,0.006105512380599976,0.03272157907485962
-0.055898576974868774,0.010434173047542572,-0.003639611881226301,-0.011070996522903442,0.008547991514205933,0.013657331466674805
-0.04270359128713608,0.011835525743663311,-0.016583707183599472,-0.009721875190734863,0.009158194065093994,-0.001095414161682129
-0.020941708236932755,0.0011625345796346664,-0.034258194267749786,-0.01029554009437561,0.005953967571258545,-0.0050771236419677734
-0.009371759369969368,-0.025187943130731583,-0.056253302842378616,-0.009313017129898071,0.0014074146747589111,0.0034128427505493164
-0.018112435936927795,-0.030996359884738922,-0.06332988291978836,-0.0015144497156143188,0.0009465217590332031,0.018187284469604492
-0.03944263607263565,-0.01598917879164219,-0.05772814899682999,0.003699958324432373,-0.00964406132698059,0.024966776371002197
-0.06824886053800583,0.04390650615096092,-0.027490384876728058,0.007718697190284729,-0.013404995203018188,0.010619163513183594
-0.0594395212829113,0.05145954340696335,0.00016327202320098877,0.007163554430007935,-0.003881514072418213,-0.019290685653686523
-0.01385745033621788,0.00497746467590332,0.000380602665245533,-0.0004902780055999756,0.009919047355651855,-0.025803744792938232
0.008960726670920849,-0.033790018409490585,-0.03308356553316116,-0.013729512691497803,0.007953435182571411,-0.010378360748291016
0.011265486478805542,-0.039010610431432724,-0.06269043684005737,-0.016947001218795776,0.002332359552383423,0.007586836814880371
-0.0003459078725427389,-0.02477126196026802,-0.06963344663381577,-0.010254859924316406,0.0014791488647460938,0.01841503381729126
-0.022637853398919106,0.006752887740731239,-0.05622677505016327,-0.0057161301374435425,0.007461458444595337,0.016460180282592773
-0.03044404648244381,0.024212785065174103,-0.054735876619815826,-0.00805509090423584,0.0063533782958984375,-0.002912163734436035
-0.001743522472679615,-0.002949012443423271,-0.058787308633327484,-0.006416350603103638,0.011543899774551392,-0.013921856880187988
0.009380829520523548,-0.03424355015158653,-0.07117071747779846,-0.008739396929740906,0.010701388120651245,-0.001360774040222168
0.001555482391268015,-0.029949471354484558,-0.0871255174279213,-0.0040024518966674805,0.010293722152709961,0.010473251342773438
-0.006886553484946489,-0.01751708984375,-0.09515697509050369,0.0007612407207489014,0.0038950741291046143,0.0106126070022583
-0.005707289557904005,-0.01424129493534565,-0.0931970551609993,0.007554307579994202,0.0009199380874633789,0.01195216178894043
-0.009965638630092144,-0.024151287972927094,-0.08202970027923584,0.011267200112342834,-5.128979682922363e-05,0.015055418014526367
-0.018517784774303436,-0.008159534074366093,-0.07306867837905884,0.010104343295097351,-0.0039743781089782715,0.01737356185913086
-0.029571348801255226,0.016303084790706635,-0.06642592698335648,0.011528030037879944,-0.007095813751220703,0.01166391372680664
-0.027214396744966507,0.015612048096954823,-0.0514986515045166,0.0125102698802948,-0.006277620792388916,0.00413060188293457
-0.02374756895005703,0.0025542585644870996,-0.04470003396272659,0.009023785591125488,-0.004276573657989502,0.0019139647483825684
-0.017132673412561417,0.0037399460561573505,-0.04537203162908554,0.006309732794761658,-0.0026433467864990234,0.0011594891548156738
-0.01688670739531517,0.02915012091398239,-0.04088617488741875,0.007339775562286377,-0.003223329782485962,-0.007443249225616455
-0.007776577491313219,0.02790546603500843,-0.03537776321172714,0.002534635365009308,-0.0015571415424346924,-0.02046746015548706
0.015239076688885689,0.003757573664188385,-0.04261660575866699,-0.0014088451862335205,0.00021752715110778809,-0.025711238384246826
0.03741725534200668,-0.02700720727443695,-0.06167175620794296,-0.0001699104905128479,0.0026831626892089844,-0.018236219882965088
0.05274900794029236,-0.03697850927710533,-0.06698086112737656,0.0040125250816345215,0.0023028552532196045,-0.005030930042266846
0.05398193374276161,-0.03036380745470524,-0.061095815151929855,0.006258420646190643,0.0016931593418121338,0.012889623641967773
0.04356583580374718,-0.01448710449039936,-0.05079415440559387,0.006054379045963287,0.002895951271057129,0.02154862880706787
0.021125584840774536,-0.003563777543604374,-0.03806837648153305,0.0075437575578689575,0.004870116710662842,0.020998060703277588
0.0157010480761528,-0.016647033393383026,-0.024957647547125816,0.006826668977737427,0.005922049283981323,0.015380501747131348
0.00891273096203804,-0.01521739736199379,-0.013400431722402573,0.005192473530769348,0.009181112051010132,0.011028110980987549
0.021586572751402855,-0.009812830947339535,-0.019242526963353157,-0.0011726468801498413,0.012249737977981567,0.008983075618743896
0.029926668852567673,-0.013058372773230076,-0.040319398045539856,-0.0014351382851600647,0.010269254446029663,0.02172905206680298
0.00514986552298069,-0.01582113280892372,-0.048575930297374725,0.0031797513365745544,0.006679654121398926,0.03231281042098999
-0.03234250843524933,0.006622973829507828,-0.041488803923130035,0.013930410146713257,0.007105141878128052,0.02585071325302124
-0.043110281229019165,0.027268873527646065,-0.019286764785647392,0.018470168113708496,0.0024682581424713135,0.004513740539550781
-0.029690876603126526,0.023288190364837646,-0.0037410566583275795,0.017451748251914978,0.0013439953327178955,-0.011545121669769287
-0.004194022621959448,0.0163139495998621,-0.0015198385808616877,0.008204273879528046,-0.0005391836166381836,-0.009189844131469727
0.001590292900800705,-0.010129800997674465,-0.01736147701740265,0.008812591433525085,0.003825634717941284,-0.0016971230506896973
0.008410142734646797,-0.019050266593694687,-0.025240305811166763,0.00834868848323822,0.0019783079624176025,0.009562015533447266
-0.00848398357629776,0.002990103093907237,-0.02914339490234852,0.00706210732460022,-0.008534252643585205,0.019684314727783203
-0.025470685213804245,0.02767036110162735,-0.014672275632619858,0.008833900094032288,-0.013043016195297241,0.015972495079040527
-0.03886936604976654,0.057896655052900314,0.016600435599684715,0.012332983314990997,-0.008055388927459717,0.0001952648162841797
-0.024294888600707054,0.04554113373160362,0.027229968458414078,0.010241657495498657,0.00546032190322876,-0.02175319194793701
0.02441343665122986,0.0073134321719408035,0.009853905066847801,-9.655952453613281e-05,0.005736738443374634,-0.023826122283935547
0.05551378056406975,-0.02369125746190548,-0.008824623189866543,-0.009168021380901337,-0.0034137368202209473,-0.00378262996673584
0.05150145664811134,-0.024743152782320976,-0.003389412071555853,-0.00487855076789856,-0.004394322633743286,0.018051207065582275
0.021320050582289696,-0.002492599654942751,0.016099506989121437,-0.0015083998441696167,0.001984715461730957,0.027852535247802734
-0.0069172997027635574,0.03422946110367775,0.02292540855705738,-0.009614750742912292,0.003633350133895874,0.017611384391784668
0.0001021367497742176,0.028734615072607994,0.02127522975206375,-0.010712727904319763,0.006318986415863037,0.0016024112701416016
0.015295582823455334,-0.003868282772600651,0.012355519458651543,-0.00917438417673111,0.008873015642166138,-0.002552509307861328
0.018746433779597282,-0.018673697486519814,0.011891203001141548,-0.007258988916873932,0.01523938775062561,0.0060593485832214355
-0.0044226087629795074,0.006715771742165089,0.0004407735541462898,-0.011444412171840668,0.01400822401046753,0.005938470363616943
0.0032117608934640884,0.00103081448469311,-0.016727762296795845,-0.007345631718635559,0.011745929718017578,-0.008807241916656494
0.03303861618041992,-0.029149504378437996,-0.01591111347079277,-0.0055859386920928955,0.009107470512390137,-0.00359952449798584
0.029177436605095863,-0.03917093202471733,-0.029425134882330894,-0.005129098892211914,0.008640021085739136,0.01954585313796997
0.0020281015895307064,-0.00981958582997322,-0.038687948137521744,-0.002047821879386902,0.004537224769592285,0.031717777252197266
-0.021375780925154686,0.023113751783967018,-0.03302691504359245,0.007739454507827759,-0.001108318567276001,0.01879340410232544
-0.013685730285942554,0.021412786096334457,-0.0032332581467926502,0.011146925389766693,-0.0036386847496032715,0.0022367238998413086
-0.0027347509749233723,0.00023959018290042877,0.008622624911367893,0.0059454962611198425,0.0002441108226776123,0.0020716190338134766
-0.004592034500092268,-0.009926814585924149,0.0005167964845895767,0.0035574212670326233,0.004998713731765747,0.008620500564575195
-0.01130664348602295,0.007702355273067951,-0.003899954492226243,0.00322549045085907,0.0022682547569274902,0.007542788982391357
-0.007307669147849083,0.010034485720098019,0.0018688132986426353,0.004351228475570679,-0.0005221962928771973,-0.0007002353668212891
0.0027565029449760914,-0.016312168911099434,0.010100041516125202,0.004799962043762207,0.0029119253158569336,-0.002232193946838379
0.011113481596112251,-0.02972176857292652,0.005229247268289328,7.783621549606323e-05,0.004191398620605469,0.002812623977661133
-0.0008993144147098064,-0.008920392021536827,0.005401172675192356,-0.0011844485998153687,0.00314486026763916,0.01376885175704956
-0.007788289338350296,0.0012053580721840262,0.012117619626224041,0.0017428919672966003,0.0018121600151062012,0.011953532695770264
-0.0031308173201978207,-0.014256315305829048,0.017277643084526062,0.0009286105632781982,-0.0003186166286468506,0.009215235710144043
-0.0006550834514200687,-0.010523363016545773,0.010801924392580986,-0.004308007657527924,-0.00034883618354797363,0.013379514217376709
-0.016882769763469696,0.020400308072566986,0.0021582040935754776,-0.0036222562193870544,0.003116786479949951,0.02085775136947632
-0.02865416184067726,0.03662678599357605,0.004952616058290005,0.002110600471496582,0.0014650225639343262,0.012798011302947998
-0.016459204256534576,0.016565032303333282,0.012809334322810173,0.0009791254997253418,-0.001805126667022705,-0.005891025066375732
0.0004074797034263611,-0.013356853276491165,0.006001918576657772,-0.0015108510851860046,-2.1457672119140625e-05,-0.014530420303344727
0.014208209700882435,-0.02410345897078514,-0.013872390612959862,-0.0024228915572166443,0.0042937397956848145,-0.005609333515167236
0.010755697265267372,-0.010261520743370056,-0.02282666601240635,0.0022945255041122437,0.0025361180305480957,0.007294297218322754
0.012265237048268318,0.00017940264660865068,-0.009090058505535126,0.011588744819164276,-0.000743865966796875,0.012180626392364502
0.003997535910457373,0.003907348960638046,0.015227957628667355,0.012757524847984314,-0.0048972368240356445,0.018456697463989258
-0.01100241020321846,0.01277456246316433,0.02692391164600849,0.0066103339195251465,-0.0003674030303955078,0.023319661617279053
-0.01620219647884369,-0.0029171579517424107,0.012465053237974644,-2.890080213546753e-05,0.00412750244140625,0.019674181938171387
-0.0360393188893795,0.007306769955903292,0.004886289592832327,-0.0048726946115493774,-0.0005412697792053223,0.020888030529022217
-0.062012724578380585,0.039013881236314774,0.01007511280477047,0.0015058442950248718,0.0005639195442199707,0.011857926845550537
-0.021064531058073044,0.0270548015832901,0.016905400902032852,0.00899842381477356,0.005846470594406128,-0.020749032497406006
0.03929135203361511,-0.02298557013273239,0.008748787455260754,0.003648214042186737,0.009295284748077393,-0.029726386070251465
0.03559060022234917,-0.0291306022554636,-0.012122277170419693,-0.007240980863571167,0.0005107522010803223,0.020996570587158203
-0.02093948982656002,0.008113708347082138,-0.013439572416245937,0.001620277762413025,-0.003872811794281006,0.030096471309661865
-0.03806205093860626,0.031734880059957504,0.004368282854557037,0.008717529475688934,-0.005806326866149902,0.0025485754013061523
-0.004066364374011755,0.019731059670448303,0.027887243777513504,0.007689729332923889,-0.0008665919303894043,-0.00876760482788086
0.019375499337911606,-0.000461139774415642,0.027346231043338776,0.00016545504331588745,0.002430468797683716,0.0020322799682617188
-0.0024463911540806293,0.01303101796656847,0.016613684594631195,-0.0025145485997200012,0.004993051290512085,0.011971831321716309
-0.013228216208517551,0.021664734929800034,0.0062277596443891525,0.0018556788563728333,0.007221102714538574,0.0003827810287475586
0.0012765638530254364,0.0022369632497429848,0.0065216789953410625,0.006191685795783997,0.007067739963531494,-0.006034135818481445
0.02190808579325676,-0.015011162497103214,0.009590545669198036,0.0010483264923095703,0.0038064420223236084,0.006544709205627441
0.004648607689887285,0.00828595831990242,0.008827490732073784,0.0017719194293022156,0.0069799721240997314,0.021285593509674072
-0.018569640815258026,0.027665620669722557,-0.0018449292983859777,0.0053017884492874146,0.005881756544113159,0.015276551246643066
-0.007672097533941269,0.01805768348276615,0.003916273824870586,0.0071860626339912415,0.002205371856689453,0.0066773295402526855
-0.0026968070305883884,0.014178791083395481,0.018003158271312714,0.006124243140220642,-6.511807441711426e-05,0.01401662826538086
-0.019048258662223816,0.02615789882838726,0.029159901663661003,0.00457686185836792,0.00016999244689941406,0.014603734016418457
-0.027711722999811172,0.03555640950798988,0.037851717323064804,0.004539951682090759,0.0005529224872589111,0.0024433135986328125
-0.011118955910205841,0.017284462228417397,0.04698047786951065,0.0006363838911056519,0.0034286677837371826,-0.006349682807922363
0.011757727712392807,0.01769527979195118,0.04626074060797691,-0.009765863418579102,0.0025708377361297607,0.0009041428565979004
0.005272930022329092,0.004386665765196085,0.024778619408607483,-0.010419845581054688,0.010794609785079956,0.01130741834640503
-0.01546119898557663,-0.004139179363846779,0.019315483048558235,-0.008139483630657196,0.004933834075927734,0.00894707441329956
-0.019900059327483177,-0.015036351978778839,0.022534940391778946,-0.005714930593967438,0.0012014210224151611,0.001850128173828125
-0.004077355843037367,-0.012500809505581856,0.027799267321825027,-0.004368402063846588,0.006393164396286011,0.0017489194869995117
0.011954119428992271,-0.005741071421653032,0.030347073450684547,-0.010482080280780792,0.004732608795166016,0.005886256694793701
0.012140601873397827,-0.009072684682905674,0.01188446395099163,-0.01426713913679123,0.0059442222118377686,0.012770235538482666
-0.004097036086022854,-0.017781207337975502,0.0027573942206799984,-0.008967258036136627,0.003687918186187744,0.016718685626983643
-0.027253268286585808,-0.009234286844730377,0.011150683276355267,-0.003137730062007904,-0.003269761800765991,0.007563889026641846
-0.017818689346313477,-0.005061432719230652,0.029230674728751183,-0.0007886067032814026,-0.00019755959510803223,-0.00530928373336792
0.0026885103434324265,-0.021747201681137085,0.029433097690343857,-0.008209675550460815,0.0030662119388580322,-0.005881786346435547
0.015101585537195206,-0.02766921930015087,0.01200793031603098,-0.008444026112556458,0.004899650812149048,0.004394233226776123
-0.0028195446357131004,-0.017136573791503906,0.0020816545002162457,-0.0006679072976112366,0.003938108682632446,0.009922027587890625
-0.012470170855522156,-0.005322417244315147,0.006689073052257299,0.00411253422498703,0.0014397799968719482,0.0001875162124633789
0.0005083922296762466,-0.0161447636783123,0.023075612261891365,0.0015925094485282898,0.002349764108657837,-0.0068056583404541016
0.019789934158325195,-0.043528612703084946,0.014401094987988472,-0.0024131163954734802,0.007101565599441528,0.00380861759185791
0.015998071059584618,-0.029566243290901184,-0.004834108054637909,-0.004017472267150879,0.008710533380508423,0.02060920000076294
0.0006103916093707085,0.00757601298391819,-0.01300010085105896,-0.00031084567308425903,0.005156874656677246,0.022376179695129395
-0.0023200081195682287,0.01980290561914444,-0.009523160755634308,0.00555681437253952,0.004169762134552002,0.017009079456329346
-0.016723424196243286,-0.002824258990585804,0.005291568581014872,0.0029594451189041138,0.0006659924983978271,0.017726540565490723
-0.05175235494971275,0.006546167656779289,0.013878941535949707,0.002717837691307068,0.0014541447162628174,0.0067147016525268555
-0.0433214046061039,0.00609136838465929,0.014596477150917053,0.004279822111129761,0.006407231092453003,-0.019222617149353027
0.010571074672043324,-0.0142780477181077,0.008053959347307682,0.0061064958572387695,0.00932854413986206,-0.02134084701538086
0.030466221272945404,-0.028593603521585464,0.0022956724278628826,0.0021860450506210327,0.00396689772605896,0.0009006857872009277
0.011723315343260765,-0.013478081673383713,-0.0007544625550508499,-0.006829746067523956,-0.006782233715057373,0.012700974941253662
0.0011498243547976017,-0.015728455036878586,0.0004325341433286667,-0.0024018511176109314,-0.002668440341949463,0.011159718036651611
0.004904141183942556,-0.016929542645812035,0.002196104731410742,0.003277212381362915,0.0023934543132781982,0.011854290962219238
0.006942565552890301,0.010486915707588196,0.010497072711586952,0.0013684183359146118,-0.001322239637374878,0.013944149017333984
-0.017008543014526367,0.0372941754758358,0.027117257937788963,0.0006555095314979553,0.00023934245109558105,0.0026323795318603516
-0.013248296454548836,0.008808097802102566,0.03352174535393715,-0.001981794834136963,0.004609197378158569,-0.02161264419555664
0.02233198657631874,-0.034676581621170044,0.022145358845591545,-0.007669530808925629,0.011395394802093506,-0.019231855869293213
0.033015619963407516,-0.03820691630244255,-0.011354583315551281,-0.007782429456710815,0.0109424889087677,0.0005171895027160645
0.022125912830233574,-0.01649346761405468,-0.030331481248140335,-0.0005662962794303894,0.005146980285644531,0.01087498664855957
0.012260395102202892,0.00013215874787420034,-0.018415605649352074,0.008169211447238922,0.002871274948120117,0.006810009479522705
0.024760257452726364,-0.019961819052696228,-0.01338680274784565,0.007661208510398865,0.0022517144680023193,0.009509503841400146
0.020060060545802116,-0.018957166001200676,-0.01325886882841587,0.008857302367687225,0.002875417470932007,0.022962749004364014
-6.519351154565811e-05,0.016144465655088425,-0.015495991334319115,0.012783683836460114,-0.0004038214683532715,0.02519524097442627
-0.0012465447653084993,0.041135359555482864,0.010324288159608841,0.015930235385894775,-0.0040995776653289795,0.011501014232635498
0.005876604467630386,0.024676011875271797,0.03388737142086029,0.011869899928569794,-0.0009507536888122559,0.0013815760612487793
0.006150299217551947,-0.007776312064379454,0.03561084344983101,0.002540886402130127,0.002796649932861328,0.0013666749000549316
-0.001438443548977375,-0.014146273955702782,0.025151221081614494,-0.002110905945301056,0.002012103796005249,0.003695070743560791
0.005091024097055197,-0.004218169488012791,0.015670277178287506,-0.0018854215741157532,0.0013650357723236084,0.0014870166778564453
0.01326833851635456,0.00437196483835578,0.018327170982956886,-0.001227833330631256,0.0024811625480651855,0.00044459104537963867
0.017258286476135254,0.000954596558585763,0.027481786906719208,-0.005306519567966461,0.0018665492534637451,-0.0020801424980163574
0.019459029659628868,-0.013364633545279503,0.016591092571616173,-0.010118931531906128,0.005804091691970825,-0.00021958351135253906
0.024316871538758278,-0.03983645513653755,-0.005805680062621832,-0.012490145862102509,0.005386471748352051,0.0090409517288208
0.015015903860330582,-0.037211429327726364,-0.019946981221437454,-0.006706349551677704,0.00012671947479248047,0.01606065034866333
0.009729860350489616,-0.013727197423577309,-0.009028760716319084,0.0009248331189155579,-0.0008446574211120605,0.016877710819244385
0.003954582381993532,0.0029389162082225084,0.0073496694676578045,0.00044396519660949707,-0.0006032288074493408,0.01193535327911377
0.0069297924637794495,0.006544324569404125,0.006524200551211834,-0.005282238125801086,0.0024330317974090576,0.005768418312072754
0.012643668800592422,-0.018718600273132324,-0.007930288091301918,-0.0073691606521606445,0.0050370097160339355,0.007031500339508057
0.0012159226462244987,-0.03700146824121475,-0.019951043650507927,-0.0015188753604888916,0.0062634944915771484,0.01003408432006836
-0.009510709904134274,-0.044206954538822174,-0.02344704605638981,0.0020032525062561035,0.0020051002502441406,0.007529199123382568
-0.0018632758874446154,-0.042083363980054855,-0.014555736444890499,0.005619436502456665,-0.0006914138793945312,0.0072005391120910645
0.00989474356174469,-0.013198493979871273,-0.007013418711721897,0.006581887602806091,0.0021035075187683105,0.009520769119262695
0.00921001099050045,0.006047572009265423,-0.005200467072427273,0.005314230918884277,0.001282036304473877,0.007476091384887695
0.006713991519063711,-0.014089164324104786,-0.004263320472091436,0.003714725375175476,0.0019598007202148438,0.0033057332038879395
0.003934402950108051,-0.042275965213775635,-0.008902514353394508,0.0020796507596969604,0.0032761991024017334,0.009747803211212158
-0.009547976776957512,-0.02917289361357689,-0.014921605587005615,0.0009809136390686035,0.0035423338413238525,0.019150257110595703
-0.018762046471238136,0.003289761021733284,-0.014360535889863968,0.007017791271209717,0.0032985806465148926,0.01278465986251831
-0.010826531797647476,-0.005522100254893303,-0.0010274946689605713,0.010285437107086182,0.0018966197967529297,0.007654726505279541
-0.023359578102827072,-0.006101607345044613,0.009910399094223976,0.00046671926975250244,-0.0016328096389770508,0.011673808097839355
-0.0471075102686882,0.02017575316131115,0.009385522454977036,0.001083657145500183,0.009321242570877075,-0.0004742145538330078
-0.022379865869879723,0.01116904616355896,-0.013716425746679306,0.001663699746131897,0.009935557842254639,-0.025826871395111084
0.03278858959674835,-0.03753222897648811,-0.027718760073184967,-0.0004424750804901123,0.004245400428771973,-0.016398251056671143
0.03573169931769371,-0.04685164988040924,-0.0367673896253109,9.137392044067383e-05,-0.00014790892601013184,0.018554091453552246
-0.013757634907960892,-0.013701526448130608,-0.029016917571425438,0.0073316097259521484,-0.0010561048984527588,0.031256020069122314
-0.035158611834049225,0.027663230895996094,-0.012937217950820923,0.011794552206993103,-0.0009635984897613525,0.014921903610229492
-0.02867162972688675,0.04252559319138527,0.007465299218893051,0.00802980363368988,0.0018793940544128418,-0.007678985595703125
0.0005369186401367188,0.02410631626844406,0.009540759027004242,7.894635200500488e-05,0.006081312894821167,-0.02003777027130127
0.015375014394521713,-0.009864496998488903,0.006442063953727484,-0.004930287599563599,0.009682953357696533,-0.015055596828460693
0.01330324076116085,-0.025734372437000275,-0.011924942024052143,-0.00811074674129486,0.011560976505279541,-0.006037473678588867
0.022420601919293404,-0.019375424832105637,-0.029132597148418427,-0.006280824542045593,0.01035335659980774,0.0022627711296081543
0.02547963708639145,-0.006432569585740566,-0.037431154400110245,-0.004286736249923706,0.004147082567214966,0.012240707874298096
0.01882362738251686,0.008451981469988823,-0.036893799901008606,0.0015360862016677856,0.0022219717502593994,0.019575655460357666
-0.0006058437284082174,0.005163783673197031,-0.026428692042827606,0.006478011608123779,0.0008643567562103271,0.019916534423828125
-0.011841341853141785,0.00843573547899723,-0.007907154969871044,0.008451327681541443,-0.0036021173000335693,0.018865764141082764
-0.018359960988163948,0.02558942325413227,0.008959176950156689,0.0030623674392700195,-0.006310552358627319,0.0086212158203125
-0.004073360934853554,0.023866519331932068,0.011562774889171124,-0.0016804486513137817,-0.0009703934192657471,0.0008668899536132812
0.007494023069739342,0.019600139930844307,0.0007614996284246445,-0.007029205560684204,0.0019353628158569336,0.0028789639472961426
0.0007055443711578846,0.010172703303396702,-0.01413288526237011,-0.00847470760345459,0.000702589750289917,0.0042504072189331055
-0.004519440233707428,0.011313708499073982,-0.01421342883259058,-0.00889626145362854,0.0010856389999389648,-0.0024982690811157227
0.002629098016768694,0.017556270584464073,-0.021241389214992523,-0.009423092007637024,0.0025162994861602783,-0.010846138000488281
0.018494274467229843,0.00676817586645484,-0.02896704152226448,-0.006707578897476196,0.0040091872215271,-0.011121928691864014
0.027432512491941452,-0.017817219719290733,-0.028993524610996246,-0.005990378558635712,0.0037100017070770264,-0.0026654601097106934
0.024745061993598938,-0.013192901387810707,-0.02528483420610428,-0.002775050699710846,0.005659312009811401,0.008892297744750977
0.011257177218794823,-0.0014070961624383926,-0.02991623431444168,-0.005758374929428101,0.004958301782608032,0.009890854358673096
0.02713935449719429,-0.008336370810866356,-0.04988066852092743,-0.006661966443061829,0.0005423426628112793,0.006681084632873535
0.031185992062091827,-0.016872692853212357,-0.051022596657276154,0.0027736425399780273,-0.001309901475906372,0.02089083194732666
0.0037621064111590385,0.014867907389998436,-0.03477318957448006,0.009252592921257019,-0.004531353712081909,0.029686033725738525
-0.021173646673560143,0.05343810096383095,-0.0075338054448366165,0.009770326316356659,-0.0005780458450317383,0.014454364776611328
-0.004890087991952896,0.04763331264257431,-0.002490934683009982,-0.0001630038022994995,0.004885494709014893,-0.0038003921508789062
0.008730188943445683,0.013470977544784546,-0.023160435259342194,-0.007443942129611969,0.006961643695831299,-0.0064244866371154785
0.015049953013658524,-0.006546559277921915,-0.04195530340075493,-0.004559159278869629,0.004162847995758057,0.00037169456481933594
0.010886045172810555,0.0025408859364688396,-0.044796671718358994,0.0021903514862060547,0.0025352537631988525,0.00805675983428955
0.009881941601634026,0.021195797249674797,-0.04168650880455971,0.0012583062052726746,-0.0010298192501068115,0.007238924503326416
0.019661983475089073,0.02709893137216568,-0.04262372851371765,-8.908659219741821e-05,-0.0022936463356018066,0.009985029697418213
0.012085248716175556,0.017918141558766365,-0.036878880113363266,0.005537495017051697,-0.002244114875793457,0.016325533390045166
-0.009679426439106464,0.006776757538318634,-0.015793003141880035,0.010802611708641052,-0.0009278655052185059,0.017771005630493164
-0.014337506145238876,0.009881732054054737,-0.0001658131368458271,0.0019565969705581665,0.000674813985824585,0.011803746223449707
-0.0022191388998180628,0.02487068995833397,-0.005975888576358557,-0.00939246267080307,0.002255350351333618,0.013553202152252197
0.001878530252724886,0.03407633304595947,-0.023979805409908295,-0.012993164360523224,0.007844239473342896,0.02167600393295288
-0.027528900653123856,0.032110702246427536,-0.0446624830365181,-0.004653841257095337,0.010753005743026733,0.023884057998657227
-0.050116099417209625,0.03232279792428017,-0.03818046301603317,-0.0019236057996749878,-0.007968753576278687,0.02131795883178711
-0.05953163281083107,0.0648401528596878,-0.0037246602587401867,0.012120679020881653,0.0061119794845581055,-0.0008748173713684082
-0.03838591277599335,0.008418911136686802,-0.0037238544318825006,0.00011889636516571045,0.016014456748962402,-0.013142883777618408
-0.02366364561021328,-0.037034809589385986,-0.04727666452527046,-0.010235980153083801,0.011572808027267456,-0.004368305206298828
-0.021070992574095726,-0.05522691458463669,-0.09452827274799347,0.0013058632612228394,0.007820338010787964,0.008643865585327148
-0.014522604644298553,-0.02694520726799965,-0.0893804058432579,0.012300252914428711,-0.008471369743347168,0.018354713916778564
-0.031082801520824432,0.010839829221367836,-0.04499708488583565,0.019660264253616333,-0.019032210111618042,0.02087920904159546
-0.036381471902132034,0.0239995289593935,0.002070831600576639,0.02339077740907669,-0.012127816677093506,0.003954529762268066
-0.015146235004067421,0.017160579562187195,0.023438939824700356,0.014004223048686981,-0.003216981887817383,-0.003698289394378662
-0.00653501134365797,0.02275056764483452,0.014160696417093277,-0.00010437518358230591,-0.0006431639194488525,0.0019829273223876953
-0.01633693277835846,0.02628643438220024,-0.007333886809647083,0.0006646290421485901,-0.0009418725967407227,-0.0027229785919189453
