rotation_x,rotation_y,rotation_z,acceleration_x,acceleration_y,acceleration_z
0.09326290339231491,-0.15724793076515198,0.05466499552130699,0.016762763261795044,0.018425703048706055,-0.04230844974517822
0.09491033107042313,-0.13536320626735687,0.05404949560761452,-0.004354551434516907,0.032398223876953125,-0.03297239542007446
0.0583794042468071,-0.16512468457221985,0.061890069395303726,-0.004390702582895756,0.034647464752197266,-0.04270440340042114
0.012000983580946922,-0.1723468154668808,0.006671848241239786,-0.02071988582611084,0.02923506498336792,-0.07589167356491089
-0.013072656467556953,-0.17131125926971436,0.017389964312314987,-0.00976213812828064,0.02752023935317993,-0.02014756202697754
0.04059183970093727,-0.1545487940311432,-0.002036027843132615,-0.019966721534729004,0.04546964168548584,-0.035798609256744385
0.11602871119976044,-0.10492739081382751,0.0022098745685070753,-0.017788231372833252,0.03421354293823242,0.03132504224777222
0.0236520916223526,-0.08911117166280746,0.026965541765093803,0.01860630512237549,0.004942536354064941,0.08479058742523193
-0.0887647345662117,-0.05665096640586853,0.022648291662335396,0.012919634580612183,-0.02219104766845703,0.060971736907958984
-0.08815014362335205,-0.07118436694145203,0.010265300050377846,-0.009380966424942017,-0.02164250612258911,0.009977996349334717
-0.08179595321416855,-0.07839059084653854,-0.005227535497397184,-0.03190290927886963,0.005975246429443359,0.009241700172424316
-0.07176099717617035,-0.04577697068452835,-0.026776494458317757,-0.011894941329956055,0.0108872652053833,0.006536722183227539
-0.06852378696203232,-0.012960892170667648,-0.05218425393104553,-0.00499531626701355,0.008998334407806396,-0.009569406509399414
-0.04940405488014221,0.03546051308512688,-0.06296604126691818,0.007342904806137085,-0.008086562156677246,-0.03557473421096802
-0.01845763437449932,0.016300175338983536,-0.069942906498909,0.0054673850536346436,0.01038968563079834,-0.013814449310302734
0.012420231476426125,-0.04862869903445244,-0.06656581908464432,0.015551537275314331,-0.0017529726028442383,-0.03541111946105957
0.05079371854662895,-0.03441232815384865,-0.05492452159523964,-0.0031745731830596924,0.0173872709274292,0.008244454860687256
0.07293646782636642,0.009580389596521854,-0.02876460552215576,0.01970192790031433,0.002444148063659668,-0.022796154022216797
-0.03330964222550392,0.06875385344028473,-0.019557205960154533,-0.005614370107650757,0.01905345916748047,0.038759589195251465
-0.11338194459676743,0.045764852315187454,0.008683290332555771,-0.002685248851776123,0.012026011943817139,0.025802791118621826
-0.10199322551488876,-0.07337123900651932,-0.06096392124891281,-0.018418431282043457,0.024767696857452393,-0.006907403469085693
0.004064319189637899,-0.0943627804517746,-0.01969343237578869,0.014920830726623535,-0.005477726459503174,-0.04904669523239136
0.0036511304788291454,-0.038644298911094666,-0.009887559339404106,-0.015321820974349976,0.017554521560668945,0.0013471245765686035
-0.06668686121702194,-0.016403678804636,-0.016177667304873466,-0.018833845853805542,0.01338183879852295,0.018288731575012207
-0.06782738119363785,0.03742986172437668,-0.034117016941308975,-0.02258870005607605,0.010705947875976562,0.009886205196380615
-0.14117752015590668,-0.002282506786286831,-0.020526597276329994,0.016914010047912598,-0.010942280292510986,0.03116786479949951
-0.15645241737365723,0.005913273897022009,-0.026947064325213432,-0.010701566934585571,-0.009414851665496826,0.023559927940368652
-0.11561958491802216,0.019598351791501045,-0.021622292697429657,-0.01856696605682373,0.005244731903076172,0.0034829378128051758
-0.029201004654169083,0.019450724124908447,-0.024779144674539566,-0.031596213579177856,0.013961315155029297,-0.056179165840148926
-0.039170149713754654,0.08601820468902588,-0.020443633198738098,-0.007250279188156128,-0.0010976791381835938,-0.03559577465057373
-0.09008372575044632,0.0695975050330162,-0.03470437973737717,-0.01829478144645691,-0.00499117374420166,0.010461688041687012
-0.11688224971294403,0.015885192900896072,-0.03313199803233147,-0.007342308759689331,-0.017339348793029785,-0.0073479413986206055
-0.09335184842348099,-0.08910898864269257,-0.04719840735197067,-0.008417516946792603,-0.012304246425628662,-0.02341592311859131
0.018273724243044853,-0.11596167832612991,-0.033335234969854355,-0.007885679602622986,0.009203076362609863,-0.052470266819000244
0.08794958889484406,-0.054801665246486664,0.000119013711810112,0.0025643110275268555,-0.015835285186767578,-0.054321348667144775
-0.021420177072286606,0.012512480840086937,-0.012978828512132168,-0.03891342878341675,0.007821083068847656,0.039984047412872314
-0.07649692893028259,0.008407591842114925,0.017093371599912643,-0.017540305852890015,0.014339804649353027,0.010876297950744629
-0.0043196226470172405,0.048993438482284546,0.009831562638282776,-0.021535158157348633,-0.024650752544403076,-0.05158877372741699
0.015586706809699535,0.03182324022054672,0.024495193734765053,0.0028521865606307983,-0.0032860636711120605,-0.037325263023376465
-0.027600068598985672,-0.014611768536269665,0.028095493093132973,0.0062652528285980225,-0.0035930275917053223,-0.011092603206634521
-0.08211468160152435,0.010228371247649193,0.05230727046728134,0.015351787209510803,-0.0028370022773742676,0.011576414108276367
-0.06249774992465973,-0.010218367911875248,0.06509068608283997,-0.0008461028337478638,0.025342583656311035,0.015627026557922363
0.00030617741867899895,0.04230831190943718,0.06384000927209854,-0.005282074213027954,0.0049675703048706055,-0.009861171245574951
-0.0015435435343533754,0.07373100519180298,0.07010102272033691,0.0034231841564178467,0.0018817782402038574,0.017238616943359375
-0.0953623354434967,0.021524492651224136,0.05655848607420921,-0.0013038665056228638,-0.003963351249694824,0.032651543617248535
-0.08735991269350052,0.010640721768140793,0.035938799381256104,-0.0019177196081727743,0.0029251575469970703,-0.009342014789581299
-0.0025195477064698935,0.0006601396016776562,0.027066081762313843,-0.006679356098175049,0.0074024200439453125,-0.024913370609283447
0.011169278994202614,0.0023637362755835056,0.030432838946580887,-0.0011800974607467651,0.01836782693862915,-0.0011449456214904785
-0.004588003735989332,0.04350811243057251,0.013681259006261826,-0.02291753888130188,-0.0021408796310424805,0.024017751216888428
-0.07623936980962753,0.05347771197557449,0.004012844525277615,-0.018215671181678772,-0.001858532428741455,0.025646567344665527
-0.13082963228225708,0.011766612529754639,0.013285650871694088,0.0010394006967544556,-0.004263639450073242,0.0168149471282959
-0.08427783846855164,0.01206737756729126,0.0056221699342131615,-0.02044825255870819,-0.00032961368560791016,-0.019001781940460205
-0.022524835541844368,0.024827320128679276,-0.0024268985725939274,-0.005574539303779602,0.006987333297729492,-0.03444314002990723
0.012520856224000454,0.012833982706069946,-0.01759229227900505,-0.016663074493408203,-0.0023720860481262207,-0.033688127994537354
0.036554064601659775,0.027707885950803757,-0.004433208145201206,-0.0052160173654556274,-0.009968876838684082,-0.04255509376525879
-0.01032455824315548,0.002922903746366501,0.02268514223396778,0.007032573223114014,-0.003422975540161133,-0.013294816017150879
-0.03129768744111061,-0.061051011085510254,0.009741732850670815,-0.009082049131393433,-0.0027945637702941895,-0.006315827369689941
0.04345795512199402,-0.01031729206442833,-0.012885559350252151,-0.013341277837753296,0.003603696823120117,-0.02699655294418335
0.0624827966094017,0.04141659662127495,-0.003141633700579405,9.040534496307373e-05,-0.017049729824066162,-0.008032798767089844
-0.04709451645612717,0.0014016833156347275,0.0027472875081002712,-0.00016997754573822021,-0.00505298376083374,0.03882122039794922
-0.04225284233689308,-0.024234913289546967,0.0025585759431123734,-0.019377633929252625,-0.004390835762023926,0.00689166784286499
-0.049314387142658234,-0.07098011672496796,0.009434309788048267,0.010141968727111816,-0.0014369487762451172,0.012914896011352539
-0.03713690862059593,-0.05185588821768761,0.022138934582471848,0.011514246463775635,-0.011576533317565918,-0.0009665489196777344
-0.0677434429526329,-0.03558258339762688,0.04207635298371315,0.012682750821113586,-0.006400942802429199,0.0041471123695373535
-0.10229243338108063,-0.052120987325906754,0.03747329115867615,-0.0012543350458145142,-0.000887751579284668,0.0183258056640625
-0.020369453355669975,-0.019749905914068222,0.043957971036434174,-0.011722162365913391,-0.005240678787231445,-0.029774963855743408
-0.03020532615482807,-0.020762622356414795,-0.03561994805932045,-0.02334454655647278,-0.009148955345153809,-0.002997756004333496
-0.05355474352836609,-0.012380795553326607,-0.055262163281440735,0.0007762163877487183,-0.00945359468460083,0.005791068077087402
-0.03569096699357033,0.011199833825230598,-0.04691450297832489,0.0006392151117324829,-0.009749352931976318,-0.019838690757751465
-0.004710129927843809,0.02594614587724209,-0.008635074831545353,0.0053518121130764484,-0.006431519985198975,-0.009303748607635498
-0.03213430196046829,-0.004459020681679249,-0.00385301373898983,-0.002297505736351013,-0.0028658509254455566,0.006300806999206543
-0.029961708933115005,-0.05201801657676697,-0.026673946529626846,0.005585595965385437,-0.009593546390533447,-0.014080405235290527
0.044421445578336716,-0.018363917246460915,-0.0472111813724041,-0.007104753516614437,-0.011666476726531982,-0.042930424213409424
-0.01640036329627037,-0.04223133996129036,-0.04791795089840889,0.003096058964729309,-0.009933710098266602,-0.012597739696502686
-0.05186669901013374,-0.10296493768692017,-0.043893542140722275,0.006322652101516724,0.0022019147872924805,-0.004641830921173096
0.01775778830051422,-0.01817273534834385,-0.020650682970881462,0.006177887320518494,-0.003077268600463867,-0.02688544988632202
0.06300564855337143,0.015258838422596455,0.002433992689475417,0.0029118219390511513,0.0036156177520751953,-0.009006142616271973
4.572048783302307e-05,0.014668426476418972,-0.011820400133728981,-0.0064475685358047485,0.0038974881172180176,0.025398850440979004
-0.019450725987553596,-0.021003520116209984,-0.021926112473011017,0.003422096371650696,-0.0005691647529602051,-0.012017965316772461
0.006151505280286074,-0.028781458735466003,-0.011970475316047668,0.01552070677280426,0.0027271509170532227,-0.02531987428665161
-0.028635013848543167,0.014172252267599106,-0.01410487201064825,0.0017779925838112831,0.007228553295135498,0.022145450115203857
-0.030766833573579788,-0.008480905555188656,-0.007855850271880627,0.0008570551872253418,0.00830906629562378,0.009261131286621094
-0.03256772458553314,-0.0002379673533141613,-0.0003269591834396124,0.005519837141036987,0.011522650718688965,0.0003921985626220703
-0.032809652388095856,0.025205370038747787,-0.025710776448249817,-0.00342009961605072,-0.0004780292510986328,-0.010510087013244629
-0.04228176176548004,0.0011646023485809565,-0.023290103301405907,0.017038941383361816,0.00042319297790527344,-0.008606791496276855
0.01092748623341322,-0.009221518412232399,-0.012341336347162724,0.00801636278629303,-0.005747199058532715,-0.02533400058746338
0.016482505947351456,-0.004709767177700996,-0.008475285023450851,-0.0041682119481265545,0.004611611366271973,0.0015822649002075195
-0.043935272842645645,-0.013886459171772003,-0.008863919414579868,-0.003589138388633728,-0.0037572383880615234,0.01923048496246338
-0.01342805102467537,0.011230310425162315,-0.0063621546141803265,-0.004609242081642151,-0.0024403929710388184,-0.012131273746490479
-0.006742566358298063,0.005585509352385998,-0.012026865035295486,0.005534425377845764,-0.009223699569702148,-0.015066564083099365
-0.030637621879577637,0.004270022734999657,-0.002869814168661833,0.004890337586402893,-0.007462739944458008,0.0026407241821289062
-0.05604498088359833,0.014007769525051117,0.013618957251310349,0.0053643882274627686,-0.009772181510925293,0.0024695396423339844
-0.017159342765808105,0.001635479973629117,0.03203645721077919,0.00031623244285583496,-0.004178106784820557,-0.018408894538879395
0.03305225819349289,-0.02749328687787056,0.03097620978951454,-0.0064347973093390465,0.00044786930084228516,-0.029155075550079346
0.029572321102023125,0.011888442561030388,0.018233221024274826,-0.0029576867818832397,-0.006756424903869629,-0.016337275505065918
-0.06196465343236923,-0.010533599182963371,0.012469492852687836,0.002044171094894409,-0.0043596625328063965,0.01011037826538086
-0.04309127479791641,-0.01563459262251854,0.026156023144721985,-0.01025345828384161,0.001987278461456299,-0.012980222702026367
0.03790091350674629,-0.01170021016150713,0.039382994174957275,-0.004260584712028503,0.001962423324584961,-0.03886985778808594
0.03628562018275261,-0.006974993273615837,0.03311123698949814,-0.008972018957138062,0.0015941858291625977,0.0018942952156066895
0.02780638076364994,0.006015107035636902,0.022853806614875793,-0.001760244369506836,0.0003567337989807129,0.007283031940460205
0.042324893176555634,0.01943719945847988,0.016637641936540604,-0.0015438785776495934,0.00018364191055297852,-0.015239536762237549
-0.02539765276014805,0.002724149264395237,-0.002050685463473201,-0.00801792647689581,0.002466857433319092,0.015347599983215332
-0.016606513410806656,-0.03066987916827202,0.010606658644974232,0.004476800560951233,0.003496885299682617,-0.01797574758529663
0.02332412824034691,-0.02099684625864029,0.021551160141825676,0.0007927864789962769,0.003493964672088623,-0.016738295555114746
-0.008869539014995098,0.026662932708859444,0.012913860380649567,-0.008425667881965637,0.00878816843032837,0.009715557098388672
-0.03594978153705597,0.02703263610601425,0.012245072051882744,-0.0030646920204162598,0.004671871662139893,0.004220426082611084
-0.007318918593227863,0.0034263376146554947,0.012432532384991646,-0.00047944486141204834,0.005276143550872803,-0.01789402961730957
0.02430756203830242,-0.028964033350348473,0.02487022429704666,-0.003221689723432064,0.0028714537620544434,-0.019300520420074463
-0.02624030038714409,-0.042161326855421066,0.022801481187343597,-0.0030194073915481567,0.001734614372253418,0.014637768268585205
-0.0410304069519043,0.005502891261130571,0.003728373907506466,-0.00584159791469574,-0.004620611667633057,0.009204864501953125
-0.04186846315860748,0.015049939975142479,-0.007736662402749062,-0.007323368452489376,-0.010299623012542725,0.013283133506774902
-0.030334556475281715,0.0052461628802120686,-0.005079939961433411,-0.00205346941947937,-0.0003848075866699219,-0.009311795234680176
0.024570774286985397,-0.0044787279330194,0.012819400988519192,0.00056496262550354,-0.0024633407592773438,-0.039542555809020996
0.058279573917388916,0.012583671137690544,0.0174737386405468,-0.002543836832046509,-0.00863349437713623,-0.035785019397735596
-0.004782435484230518,0.0031810877844691277,0.015780936926603317,0.0003622034564614296,-0.0043718814849853516,0.009564101696014404
-0.004514983855187893,-0.01476480532437563,0.016692031174898148,-0.00869913399219513,0.001256406307220459,0.0027968883514404297
0.0196616780012846,0.010291759856045246,0.022245945408940315,0.00015929341316223145,-0.002356588840484619,-0.019891798496246338
-0.017291121184825897,0.007610866334289312,0.015229355543851852,-0.007550656795501709,0.0020728111267089844,-0.0016631484031677246
-0.014468281529843807,-0.0013033244758844376,0.007343537174165249,-0.0010876655578613281,-0.0025647878646850586,-0.014567852020263672
0.025377728044986725,-0.01088023092597723,0.00330418162047863,-0.0007823547348380089,0.00023955106735229492,-0.007458508014678955
0.03516118600964546,0.0006541004404425621,0.009977320209145546,0.0037994831800460815,0.001507401466369629,0.002402067184448242
0.0076701948419213295,0.013036235235631466,0.006698353216052055,-0.001897662878036499,-0.005313575267791748,0.015238046646118164
-0.040862977504730225,-0.00446333410218358,-0.001046169432811439,0.0047520846128463745,-0.00943082571029663,0.014035224914550781
-0.02389414608478546,-0.014678250066936016,0.005094680469483137,-0.001923397183418274,-0.003900468349456787,-0.01879483461380005
-0.013054481707513332,-0.007856577634811401,0.0014268097002059221,-0.0073441406711936,0.011292219161987305,-0.005698263645172119
-0.012575708329677582,0.004153142683207989,-0.0039912620559334755,-0.0025014281272888184,-0.002231299877166748,-0.009016096591949463
0.00556474644690752,0.005988236516714096,0.005817752797156572,0.007803693413734436,-0.0033242106437683105,-0.017118453979492188
-0.003631947562098503,0.00027042999863624573,0.0061660935170948505,-0.0002339780330657959,-0.0035907626152038574,-0.009503662586212158
-0.018348973244428635,-0.0035356790758669376,0.014068346470594406,0.0006639221683144569,-0.0010827183723449707,-0.0035660862922668457
-0.011848267167806625,-0.01775570586323738,0.015480856411159039,-0.003692805767059326,-0.0009778141975402832,0.00477677583694458
0.020794475451111794,-0.016798239201307297,-0.0006212178850546479,-0.00590088963508606,-0.0014088153839111328,2.2411346435546875e-05
0.031841471791267395,0.014084570109844208,-0.010344774462282658,-0.00825570523738861,-0.0046805739402771,-0.004881024360656738
-0.07254800200462341,0.023303786292672157,-0.012674903497099876,-0.0003452599048614502,-0.0034534335136413574,0.01459813117980957
-0.05705012008547783,0.013831662014126778,-0.010031912475824356,-0.008516177535057068,0.003203868865966797,-0.009836912155151367
0.005202402360737324,-0.02339809015393257,-0.022980675101280212,-0.00661352276802063,0.003817737102508545,-0.026852548122406006
0.045546673238277435,-0.027259791269898415,-0.012401396408677101,0.015284538269042969,-0.006923079490661621,-0.019525468349456787
0.033326003700494766,0.027011055499315262,-0.015093980357050896,-0.0014671236276626587,-0.00917130708694458,-0.0048018693923950195
-0.04764725640416145,0.00020920857787132263,-0.016704058274626732,0.01099984347820282,-0.006406724452972412,0.011670112609863281
-0.004046338144689798,0.0005328406114131212,-0.008345970883965492,-0.003789931535720825,-0.00649183988571167,-0.024094223976135254
0.048116423189640045,-0.008561828173696995,0.0225348100066185,0.007933467626571655,-0.009744465351104736,-0.024816691875457764
0.0482478067278862,-0.001451792661100626,0.025369729846715927,0.0028179138898849487,-0.012700200080871582,-0.005014657974243164
0.013385744765400887,-0.0004225955344736576,0.01699129492044449,-0.0036642104387283325,-0.017188191413879395,0.014510631561279297
-0.011478089727461338,0.0021128831431269646,0.016390101984143257,-0.0019788891077041626,-0.011292994022369385,0.0077402591705322266
0.013469831086695194,0.005914757028222084,0.012238822877407074,-0.0017073294147849083,-0.005768477916717529,-0.006346464157104492
0.04826291650533676,-0.003923194482922554,0.026636864989995956,-0.000201299786567688,-0.004703640937805176,-0.013462066650390625
0.01547454483807087,0.016232414171099663,0.029774770140647888,-0.0077088018879294395,-0.005509793758392334,0.01749122142791748
-0.043291542679071426,0.04805828258395195,0.028841784223914146,0.006166189908981323,-0.004580676555633545,0.017703115940093994
-0.03306567296385765,0.017532508820295334,-0.0058507975190877914,-0.0009233802556991577,-0.006011366844177246,-0.0011182427406311035
0.00658240495249629,-0.03652486577630043,-0.014183295890688896,-3.4183263778686523e-05,-0.0019068121910095215,-0.014609336853027344
0.011979524046182632,-0.0036464263685047626,0.009029742330312729,0.0031739631667733192,0.00669175386428833,0.001993536949157715
0.00809557270258665,0.031062453985214233,0.02178066223859787,-0.009404823184013367,-0.0053487420082092285,-0.002523064613342285
0.02058357372879982,0.034580908715724945,0.001959873829036951,-0.01210738718509674,-0.006896018981933594,-0.005089998245239258
-0.014284702949225903,0.003914108034223318,-0.01847127266228199,-0.007534652017056942,-0.01082545518875122,0.00805962085723877
-0.03067667782306671,-0.01832537166774273,-0.011201527900993824,0.0016492903232574463,-0.0011990666389465332,-0.006048619747161865
-0.010499862022697926,0.008808315731585026,0.0033886146266013384,-0.0036532729864120483,0.0016844868659973145,-0.014333963394165039
0.020608987659215927,-0.007035537157207727,0.025372948497533798,0.0018772035837173462,0.0010105371475219727,-0.010251343250274658
0.03078841231763363,0.028260957449674606,0.026724159717559814,-0.003177179954946041,-0.0013592839241027832,0.0009459257125854492
0.017942899838089943,0.012091180309653282,0.0177520252764225,0.0009402632713317871,-0.005033016204833984,0.003937959671020508
-0.020224442705512047,-0.02352544292807579,0.0013679666444659233,0.0011141002178192139,-0.006866931915283203,0.012122392654418945
-0.015095433220267296,-0.012557288631796837,0.005202280357480049,0.011245744302868843,-0.013868391513824463,-0.0032631754875183105
-0.010533016175031662,0.012830302119255066,0.021780792623758316,0.0026585757732391357,-0.0050324201583862305,-0.003203868865966797
-0.004215671215206385,-0.00949754286557436,0.03742644935846329,0.00303727388381958,-0.005704522132873535,-0.0016989707946777344
0.009487403556704521,0.029124213382601738,0.023968270048499107,-0.011396169662475586,-0.00624316930770874,-0.018266618251800537
-0.022503837943077087,0.023302152752876282,0.0008771158754825592,-0.005663484334945679,-0.010500431060791016,-0.011283397674560547
-0.04109780862927437,-0.019365299493074417,-0.008771387860178947,0.008544668555259705,-0.012827277183532715,-0.010119318962097168
-0.008442368358373642,-0.023574937134981155,0.003442060900852084,0.003985673189163208,-0.004576981067657471,-0.006046593189239502
0.03146986663341522,0.001248996239155531,0.02426115982234478,0.0036284178495407104,-0.003669917583465576,-0.0205690860748291
0.03777388483285904,0.01273153442889452,0.022579748183488846,-0.002497360110282898,-0.0035423636436462402,-0.008449852466583252
-0.016209475696086884,0.01538897305727005,-0.0013114151079207659,-0.005718989297747612,-0.00833219289779663,0.010260939598083496
-0.03695767745375633,-0.02342238277196884,-0.016339747235178947,0.0027637630701065063,-0.0040313005447387695,0.009878218173980713
-0.02308325655758381,-0.013484502211213112,-0.00010741199366748333,2.326071262359619e-05,0.001707911491394043,-0.0019642114639282227
0.005157040432095528,-0.009728118777275085,0.015683088451623917,-0.00040946900844573975,0.007240951061248779,-0.0087929368019104
0.029381468892097473,-0.0003268560394644737,0.02696089632809162,-0.004300549626350403,0.005049169063568115,-0.018048107624053955
-0.0015595864970237017,-0.011971913278102875,0.011609930545091629,-0.003933638334274292,0.001309037208557129,-0.007495284080505371
-0.025444475933909416,-0.006503390613943338,-0.009670941159129143,-0.005061089992523193,0.006832420825958252,-0.0017398595809936523
0.016924019902944565,-0.03489801660180092,-0.013404959812760353,0.007490755990147591,-0.0012047886848449707,-0.01624011993408203
0.03253548964858055,-0.008294504135847092,0.015301733277738094,0.007721006870269775,0.0061907172203063965,-0.0018808841705322266
0.001404177863150835,-0.022053221240639687,-0.007937464863061905,-0.013702914118766785,0.002439737319946289,0.002966761589050293
0.021564312279224396,0.008135738782584667,0.0003888830542564392,0.005895989015698433,-0.0006271004676818848,-0.03159457445144653
0.02593892440199852,0.030045993626117706,-0.013912335969507694,-0.005425736308097839,-0.001520395278930664,-0.00993502140045166
0.006393458694219589,-0.002473704516887665,-0.013759761117398739,0.009385809302330017,-0.0018665194511413574,0.007074236869812012
0.03660246729850769,0.01025325432419777,-0.025747371837496758,0.0024640876799821854,-0.005115211009979248,0.0006533265113830566
0.026979466900229454,0.0069520073011517525,-0.010204545222222805,-0.0029653608798980713,-0.006884396076202393,-0.0018538832664489746
-0.007154196500778198,0.022938236594200134,0.020105993375182152,0.004896985366940498,-0.007499217987060547,-0.0031760334968566895
-0.024211460724473,0.0310957208275795,0.027839789167046547,-0.002097874879837036,-0.00353163480758667,-0.0037649869918823242
-0.018408698961138725,0.01333057414740324,0.004976283758878708,-0.013248980045318604,-0.007895350456237793,-0.003764510154724121
0.026948977261781693,0.037411730736494064,-0.010288581252098083,-0.010247036814689636,-0.006557643413543701,-0.01690530776977539
-0.02458769455552101,0.027010513469576836,-0.01431296207010746,0.006322100758552551,-0.004942953586578369,0.00679171085357666
-0.03294573724269867,0.010731001384556293,-0.016025958582758904,0.0017450898885726929,-0.0027922391891479492,-0.011455833911895752
0.004782286938279867,-0.009512986056506634,0.004711021203547716,0.00118294358253479,0.00992739200592041,-0.019008219242095947
0.03749312087893486,0.016290143132209778,0.013285256922245026,-0.005582734942436218,0.0034749507904052734,-0.01505821943283081
0.014540266245603561,0.02233240380883217,-0.011920910328626633,-0.003935604356229305,-0.006929218769073486,0.0032840371131896973
-0.009189100936055183,0.013557741418480873,-0.015573998913168907,0.002064034342765808,-0.006263017654418945,0.0034688711166381836
-0.010464021004736423,0.016161512583494186,-0.007198713719844818,-0.007993726991117,0.00932532548904419,-0.014332950115203857
0.025671638548374176,-0.0079515241086483,0.012193815782666206,0.0009558200836181641,0.010503828525543213,-0.03205388784408569
0.05300915613770485,0.013220226392149925,0.005680575966835022,-0.009247928857803345,0.006876826286315918,-0.020382344722747803
0.031791508197784424,0.007463037967681885,-0.00934559479355812,0.004945650696754456,-0.004898428916931152,0.0031462907791137695
0.0054464880377054214,0.039182692766189575,-0.023927321657538414,-0.004350617527961731,-0.004489541053771973,0.007959127426147461
-0.011739833280444145,0.0020724739879369736,-0.019323324784636497,0.0024141818284988403,-0.004623234272003174,0.012056171894073486
-0.0009294785559177399,-0.007001497317105532,-0.004478514194488525,0.006019637919962406,-0.0033310651779174805,-0.002252638339996338
0.029457584023475647,0.010816669091582298,-0.005853333510458469,-0.00223405659198761,-0.004346132278442383,-0.009500980377197266
0.01972608081996441,0.026323657482862473,-0.005279256962239742,0.006841093301773071,-0.0055893659591674805,-0.0034009218215942383
-0.0074593545868992805,0.02341386303305626,0.002278420841321349,7.225573062896729e-05,-0.004672884941101074,-0.0033669471740722656
0.009268675930798054,0.021179065108299255,0.0007268325425684452,-0.004781082272529602,-0.000692903995513916,-0.02323758602142334
0.014272687025368214,0.020881950855255127,-0.0012953681871294975,0.003547653555870056,-0.0031297802925109863,-0.01619720458984375
0.019881190732121468,0.009630140848457813,-0.005437822081148624,-0.004324227571487427,-0.003690481185913086,-0.0008871555328369141
0.04222524166107178,0.016230430454015732,-0.005057638511061668,-0.0054798424243927,-0.002285599708557129,-0.003638744354248047
0.024732140824198723,-0.018246600404381752,0.005623592529445887,0.003634274937212467,-0.0031636953353881836,0.004032909870147705
-0.0014324896037578583,0.002727138577029109,0.007350294850766659,-0.0038263946771621704,-0.00023281574249267578,0.00295412540435791
-0.0019575939513742924,0.0076018692925572395,0.010161557234823704,-3.720726817846298e-05,0.00020307302474975586,-0.0015680193901062012
0.002483358606696129,0.005308805499225855,-0.004354654811322689,-0.009839816950261593,0.001743614673614502,0.00890260934829712
0.0212929155677557,0.0083321463316679,-0.015262989327311516,-0.0022354265674948692,-0.0005505084991455078,-0.0014371275901794434
-0.022380294278264046,0.0023956019431352615,-0.00981882493942976,0.0036746859550476074,-0.006379902362823486,0.00019127130508422852
-0.02841103821992874,0.008245822042226791,0.00836632028222084,0.006299719214439392,0.004609346389770508,-0.006427466869354248
0.006779458373785019,-0.0012881695292890072,0.011940497905015945,0.007799193263053894,-0.0015497803688049316,-0.01920527219772339
0.031026381999254227,-0.0003392249345779419,0.0007054419256746769,-0.00020696129649877548,-0.0062808990478515625,-0.003910958766937256
0.0010919920168817043,0.0242447629570961,-0.013851366937160492,-0.003354102373123169,-0.0071790218353271484,0.005924224853515625
-0.02327790856361389,-0.015934139490127563,-0.018801314756274223,0.0004003196954727173,-0.01129072904586792,-0.011471688747406006
0.019749296829104424,-0.03787283971905708,-0.004114555660635233,0.008631423115730286,-0.007919669151306152,-0.013599157333374023
0.019272970035672188,-0.021436382085084915,0.002316349186003208,0.003095865249633789,-0.008752107620239258,-0.005499422550201416
0.013178994879126549,0.008048881776630878,0.012746743857860565,0.00019224081188440323,-0.011262893676757812,-0.006209313869476318
-0.030647408217191696,0.00515729608014226,0.0050480905920267105,-0.0010647475719451904,-0.010468125343322754,0.0018129944801330566
-0.003898278344422579,-0.020460661500692368,0.0024986930657178164,0.0013679126277565956,-0.011684954166412354,-0.02028709650039673
0.027527792379260063,-0.03877699002623558,0.00646769255399704,0.008961215615272522,-0.004924416542053223,-0.010384917259216309
0.044390082359313965,-0.020573802292346954,0.028963038697838783,0.0009309947490692139,-0.005898535251617432,-0.0024222731590270996
0.004688634537160397,0.009916040115058422,0.02814868465065956,-0.004461303353309631,-0.007915318012237549,0.023284077644348145
-0.022107072174549103,0.05022123456001282,0.018064754083752632,-0.004674375057220459,-0.006511092185974121,0.005892932415008545
-0.02663247287273407,-0.014139488339424133,0.0037582116201519966,-0.0014497935771942139,-0.0018072128295898438,-0.010033667087554932
0.051514990627765656,-0.02855794131755829,-0.0006812941282987595,-0.006007477641105652,0.0005044341087341309,-0.026088416576385498
0.04204734414815903,-0.028503485023975372,0.007179586216807365,0.008483469486236572,-0.0034037232398986816,0.016182780265808105
0.0025927023962140083,0.018204038962721825,0.010775631293654442,0.00538402795791626,-0.003369927406311035,0.017635226249694824
0.010907668620347977,0.02878492698073387,0.008334715850651264,-0.001066446304321289,-0.0032396912574768066,-0.007694065570831299
0.0029324153438210487,-0.013801993802189827,-0.005907696671783924,-0.00806446373462677,0.00038623809814453125,-0.010060608386993408
0.03435833379626274,-0.011175449937582016,-0.015193039551377296,-0.0038458555936813354,-0.004526376724243164,-0.010195493698120117
0.026612620800733566,0.0036718768533319235,-0.015042058192193508,-0.0025426140055060387,-0.0036422014236450195,0.01300877332687378
0.0023316461592912674,0.01618039235472679,0.0072673894464969635,0.0024190396070480347,-0.002347111701965332,0.01033318042755127
-0.006996028125286102,0.0009895067196339369,0.027107251808047295,0.0015182048082351685,0.003062009811401367,0.003482818603515625
-0.021452467888593674,0.016807716339826584,0.005753787234425545,-0.011700436472892761,-0.004310250282287598,-0.005486428737640381
0.015264907851815224,0.0012872195802628994,-0.00498490734025836,-0.003500044345855713,-0.0005335807800292969,-0.029541194438934326
0.043952882289886475,0.004367969464510679,-0.020117176696658134,-0.002109915018081665,-0.003011941909790039,-0.017733454704284668
0.005468499846756458,0.015084896236658096,-0.006901457905769348,0.004380568861961365,-0.005067110061645508,0.0025087594985961914
-0.031258560717105865,0.010284829884767532,-0.0017830466385930777,0.0023534297943115234,-0.00255507230758667,0.013477683067321777
-0.005855622701346874,0.012046397663652897,-0.00375808565877378,0.002880379557609558,-0.008228778839111328,-0.0036603808403015137
0.014725974760949612,0.014459162019193172,0.003335047047585249,0.0019082129001617432,-0.004051804542541504,-0.012298107147216797
-0.003914154600352049,0.007655407302081585,-0.00010643992573022842,-0.010271012783050537,0.0012137889862060547,-0.0021705031394958496
0.005048336926847696,0.006281689740717411,-0.008571228012442589,-0.0025309622287750244,-0.007680773735046387,-0.013916850090026855
-0.01186452992260456,0.012225138023495674,-0.012912144884467125,-0.0010764002799987793,-0.010254859924316406,-0.010258972644805908
0.009578130207955837,0.010355820879340172,-0.006204023025929928,-0.0015445342287421227,-0.005469620227813721,-0.014162838459014893
0.05937107279896736,0.0143296392634511,-0.0022606339771300554,0.002012595534324646,-0.002907991409301758,-0.010598719120025635
0.015959644690155983,-0.0030651353299617767,0.0203896202147007,0.010050789453089237,-0.0028908848762512207,0.01040196418762207
-0.017104793339967728,0.015139506198465824,0.013407275080680847,-0.005439788103103638,-0.005728602409362793,0.009376227855682373
0.003571833483874798,0.007856619544327259,-0.00020847213454544544,-0.0025582164525985718,-0.005159437656402588,-0.010073304176330566
-0.011251211166381836,-0.009940624237060547,-0.00212836847640574,-0.0015472760424017906,-0.0040610432624816895,-0.003948390483856201
-0.006173290312290192,0.0064721908420324326,0.006718364544212818,0.0014028549194335938,-0.0007541179656982422,-0.009373188018798828
-0.0004633413627743721,0.019589770585298538,0.003116320353001356,-0.005994408391416073,0.001997649669647217,0.006254017353057861
0.03220556676387787,0.0227507334202528,-0.00406433641910553,-8.738040924072266e-05,0.00010335445404052734,-0.015032291412353516
0.03851332888007164,0.007527085021138191,-0.010830210521817207,-0.002489626407623291,-0.0014175772666931152,-0.015823841094970703
0.003933270927518606,0.020518150180578232,-0.014248021878302097,-0.0024193525314331055,-0.003729403018951416,0.006952106952667236
-0.016818279400467873,0.03184688091278076,0.004572862293571234,-0.000126570463180542,0.0007435083389282227,0.022405803203582764
-0.021017614752054214,-0.009695246815681458,0.019411645829677582,0.0005394816398620605,-0.0015529394149780273,0.004317879676818848
0.022227633744478226,-0.005179075989872217,0.01596514694392681,-0.0023005157709121704,-0.006258785724639893,-0.02215886116027832
0.018223479390144348,0.02514353208243847,-0.010659733787178993,-0.006706446409225464,-0.012980997562408447,-0.01440274715423584
-0.011010834947228432,0.011790822260081768,-0.014118198305368423,0.00040072202682495117,-0.011263072490692139,-0.00962364673614502
-0.019085893407464027,0.0002907277084887028,-0.0035502517130225897,-0.004569068551063538,0.0015206336975097656,0.0024367570877075195
0.009842293336987495,0.009574954397976398,0.0010047000832855701,-0.0022705495357513428,0.00036984682083129883,-0.010454535484313965
0.02187771536409855,0.006022294983267784,-0.004753492772579193,0.0005712509155273438,-0.0026793479919433594,-0.014054179191589355
0.01076971460133791,0.01460500992834568,-0.017215615138411522,-0.00577959418296814,-0.004095554351806641,-0.006250321865081787
0.006779971532523632,0.021024201065301895,-0.01876676268875599,0.0016468316316604614,0.0016312003135681152,-0.004824638366699219
0.008325599133968353,-0.03347347676753998,-0.013202384114265442,0.0035778889432549477,0.004242956638336182,0.0018818378448486328
0.0047016567550599575,-0.019142979755997658,-0.0015574332792311907,0.0028050243854522705,0.005006194114685059,0.006955444812774658
-0.030452288687229156,0.03418954834342003,0.0032741769682615995,-0.012361064553260803,0.008591949939727783,0.021671175956726074
-0.060490794479846954,0.03632204607129097,-0.0035549155436456203,-0.0014797896146774292,-1.4901161193847656e-05,0.010412931442260742
-0.03514400124549866,0.002996881492435932,-0.02980675920844078,-0.001994699239730835,-0.003041505813598633,-0.012299001216888428
0.035252027213573456,-0.03268873691558838,-0.03635780140757561,0.005638003349304199,0.00040346384048461914,-0.02735036611557007
0.0277253370732069,-0.016947871074080467,-0.024108940735459328,-0.0022339075803756714,-0.00037473440170288086,-0.009131669998168945
-0.03263555094599724,0.03394899517297745,0.0005565660540014505,0.0007432401180267334,-0.001141369342803955,0.0004878044128417969
-0.05216812714934349,0.023870471864938736,-0.024250425398349762,-0.011541664600372314,-0.007759392261505127,-0.0037738680839538574
0.0006605596281588078,-0.034882474690675735,-0.02798662707209587,0.00986778736114502,-0.013674616813659668,-0.030304372310638428
0.02209360897541046,-0.06122734025120735,-0.014027964323759079,0.004834815859794617,-0.0016876459121704102,-0.00991666316986084
0.010720890015363693,-0.002050958573818207,-0.004524867050349712,0.00032144784927368164,-0.003545403480529785,0.0009472370147705078
-0.002037469297647476,0.020501814782619476,0.005909502971917391,0.0007457882165908813,-0.004229843616485596,-0.001613616943359375
-0.03256577253341675,0.0066593848168849945,0.004471001215279102,0.0001666247844696045,-0.0009948015213012695,-0.008939504623413086
0.0018800650723278522,-0.0018838937394320965,-0.0074758888222277164,0.0026345252990722656,0.0022696852684020996,-0.011797845363616943
0.014340127818286419,-0.007193611469119787,-0.01654720865190029,0.006450459361076355,-0.003613770008087158,0.002609729766845703
0.0012834020890295506,-0.005893513560295105,-0.016999784857034683,0.007060393691062927,-0.0005271434783935547,0.01819753646850586
0.004666305147111416,-0.0029555740766227245,0.010883314535021782,0.011924833059310913,-0.0019368529319763184,0.002406001091003418
-0.02199888601899147,0.012334132567048073,0.005256137810647488,-0.004822790157049894,0.0023232102394104004,-0.00294417142868042
0.005189970135688782,-0.014528847299516201,-0.008311672136187553,0.000539243221282959,0.00023937225341796875,-0.021236181259155273
0.017478886991739273,-0.01520614791661501,-0.024255067110061646,-0.003951400518417358,-0.0031319856643676758,-0.020615756511688232
-0.00523408455774188,0.010958882048726082,-0.017410386353731155,0.005473896861076355,-0.007496178150177002,0.008023858070373535
-0.007510309107601643,0.036788757890462875,-0.0010832969564944506,0.00130540132522583,-0.002230525016784668,0.007177174091339111
-0.003295987844467163,-0.013532917946577072,0.01727212779223919,0.002423257101327181,-0.000761866569519043,-0.005973398685455322
0.0293210968375206,-0.00606475630775094,0.01798420585691929,0.00013910233974456787,-0.003768444061279297,-0.018531322479248047
0.002700095996260643,-0.015299949795007706,0.015316647477447987,0.003871083725243807,-0.004055321216583252,-0.001942455768585205
-0.003033824497833848,-0.008901524357497692,0.0008315946906805038,-0.0011841803789138794,-0.005403876304626465,-0.00012499094009399414
-0.0024900513235479593,0.0036415494978427887,0.0014269393868744373,-0.0005022138357162476,-0.0027632713317871094,-0.006318330764770508
0.0022854614071547985,-0.00647704117000103,0.004321470391005278,-0.0009784693829715252,-0.0002670884132385254,-0.016590774059295654
0.011958417482674122,-0.024072252213954926,0.015217538923025131,-0.0017228424549102783,-0.0001341104507446289,-0.008723080158233643
0.002668999135494232,-0.0029182997532188892,0.005915551446378231,-0.006230056285858154,-0.006611824035644531,0.0024517178535461426
-0.011014411225914955,-0.015895109623670578,-0.0008038848172873259,0.0028679072856903076,-0.0047356486320495605,0.0061833858489990234
0.002706221304833889,-0.02579040825366974,0.0011433034669607878,0.0005236566066741943,-0.007004439830780029,0.00029975175857543945
0.019466068595647812,0.013019012287259102,0.014904827810823917,-0.0018908828496932983,-0.004467368125915527,-0.004980564117431641
-0.009334308095276356,0.010961157269775867,-0.0041986629366874695,-0.011378034017980099,-0.01336061954498291,-0.0016708970069885254
-0.02061581239104271,-0.019032727926969528,-0.001368263503536582,0.0006466060876846313,-0.009950220584869385,-0.017886459827423096
0.025888169184327126,0.008802901022136211,0.022673338651657104,0.0017320364713668823,-0.006644010543823242,-0.025143802165985107
0.0437944233417511,0.012172097340226173,0.026832222938537598,0.0033067017793655396,-0.005644500255584717,-0.016157448291778564
0.027754580602049828,0.009478459134697914,0.0216443482786417,-0.00217437744140625,-0.010128200054168701,0.0031120777130126953
-0.009686357341706753,-0.034155067056417465,0.011433511041104794,0.00011733174324035645,-0.0046051740646362305,0.001855015754699707
0.02010979875922203,-0.03406721353530884,0.008719739504158497,-0.0034642955288290977,-0.00016885995864868164,-0.0208398699760437
0.06330414116382599,-0.001826719380915165,0.0018445232417434454,-0.0061880797147750854,0.004305839538574219,-0.025072216987609863
0.03355521336197853,0.003592514665797353,0.0014847205020487309,-0.0014846622943878174,-0.00038617849349975586,0.013115286827087402
-0.014793680980801582,0.013227196410298347,0.0055245449766516685,-0.0012119254097342491,-0.007159113883972168,0.02971792221069336
-0.04350060224533081,-0.0027495045214891434,0.004018727689981461,0.0025004902854561806,-0.002128124237060547,0.02860778570175171
-0.014920201152563095,-0.034970883280038834,-0.004874563775956631,0.006572485901415348,-0.0006348490715026855,0.0005924105644226074
0.04863230139017105,-0.013626771979033947,-0.008345657959580421,0.004853174090385437,0.002541780471801758,-0.021158337593078613
-0.015225152485072613,0.006303994916379452,0.007960325106978416,0.0009034723043441772,0.002556741237640381,0.0046885013580322266
-0.03561069816350937,0.020965971052646637,0.022679153829813004,0.0016052573919296265,0.003190338611602783,-0.0018268823623657227
-0.023171918466687202,0.0079862792044878,0.014504779130220413,-0.006605952978134155,-0.001719355583190918,-0.013636589050292969
0.009811109863221645,-0.027374837547540665,0.002251406665891409,-0.001206427812576294,-0.004850208759307861,-0.01908135414123535
0.03693951293826103,-0.0014606225304305553,-0.0071994224563241005,-0.0051886290311813354,-0.0035303235054016113,-0.01701498031616211
0.004760694690048695,0.012369552627205849,-0.002426466438919306,0.0030051618814468384,-0.0011105537414550781,0.0022789835929870605
-0.021944278851151466,0.011383876204490662,0.0009449375793337822,-0.0080593666061759,-0.005960822105407715,0.0026109814643859863
-0.015844495967030525,-0.0013910545967519283,0.01709892228245735,0.008681237697601318,-0.009151220321655273,-0.0049759745597839355
-0.004957403056323528,-0.012564675882458687,0.0019577667117118835,-0.015150114893913269,-0.0056601762771606445,-0.0008937716484069824
0.020942391827702522,-0.013647396117448807,-0.01658480614423752,0.0012785643339157104,-0.011857450008392334,-0.013902723789215088
0.012020540423691273,0.01756582036614418,-0.022707441821694374,-0.005196108482778072,-0.010072469711303711,0.0032023191452026367
-0.013103324919939041,-0.0012628105469048023,-0.009128371253609657,0.0035448819398880005,-0.004582703113555908,0.006996572017669678
-0.01320942584425211,-0.004312027711421251,0.0017368390690535307,-0.013673185370862484,-0.005763351917266846,-0.006943106651306152
-0.011403380893170834,-0.01351330615580082,-0.005103422328829765,-0.015370815061032772,-0.011015892028808594,-0.009101390838623047
0.0014371108263731003,0.0008976936805993319,-0.015534108504652977,-0.013724282383918762,-0.014982819557189941,-0.018622994422912598
-0.0017917517106980085,0.01629548706114292,-0.022080788388848305,-0.0010829418897628784,-0.009517788887023926,-0.014618754386901855
-0.018068745732307434,-0.010438498109579086,-0.006436807103455067,0.006567209959030151,-0.004492640495300293,-0.0011581182479858398
0.003548995591700077,-0.025936512276530266,0.016477398574352264,0.005369901657104492,0.0038015246391296387,-0.007377147674560547
0.028512118384242058,-0.026868008077144623,0.01675356924533844,0.004097148776054382,0.008211374282836914,-0.01099938154220581
0.03242245689034462,-0.020707733929157257,0.003249699017032981,0.007535472512245178,0.0015183687210083008,-0.00029975175857543945
-0.019374623894691467,0.018919121474027634,-0.0071930610574781895,0.004339159466326237,0.0061986446380615234,0.01805698871612549
-0.04984016716480255,0.021493183448910713,-0.019245067611336708,-0.004860459826886654,0.010555028915405273,0.015765845775604248
-0.009285416454076767,-0.012500284239649773,-0.009822390973567963,0.009532853960990906,0.00934898853302002,-0.013900160789489746
0.03044763207435608,-0.025211621075868607,-0.008904140442609787,0.011980324983596802,0.003697037696838379,-0.015907347202301025
0.03986028954386711,-0.012990839779376984,-0.01052466593682766,0.0072682201862335205,0.0019450187683105469,-0.004425406455993652
-0.00032534264028072357,0.020358145236968994,-0.002888997085392475,0.0011425614356994629,-0.0034132003784179688,0.012202978134155273
-0.04512927681207657,0.042081572115421295,-0.011250598356127739,-0.015516072511672974,-0.0057544708251953125,0.01092517375946045
-0.03948704153299332,0.0055652097798883915,-0.014569847844541073,-0.0028221160173416138,-0.01317751407623291,-0.008627057075500488
-0.013966366648674011,-0.04267014190554619,-0.016147654503583908,0.0012341588735580444,-0.008534491062164307,-0.009230613708496094
0.03224195912480354,-0.01907043159008026,0.0009059498552232981,0.007567539811134338,-0.006393492221832275,-0.02062046527862549
0.036379605531692505,0.038269057869911194,0.0070378752425313,0.0033399462699890137,-0.010209321975708008,-0.008678436279296875
0.0004066731780767441,0.016053374856710434,0.00645256694406271,-7.136166095733643e-05,-0.005779922008514404,0.007447302341461182
-0.02700760029256344,-0.03570730611681938,0.001602313481271267,0.002505689859390259,-0.008031904697418213,-0.0010837316513061523
-0.012722761370241642,-0.0010701757855713367,0.01455728430300951,0.00014442205429077148,0.00046008825302124023,-0.014251410961151123
0.002438175957649946,0.0012697861529886723,0.020472649484872818,0.0019835680723190308,-0.0013841986656188965,-0.01174253225326538
0.0037730801850557327,-0.0057271262630820274,0.008829751051962376,0.001117900013923645,-0.0004069805145263672,-0.006594717502593994
-0.04039473086595535,-0.013463467359542847,0.018062090501189232,0.005633249878883362,-0.004259645938873291,0.01611173152923584
-0.06316030025482178,0.03279546648263931,0.0096600241959095,-0.01308394968509674,-0.004334092140197754,0.012370824813842773
-0.023069899529218674,0.008789059706032276,0.004500044509768486,0.008607476949691772,-0.0046988725662231445,-0.014039278030395508
0.00982513278722763,-0.024795185774564743,-0.015110195614397526,0.0028054267168045044,-0.007684528827667236,-0.008707404136657715
0.01879812963306904,0.0004358934238553047,0.00258346414193511,0.008820146322250366,-0.0005037784576416016,-0.007828056812286377
-0.01823931373655796,0.0311900582164526,0.01402166299521923,-0.0019646137952804565,0.0007032155990600586,-0.0011970996856689453
-0.01719120517373085,0.0056992885656654835,0.027522357180714607,-0.0002921968698501587,-0.006984889507293701,-0.009699225425720215
0.019665051251649857,-0.01653899997472763,0.019640866667032242,-0.0028000017628073692,-0.004191577434539795,-0.024537384510040283
0.036118656396865845,-0.02060513012111187,-0.0074186138808727264,-0.006001889705657959,-0.005509316921234131,-0.022532105445861816
0.008126620203256607,0.001070409081876278,-0.014282198622822762,-0.003664270043373108,-0.0050016045570373535,-0.0040746331214904785
-0.016298962756991386,0.011724568903446198,0.007434162776917219,0.007278233766555786,-0.0014172196388244629,0.00010699033737182617
-0.04340348765254021,-0.009448554366827011,0.025441527366638184,0.004414871335029602,0.0008231401443481445,0.017582356929779053
0.002951120026409626,0.0023903059773147106,0.03178730234503746,-0.0007770657539367676,0.00041604042053222656,0.00011050701141357422
0.016020003706216812,0.0015777181833982468,0.013727234676480293,-0.0052731772884726524,-0.01034003496170044,-0.004107773303985596
-0.032457850873470306,-0.002573530189692974,0.011897585354745388,0.007652699947357178,-0.0070340633392333984,0.006576895713806152
-0.0463726669549942,0.0019892656709998846,0.022253725677728653,0.0021985620260238647,-0.00010472536087036133,-0.006219625473022461
0.006830211728811264,-0.02201845496892929,0.02992919087409973,-0.002310454845428467,0.006886124610900879,-0.01702558994293213
0.05012504383921623,-0.021531151607632637,0.018198207020759583,-0.0054067522287368774,0.002792835235595703,-0.01808297634124756
0.01284460537135601,-0.00483949389308691,-0.007133769802749157,-0.004995942115783691,-0.006827294826507568,0.002727806568145752
-0.05785144120454788,0.014184555038809776,-0.018683534115552902,-0.0035978704690933228,-0.008405864238739014,0.007328033447265625
-0.031784236431121826,0.03610061854124069,-0.0025173709727823734,-0.004999056458473206,-0.0038243532180786133,-0.015661954879760742
0.008846317417919636,0.0025711581110954285,0.0087205208837986,-0.004064381122589111,0.004069626331329346,-0.006448507308959961
0.02998346835374832,-0.0071647590957582,0.005181463435292244,-0.0035906434059143066,-0.00354766845703125,-0.002448439598083496
0.014931374229490757,0.005140043329447508,0.0015158713795244694,0.002354457974433899,-0.008825480937957764,0.004764914512634277
-0.037627287209033966,0.008523797616362572,-0.0033720259089022875,-0.0033701658248901367,-0.009402096271514893,0.007071137428283691
-0.05855511501431465,-0.015318118035793304,0.00742443697527051,-0.0014128684997558594,-0.0011998414993286133,-0.008919596672058105
0.003861078992486,-0.005815309472382069,0.016500618308782578,-0.007878332398831844,-0.0008856654167175293,-0.02505260705947876
0.022895026952028275,-0.004750137683004141,0.010705641470849514,-0.008069470524787903,0.002476334571838379,-0.014840185642242432
0.024780716747045517,0.013364302925765514,-0.005767820868641138,-0.0035224556922912598,-0.0030612945556640625,-0.0009646415710449219
-0.0035299048759043217,0.018863704055547714,-0.013809872791171074,-0.0018468936905264854,-0.006987631320953369,0.003536403179168701
-0.05351129174232483,-0.001248729880899191,-0.00895607378333807,0.0022747069597244263,-0.0003821849822998047,0.008426308631896973
-0.018010690808296204,-0.01905302330851555,0.013506274670362473,0.004475654102861881,-0.0011706352233886719,-0.023190677165985107
0.03405122831463814,0.0079822838306427,0.00028215860947966576,-0.016235023736953735,-0.0008026361465454102,-0.020703434944152832
-0.010845893993973732,0.013459226116538048,-0.021920211613178253,-0.004940614104270935,-0.005621016025543213,0.003796398639678955
-0.027468882501125336,0.026611696928739548,-0.04358266294002533,-0.00488397479057312,-0.01214301586151123,-0.0013701915740966797
0.023920781910419464,0.003976926673203707,-0.0435013510286808,-0.0017225593328475952,-0.0069724321365356445,-0.02292919158935547
0.004436230752617121,-0.03619259595870972,-0.015838924795389175,0.005808190442621708,-0.0047345757484436035,-0.004917800426483154
-0.009038565680384636,0.019308483228087425,-0.009481693617999554,-0.010866209864616394,-0.005577981472015381,-0.0012554526329040527
-0.00129688810557127,0.01781426928937435,-0.008749205619096756,0.0003557652235031128,-0.005957365036010742,-0.020961403846740723
0.006026357412338257,-0.024559438228607178,-0.02286631055176258,-0.0031144917011260986,-0.0093192458152771,-0.01548457145690918
0.015309495851397514,-0.02600594237446785,-0.009520112536847591,0.0037257224321365356,-0.009767651557922363,-0.0018687844276428223
0.003777523525059223,-0.013165194541215897,0.010177536867558956,0.0053377896547317505,0.0029143095016479492,0.010443806648254395
0.02222222089767456,-0.037299491465091705,0.027492893859744072,0.01590663194656372,0.0018613934516906738,-0.006452023983001709
0.04641212522983551,-0.01647081784904003,0.019878005608916283,0.003259897232055664,-0.0012587308883666992,-0.01697409152984619
0.02809198573231697,0.004207842983305454,-0.004962472710758448,-0.01033614482730627,0.0029048919677734375,-0.0030091404914855957
-0.0033872497733682394,-0.010575084947049618,-0.015698032453656197,-0.0005913078784942627,0.00034487247467041016,-1.049041748046875e-05
0.017650989815592766,-0.014844939112663269,-0.008101001381874084,-0.005363151431083679,0.008549273014068604,-0.013891398906707764
0.030311506241559982,-0.021333584561944008,0.008572114631533623,0.005548448301851749,0.00979548692703247,-0.004255354404449463
0.02121672034263611,-0.02538951113820076,0.0006364439614117146,-0.0013889819383621216,0.005540132522583008,-0.005849659442901611
-0.005898229777812958,0.00010575400665402412,-0.010414686985313892,0.004578426480293274,0.0037380456924438477,0.0076857805252075195
-0.027310315519571304,0.024687092751264572,-0.0011678952723741531,-9.28342342376709e-06,0.002294301986694336,0.006985306739807129
-0.021760329604148865,0.009650737047195435,0.008328265510499477,-0.0006993860006332397,0.003568887710571289,0.0037201642990112305
-0.021662993356585503,-0.01786619983613491,0.00555979460477829,0.009195283055305481,-0.0029203295707702637,0.0062195658683776855
0.008647621609270573,-0.03486758470535278,0.00116174784488976,0.009934008121490479,-0.009973526000976562,-0.007418632507324219
-0.001193156000226736,-0.028908146545290947,-0.009641510434448719,0.005324007011950016,-0.005731761455535889,-0.008558452129364014
-0.01745273545384407,0.005885647609829903,-0.012987733818590641,-0.0005572587251663208,-0.008930087089538574,-0.01244586706161499
0.008166974410414696,0.010226843878626823,0.0038662911392748356,0.0015806257724761963,-0.00608062744140625,-0.022439241409301758
0.022493906319141388,-0.01861540600657463,0.014263247139751911,0.006568342447280884,-0.007778584957122803,-0.012994170188903809
0.04079814627766609,-0.019874371588230133,0.011933572590351105,0.004876419901847839,-0.005542635917663574,-0.007252693176269531
0.03666352480649948,0.0014024116098880768,0.0045789023861289024,0.001894935965538025,-0.004848182201385498,-0.006979942321777344
0.007952089421451092,-0.004496779292821884,0.011460504494607449,-0.00265464186668396,-0.0022447705268859863,0.010752618312835693
-0.02174270711839199,-0.006453878246247768,0.033696047961711884,-0.0007639676332473755,-1.0371208190917969e-05,0.010677695274353027
0.0031401817686855793,0.0016294133383780718,0.03452271223068237,-0.009149312973022461,0.0006540417671203613,-0.0036692023277282715
0.04598211869597435,0.0021464223973453045,0.02852734550833702,0.0007621049880981445,-0.00081634521484375,-0.022878408432006836
0.0248694010078907,0.010878689587116241,0.017892731353640556,0.0004223734140396118,-0.0012115836143493652,-0.005924224853515625
0.0037615173496305943,0.018191995099186897,0.014507945626974106,-0.0020441263914108276,-0.0033799409866333008,0.0067064762115478516
0.005591398570686579,-0.01800698973238468,0.022602010518312454,-0.0021210163831710815,0.0019224882125854492,-0.0027036666870117188
0.02960587851703167,-0.03846900537610054,0.025675423443317413,-0.0036216825246810913,-0.00185471773147583,-0.009112954139709473
0.00019532488659024239,0.003788614645600319,0.026130618527531624,0.002354055643081665,-0.005659341812133789,0.012185215950012207
-0.04746924713253975,0.022820455953478813,0.01232094969600439,-0.005317807197570801,-0.0092812180519104,0.01470637321472168
-0.02908899635076523,-0.007680022157728672,0.0012325509451329708,-0.008165299892425537,-0.00676649808883667,-0.004901885986328125
0.018054703250527382,-0.03522036224603653,0.0002792093437165022,-0.008839711546897888,-0.0021097660064697266,-0.023353397846221924
0.022712327539920807,-0.008401954546570778,0.011704128235578537,0.004529120400547981,-0.006104826927185059,-0.02086848020553589
-0.009439747780561447,0.016762442886829376,0.01661762036383152,0.0002461988478899002,-0.0014739632606506348,-0.009939253330230713
-0.004941072314977646,-0.004790525883436203,0.014234187081456184,0.0024586766958236694,-0.006982147693634033,-0.008252441883087158
-0.013690110296010971,-0.002566899638622999,0.003479853505268693,-0.0071309953927993774,-0.004965066909790039,0.0031278133392333984
-0.0004306286573410034,0.007081022020429373,-0.004008039832115173,-0.004169059917330742,-0.006879687309265137,-0.010197758674621582
0.008757718838751316,-0.0198432095348835,-0.011097884736955166,-0.0022583752870559692,-0.0018988847732543945,0.0012641549110412598
0.023978326469659805,-0.035083621740341187,0.009475763887166977,-0.00020016729831695557,0.0005894899368286133,-0.0017338395118713379
-0.00253521790727973,0.015593230724334717,0.021474963054060936,-0.01115049421787262,0.001892685890197754,0.013822436332702637
-0.044968824833631516,0.02771543338894844,0.006497677881270647,-0.0020114928483963013,-0.0026294589042663574,0.012511074542999268
-0.015267633832991123,-0.0036857863888144493,-0.034131020307540894,-0.008959082886576653,-0.004333913326263428,-0.007227778434753418
0.008591031655669212,-0.030902588739991188,-0.03393646329641342,0.003110930323600769,-0.0015227794647216797,-0.014015793800354004
0.020689547061920166,0.0009024597238749266,-0.017014838755130768,-0.005409924313426018,0.004523754119873047,-0.006916463375091553
-0.0029945678543299437,0.016558438539505005,0.0038169657345861197,0.005987809970974922,0.005450606346130371,-0.0022957921028137207
0.003072739578783512,0.017530342563986778,-0.0001799610909074545,-0.0027558356523513794,0.001636505126953125,-0.0008752346038818359
0.011920444667339325,0.009842099621891975,-0.02335149422287941,-0.003189951181411743,-0.0019611120223999023,0.00047010183334350586
-0.015970349311828613,-0.0009876242838799953,-0.031868450343608856,0.0012238342314958572,-0.0031905770301818848,0.0035281777381896973
-0.015785973519086838,0.022895462810993195,-0.02384270913898945,0.0029195845127105713,0.00042724609375,-0.0056113600730896
-0.025602472946047783,0.03494197875261307,-0.0016396800056099892,0.00773388147354126,0.005794823169708252,-0.00961214303970337
-0.029873821884393692,0.003274956252425909,-0.0018479794962331653,0.0017075706273317337,0.005356788635253906,-0.0031026601791381836
-0.006196062080562115,-0.009268508292734623,-0.01646643504500389,0.0006162673234939575,-0.001764833927154541,0.005296230316162109
0.01486909482628107,0.0020721368491649628,-0.028923317790031433,-0.008500009775161743,-0.005235075950622559,0.0013176202774047852
-0.04915132001042366,0.00664902850985527,-0.03501434624195099,-0.005069658160209656,-0.009194612503051758,0.016528844833374023
-0.08431079238653183,-0.011413803324103355,-0.027288850396871567,-0.009251520037651062,-0.004594683647155762,-0.005915641784667969
-0.0254035796970129,-0.012575089000165462,-0.028032276779413223,-0.013613207265734673,-0.003069937229156494,-0.03829395771026611
0.021952040493488312,-0.010939345695078373,-0.025739284232258797,-0.006481736898422241,-0.0036423802375793457,-0.034500956535339355
0.024645250290632248,-0.004033038858324289,-0.010018210858106613,0.0020768195390701294,-0.008321046829223633,-0.009767413139343262
-0.008712907321751118,-0.002641621045768261,-0.012720199301838875,0.0018897056579589844,-0.011156857013702393,0.00614696741104126
-0.022609636187553406,-0.01789170689880848,-0.0009362574201077223,0.010241031646728516,-0.008766472339630127,-0.003666222095489502
-0.0292725320905447,-0.01733119785785675,0.003946705721318722,0.0027929842472076416,-0.008459985256195068,-0.00556337833404541
0.0018033608794212341,-0.01416515652090311,0.009371606633067131,-0.0008757244795560837,0.0024556517601013184,-0.011191010475158691
0.020269745960831642,-0.017331436276435852,0.0061410702764987946,0.006802722811698914,-0.0007645487785339355,-0.014504730701446533
0.012306956574320793,0.0058357371017336845,0.004267142154276371,0.004329204559326172,0.00043189525604248047,-0.0063825249671936035
-0.03794436156749725,0.0027648676186800003,-0.0010457951575517654,0.005260840058326721,-0.0025791525840759277,0.020891547203063965
-0.042712971568107605,-0.018272988498210907,-0.007496128790080547,-0.0007003843784332275,0.0024126172065734863,0.00201570987701416
0.010461589321494102,-0.010667940601706505,-0.002651622984558344,0.0022868365049362183,0.0041062235832214355,-0.012884020805358887
0.03894447162747383,0.0015232712030410767,-0.013908074237406254,0.0052832067012786865,0.0008255839347839355,-0.01621377468109131
0.032593145966529846,0.017026744782924652,-0.01604325883090496,0.0024472344666719437,0.0011817216873168945,-0.012742817401885986
-0.022345252335071564,0.010083021596074104,-0.014364505186676979,0.003077760338783264,-0.003994941711425781,0.006371259689331055
-0.037274327129125595,-0.017654774710536003,-0.006131052505224943,-0.0006845593452453613,-0.001843869686126709,-0.0013276338577270508
-0.012641090899705887,-0.005550971254706383,0.005255117081105709,0.00012162327766418457,-0.004506349563598633,-0.002446115016937256
-0.014785291627049446,-0.004388981498777866,0.008073566481471062,-0.0027177035808563232,-0.008035242557525635,0.00032138824462890625
-0.01039966568350792,0.006222734227776527,0.013222998939454556,-0.0021988898515701294,-0.00924527645111084,-0.002189815044403076
-0.017766255885362625,-0.00016097258776426315,0.008255446329712868,0.0012523829936981201,-0.008434891700744629,0.0009104609489440918
-0.014052811078727245,0.006520984694361687,0.004573569633066654,-0.011469705030322075,-0.007938146591186523,-0.015712440013885498
0.00960096437484026,-0.01106034591794014,0.015465029515326023,0.0070416927337646484,-0.00011807680130004883,-0.020508646965026855
0.04179061949253082,-0.0008410573936998844,0.02037392184138298,-0.007055982947349548,-0.0002872943878173828,-0.013772845268249512
0.01121250819414854,0.009022537618875504,0.0064383456483483315,-0.0038456302136182785,-0.00917208194732666,0.009718537330627441
-0.017033619806170464,0.00915050320327282,-0.0073117949068546295,0.004270017147064209,-0.0038450956344604492,0.004642486572265625
0.011048570275306702,0.01588122919201851,-0.010134352371096611,0.0043593645095825195,-0.0016849637031555176,-0.01670306921005249
-0.02708328142762184,-0.028068624436855316,0.0030855918303132057,0.007613644003868103,0.005795300006866455,0.0014960765838623047
0.014012026600539684,0.00598211120814085,0.01691674254834652,-0.0026489049196243286,0.00092315673828125,-0.01715761423110962
0.014816301874816418,0.014518873766064644,0.01252279244363308,0.00023251771926879883,-0.0049637556076049805,-0.0019245743751525879
0.014722444117069244,0.03338693827390671,0.0032021438237279654,-0.0038012713193893433,-0.0035799145698547363,-0.009511888027191162
-0.010520593263208866,0.01391010545194149,0.0008891429752111435,0.0022404640913009644,-0.00032448768615722656,0.0015943050384521484
-0.016819480806589127,-0.012262001633644104,0.017113611102104187,0.006318524479866028,-0.0020401477813720703,-0.00863504409790039
-0.006845428608357906,-0.014930419623851776,0.023970192298293114,-0.0011800527572631836,0.003721475601196289,-0.01114797592163086
0.0015743537805974483,0.009396581910550594,0.016608623787760735,-0.004428371787071228,-0.00165635347366333,0.0012980103492736816
0.002861037850379944,0.039840299636125565,0.010862519033253193,-0.00018134526908397675,-0.003692805767059326,0.00041371583938598633
-0.015215413644909859,0.027798138558864594,0.0024340995587408543,-0.0027232468128204346,-0.006083965301513672,0.0019665956497192383
0.0005574016831815243,-0.009221433661878109,0.002758821938186884,-0.0024750661104917526,-0.006695568561553955,-0.011972248554229736
-0.012630371376872063,-0.01791531778872013,0.017397591844201088,-0.0007330775260925293,-0.00201261043548584,-0.00013577938079833984
-0.004698543809354305,0.017548220232129097,0.009126730263233185,-0.009588629007339478,-0.002722442150115967,-0.011786818504333496
-0.000947816763073206,0.027234047651290894,-0.006258375011384487,-0.004315048456192017,-0.008250713348388672,-0.015270829200744629
-0.003449991811066866,0.014804501086473465,-0.014337398111820221,-0.0033467095345258713,-0.004751801490783691,-0.008607208728790283
0.018247803673148155,-0.001367214135825634,-0.0009283100953325629,-0.0024779587984085083,0.0002486109733581543,-0.014392495155334473
0.026256706565618515,0.008032640442252159,0.0024089834187179804,-0.003826988860964775,-0.0020470619201660156,-0.0052904486656188965
0.0009951372630894184,-0.006282927468419075,0.004579345695674419,0.00760766863822937,-0.0025538206100463867,0.010759711265563965
0.011612249538302422,0.014990609139204025,0.005494477227330208,0.002118632197380066,-0.003217339515686035,-0.0036853551864624023
-0.009159605018794537,0.01606004498898983,0.013958236202597618,0.006157472729682922,0.0033206939697265625,0.0025072097778320312
-0.026788001880049706,0.015591243281960487,0.008596641942858696,-0.005633443593978882,-0.004031836986541748,0.0059601664543151855
-0.04734809324145317,0.003016476985067129,0.005478752311319113,-0.0007421821355819702,-0.004395127296447754,-0.0061078667640686035
-0.0045249080285429955,-0.014509227126836777,0.015552172437310219,-0.0009416043758392334,-0.0016671419143676758,-0.020150065422058105
0.026928577572107315,-0.005783525295555592,0.012128005735576153,-0.002023652195930481,-0.0024509429931640625,-0.008147656917572021
0.01875493861734867,-0.003930142614990473,-0.004309440962970257,-0.0033621937036514282,-0.0056133270263671875,-3.2186508178710938e-06
-0.04189014434814453,-0.009922764264047146,-0.00344673590734601,0.0009831339120864868,-0.0031933188438415527,0.006830155849456787
-0.034933902323246,-0.0034064478240907192,0.0020066401921212673,-0.009486392140388489,-0.00022989511489868164,-0.009051918983459473
0.009245768189430237,-0.0020968541502952576,0.000909280264750123,-0.005396662279963493,-0.003796875476837158,-0.02497488260269165
0.018737072125077248,-0.014298389665782452,-0.01168019138276577,-0.0059204380959272385,0.0019044280052185059,0.0013895630836486816
0.0028447723016142845,-0.013372179120779037,-0.01469339057803154,0.00243397057056427,-0.0040642619132995605,0.00463944673538208
-0.03496355190873146,0.012520646676421165,-0.018056528642773628,-0.0005664974451065063,-0.0036144256591796875,0.011919558048248291
-0.037052981555461884,-0.002170052845031023,-0.004702580161392689,0.005889832973480225,0.002012491226196289,0.005849301815032959
-0.01966877281665802,0.013182589784264565,-0.006037901155650616,-0.0066285282373428345,-0.0007822513580322266,-0.0030817389488220215
0.001697746105492115,0.0022127351257950068,-0.01318095251917839,-0.0028908103704452515,-0.0009524822235107422,-0.004288673400878906
0.010130776092410088,-0.034489378333091736,-0.044603656977415085,0.0028190314769744873,-0.0030879974365234375,-0.001972019672393799
0.05114680901169777,-0.046898506581783295,-0.03325510397553444,0.009334893897175789,0.001939535140991211,-0.029308736324310303
0.03146743029356003,0.003495224053040147,-0.0147441690787673,0.006375910714268684,-0.0063629150390625,-0.008515775203704834
-0.06326813995838165,-0.009421290829777718,0.008869851008057594,0.0029291361570358276,-0.0028982162475585938,0.014249563217163086
-0.02791418507695198,0.008228044956922531,0.0017467851284891367,0.001322748139500618,-0.003902733325958252,-0.015872597694396973
0.019526124000549316,0.010519459843635559,-0.009281087666749954,0.005564898252487183,-0.008911728858947754,-0.024860858917236328
-0.0064782253466546535,0.029917951673269272,-0.009908783249557018,0.0003592967987060547,-0.002074301242828369,-0.004438281059265137
0.008485078811645508,0.012573497369885445,-0.0066530113108456135,-0.008796364068984985,-0.009645640850067139,-0.007201552391052246
-0.004601806402206421,-0.018193796277046204,0.010628043673932552,0.003447921946644783,-0.007456839084625244,-0.0072432756423950195
0.007115768734365702,0.009795048274099827,0.01628720387816429,-0.0018447190523147583,-0.006382584571838379,-0.00901174545288086
-0.001548625761643052,0.024304833263158798,0.006971410475671291,-0.0010339170694351196,-0.0027512311935424805,-0.006555318832397461
-0.021450474858283997,-0.004111169371753931,0.003556876676157117,0.005381748080253601,-0.0004978179931640625,-0.004273891448974609
0.0007305950857698917,0.0021465604659169912,0.0011095406953245401,0.0029213130474090576,0.0015205740928649902,-0.01305687427520752
0.015277689322829247,-0.003147946670651436,0.0033601580653339624,-0.00012889504432678223,0.0023447275161743164,-0.011147260665893555
0.013947667554020882,0.005705973133444786,0.006011907011270523,0.00018195807933807373,-0.0007196664810180664,-0.00024712085723876953
-0.021602915599942207,-0.01821708492934704,0.008199289441108704,0.0007704645395278931,-0.004542171955108643,0.007493436336517334
-0.019714556634426117,-0.01610593870282173,-0.0017531884368509054,0.006104558706283569,-0.001767277717590332,0.0076454877853393555
0.009190084412693977,0.014613122679293156,-0.007461755070835352,-0.0041971635073423386,-0.003971278667449951,-0.008462011814117432
-0.00926114246249199,0.008980540558695793,0.0010272820945829153,0.005920484662055969,-0.002716362476348877,0.008925020694732666
-0.08065962046384811,-0.0016150879673659801,-0.005458870902657509,-0.010785520076751709,-0.003139495849609375,0.013689935207366943
-0.05686592310667038,-0.03810444474220276,0.0004950521979480982,0.003042280673980713,-0.002631545066833496,-0.01984250545501709
0.006456015631556511,-0.02500024437904358,-0.007648234721273184,-0.0008995682001113892,-0.006711363792419434,-0.02511012554168701
0.01916060410439968,-0.003368217498064041,-0.0004371112445369363,0.0011758655309677124,-0.0005805492401123047,-0.008142828941345215
-0.003190991235896945,0.024495594203472137,0.0013981529045850039,-0.00893402099609375,-0.0010860562324523926,0.0013091564178466797
-0.019499482586979866,-0.009817300364375114,-0.007250980474054813,-0.005903301760554314,0.007142841815948486,0.001854538917541504
-0.04710252583026886,-0.056191690266132355,-0.035369690507650375,-0.029681697487831116,-0.0047501325607299805,-0.0003217458724975586
-0.07854273915290833,0.03755379468202591,-0.004492965526878834,-0.018928512930870056,0.07838928699493408,-0.009464383125305176
-0.06734870374202728,0.013249751180410385,0.04391886293888092,0.036349713802337646,-0.0666656494140625,0.015177011489868164
0.04851149767637253,-0.02028612792491913,0.03436022624373436,0.015167266130447388,0.009220540523529053,-0.06795966625213623
0.04975586384534836,-0.045916829258203506,0.017896413803100586,0.01834486424922943,-0.010125041007995605,-0.01470184326171875
-0.010997475124895573,-0.05478539317846298,0.004928601440042257,-0.015005350112915039,-0.0025367140769958496,0.014837682247161865
-9.180745109915733e-05,-0.03461218625307083,-0.008604330010712147,-0.015517530962824821,0.0005957484245300293,-0.0006871819496154785
0.017964309081435204,-0.0452016144990921,0.0018596441950649023,-0.00016929209232330322,0.00040531158447265625,-0.006715893745422363
0.019710900261998177,-0.0014880001544952393,0.0035746884532272816,0.004238933324813843,-0.011498093605041504,-0.017427504062652588
-0.039911482483148575,0.029595624655485153,-0.019491046667099,-0.015807002782821655,-0.004477083683013916,0.029641270637512207
-0.07275602221488953,-0.035940393805503845,-0.017475703731179237,0.0033583492040634155,-0.010355234146118164,0.018780291080474854
0.021786192432045937,0.01329107116907835,0.013217760249972343,0.006260797381401062,-0.004619181156158447,-0.023435533046722412
-0.006057220511138439,0.014624242670834064,0.008432770147919655,-0.006223037838935852,0.0004183053970336914,0.007861316204071045
-0.01199050061404705,-0.005110870581120253,0.00611669709905982,0.004052162170410156,-0.002260148525238037,-0.011923432350158691
0.026090065017342567,-0.010146616958081722,-0.009570730850100517,-0.003760620951652527,-0.006905674934387207,-0.035341620445251465
0.008577517233788967,-0.020713428035378456,-6.15257304161787e-05,0.0038920342922210693,-0.0026074647903442383,-0.001260995864868164
-0.01327725313603878,-0.021660521626472473,-0.007730398792773485,-0.006075931712985039,0.0050356388092041016,-0.002217113971710205
-0.0030676929745823145,-0.003848239779472351,-0.02447839081287384,-0.010074332356452942,-0.0001856684684753418,-0.0034952163696289062
0.02037627622485161,-0.015194084495306015,-0.00902059767395258,0.0075836628675460815,-0.006849825382232666,-0.007376968860626221
