rotation_x,rotation_y,rotation_z,acceleration_x,acceleration_y,acceleration_z
-0.06715542078018188,0.037469927221536636,0.10356578975915909,-0.027244433760643005,-0.07625269889831543,0.06747734546661377
-0.10705486685037613,0.1564679592847824,0.14354045689105988,-0.03264138102531433,-0.08326607942581177,0.05161786079406738
-0.004567859228700399,0.06433751434087753,0.18003447353839874,-0.03521469235420227,-0.08773669600486755,-0.01697784662246704
0.0929240807890892,-0.13628266751766205,0.1881411373615265,-0.024989813566207886,-0.06071269512176514,-0.046299099922180176
0.13932187855243683,-0.22878505289554596,0.18067699670791626,-0.01712930202484131,-0.041314780712127686,-0.01808685064315796
0.15569177269935608,-0.13903559744358063,0.1692076474428177,-0.025841861963272095,-0.04785016179084778,0.0324857234954834
0.1470918208360672,-0.010401938110589981,0.18143416941165924,-0.029259294271469116,-0.046147942543029785,0.06530684232711792
0.0954013392329216,0.021701771765947342,0.18596436083316803,-0.026647061109542847,-0.037808388471603394,0.07558560371398926
0.06812550127506256,-0.01018805056810379,0.17482014000415802,-0.03704342246055603,-0.027840644121170044,0.061917126178741455
0.07650358229875565,-0.05934587121009827,0.16450917720794678,-0.041053399443626404,-0.014013737440109253,0.03926241397857666
0.06487631052732468,-0.05824602395296097,0.14227086305618286,-0.04322792589664459,-0.00549742579460144,0.03546285629272461
0.0544857531785965,-0.032496120780706406,0.10850150138139725,-0.04513481259346008,-0.0021128952503204346,0.038106322288513184
0.0844900831580162,-0.009925137273967266,0.08675777167081833,-0.043088287115097046,-0.003667503595352173,0.017889440059661865
0.0763755738735199,-0.003458204912021756,0.08228293806314468,-0.03564317524433136,7.784366607666016e-05,0.012070000171661377
0.03280499204993248,-0.03321915492415428,0.08383405208587646,-0.027276769280433655,0.004084646701812744,0.016652584075927734
0.017224999144673347,-0.05709286034107208,0.09552396833896637,-0.022637754678726196,0.003045797348022461,0.006883382797241211
0.012422836385667324,-0.03422587737441063,0.0975942388176918,-0.021955817937850952,0.006486326456069946,0.0044591426849365234
0.015345988795161247,-0.034686654806137085,0.06465205550193787,-0.024151325225830078,0.013020962476730347,0.007384359836578369
0.050165291875600815,-0.07684747129678726,0.041796863079071045,-0.016199856996536255,0.017859667539596558,-0.002063751220703125
0.04216849431395531,-0.07963130623102188,0.022775568068027496,-0.019677042961120605,0.00845557451248169,0.009622037410736084
-0.0054090083576738834,-0.03907093405723572,0.025621801614761353,-0.010667353868484497,0.0027889907360076904,0.03322553634643555
-0.028873611241579056,-0.010590555146336555,0.03037251904606819,-0.004005491733551025,0.0015473365783691406,0.030791163444519043
-0.02110203728079796,0.011990237049758434,0.03271174058318138,0.0021070390939712524,0.0073951780796051025,0.017380237579345703
-0.006562771275639534,0.0041313148103654385,0.036175403743982315,0.00643785297870636,0.003512442111968994,0.002768397331237793
0.006319981999695301,0.0007104136748239398,0.02524307183921337,0.004288792610168457,-0.0018929839134216309,-0.0021489858627319336
0.020039012655615807,-0.023011622950434685,0.00064883753657341,0.0020985007286071777,0.005648761987686157,-0.011671662330627441
0.015903662890195847,-0.003761695232242346,0.0011651809327304363,0.011886537075042725,0.0035577118396759033,-0.008060693740844727
0.013720069080591202,0.01382879912853241,0.013836445286870003,0.019452527165412903,-0.002330094575881958,-0.005680084228515625
0.02586446888744831,0.0207255557179451,0.039772678166627884,0.022912338376045227,-0.003449350595474243,-0.006851911544799805
0.029329579323530197,0.026644714176654816,0.055099714547395706,0.01883763074874878,-0.004813432693481445,-0.0034040212631225586
0.024231089279055595,0.021669762209057808,0.06573121249675751,0.02139391005039215,0.001324295997619629,0.0014403462409973145
0.0019915816374123096,0.02808045782148838,0.06308868527412415,0.015033572912216187,0.0013199448585510254,0.008643686771392822
-0.007863273844122887,0.044681791216135025,0.05072512477636337,0.006857767701148987,-0.0010950565338134766,0.008404195308685303
0.018874814733862877,0.05933694541454315,0.034227680414915085,0.007407382130622864,0.0023919641971588135,0.0008354783058166504
0.039067767560482025,0.08703936636447906,0.029971472918987274,0.011553019285202026,0.004401445388793945,-0.0044689178466796875
0.035976145416498184,0.0978742465376854,0.03689466789364815,0.011073112487792969,-0.0007162988185882568,-0.0007225275039672852
0.020479368045926094,0.07359044998884201,0.051437292248010635,0.006632298231124878,-0.005660951137542725,-0.0004042387008666992
0.01592254266142845,0.05484768748283386,0.05307683348655701,0.004709556698799133,0.0005466043949127197,-0.006114006042480469
0.029582371935248375,0.039246611297130585,0.049901366233825684,0.0010205507278442383,0.005419403314590454,-0.011271417140960693
0.04111481457948685,0.044411975890398026,0.04556594789028168,-0.00386124849319458,0.006723850965499878,-0.008937597274780273
0.03356841579079628,0.05834808200597763,0.03808906674385071,-0.0035503506660461426,0.011625289916992188,0.004327535629272461
0.024736437946558,0.05923767760396004,0.027308747172355652,-0.01110181212425232,0.01719728112220764,0.0009706020355224609
0.031241077929735184,0.04379390925168991,0.02887825481593609,-0.010322779417037964,0.01756468415260315,-0.006231367588043213
0.05725209787487984,0.011370168998837471,0.028091546148061752,-0.008078739047050476,0.017728596925735474,-0.01587778329849243
0.07804878056049347,-0.010379517450928688,0.0005229129455983639,-0.0135098397731781,0.022854536771774292,-0.005249321460723877
0.060241881757974625,-0.0013136996421962976,-0.023709625005722046,-0.019481152296066284,0.023023784160614014,0.015734493732452393
0.020154142752289772,0.030942240729928017,-0.03102177008986473,-0.01545017957687378,0.020641058683395386,0.03602707386016846
-0.02157161757349968,0.06998813897371292,-0.014781573787331581,-0.005772069096565247,0.017696261405944824,0.04094493389129639
-0.054094795137643814,0.07545291632413864,0.006190621294081211,0.0016297399997711182,0.01828092336654663,0.03166806697845459
-0.03413433954119682,0.019652195274829865,0.018446432426571846,-0.0011056363582611084,0.018475472927093506,0.004371166229248047
-0.016782458871603012,-0.04592840373516083,0.00861567072570324,-0.007822945713996887,0.020324736833572388,-0.005585312843322754
-0.008327251300215721,-0.07086826115846634,-0.014254854992032051,-0.009895816445350647,0.022310197353363037,0.004945933818817139
-0.02684059925377369,-0.05778811126947403,-0.029823938384652138,-0.012954384088516235,0.015405505895614624,0.020311057567596436
-0.07161902636289597,-0.016073077917099,-0.025986025109887123,-0.009644642472267151,0.00568079948425293,0.030814409255981445
-0.08450351655483246,0.005012388341128826,-0.02062034234404564,-0.00816953182220459,-0.0009001493453979492,0.013953089714050293
-0.05917729437351227,-0.015430682338774204,-0.031673070043325424,-0.003995448350906372,0.005882322788238525,-0.013659179210662842
-0.017600037157535553,-0.04080621898174286,-0.07019747048616409,-0.005342930555343628,0.005455285310745239,-0.020722031593322754
0.021014466881752014,-0.0738493874669075,-0.09536541253328323,0.0009084939956665039,0.002741396427154541,-0.020547807216644287
0.035519324243068695,-0.07238199561834335,-0.06750094145536423,0.013257324695587158,-0.005664020776748657,-0.010782063007354736
0.018461210653185844,-0.04443385452032089,-0.02258460596203804,0.023037835955619812,-0.011976510286331177,0.009189009666442871
0.01120017934590578,-0.025352757424116135,0.02175273559987545,0.024987921118736267,-0.014499485492706299,0.013591289520263672
0.009816656820476055,-0.020493684336543083,0.04105700924992561,0.01635824143886566,-0.010174602270126343,0.008838176727294922
-0.006147175561636686,-0.040011145174503326,0.030375909060239792,0.0014989525079727173,-0.0029710233211517334,0.009196460247039795
0.0004808874800801277,-0.04519805312156677,-0.005422215908765793,-0.015184134244918823,0.006262034177780151,0.002843916416168213
0.018095603212714195,-0.049174077808856964,-0.04876085743308067,-0.019123882055282593,0.013202667236328125,-0.0026856660842895508
0.01833486743271351,-0.038915619254112244,-0.06077093258500099,-0.01371300220489502,0.013955682516098022,0.0028986334800720215
-0.0026267964858561754,-0.0351344458758831,-0.044157594442367554,-0.00413377583026886,0.010346293449401855,0.006629467010498047
-0.000603600637987256,-0.04978056997060776,-0.037254899740219116,-4.976987838745117e-05,0.01098141074180603,0.004699409008026123
0.01327631063759327,-0.062071576714515686,-0.056102439761161804,-0.007952570915222168,0.01553305983543396,0.0048961639404296875
0.006158074364066124,-0.04492957144975662,-0.09080375730991364,-0.01586732268333435,0.019750922918319702,0.018194258213043213
-0.018610015511512756,-0.02578774467110634,-0.12476140260696411,-0.01289406418800354,0.024108588695526123,0.029365360736846924
-0.030329087749123573,0.001305967103689909,-0.13119307160377502,-0.001115158200263977,0.025706112384796143,0.03002619743347168
-0.04082890599966049,0.03028947114944458,-0.1231047660112381,0.0045412033796310425,0.01828324794769287,0.02703148126602173
-0.05220916122198105,0.047774117439985275,-0.09594190120697021,0.017592325806617737,0.014987587928771973,0.020412981510162354
-0.05113909766077995,0.07362308353185654,-0.08855725824832916,0.018758967518806458,0.010866165161132812,0.00903862714767456
-0.04209358990192413,0.023174649104475975,-0.08105037361383438,0.012802720069885254,0.007268697023391724,-0.004732906818389893
-0.05899259075522423,-0.05343934893608093,-0.0759829506278038,0.010873422026634216,0.004317551851272583,-0.011964857578277588
-0.08243729174137115,-0.09428679943084717,-0.06210087239742279,0.014824867248535156,0.002354443073272705,-0.008935511112213135
-0.08453334122896194,-0.05631089210510254,-0.05102778598666191,0.013964161276817322,-0.0037616491317749023,-0.0087929368019104
-0.04924684017896652,-0.018638312816619873,-0.053873080760240555,0.015405029058456421,-0.005346059799194336,-0.018915891647338867
-0.0020917938090860844,-0.009057573974132538,-0.0698808878660202,0.011308372020721436,-0.0035312771797180176,-0.030843079090118408
0.02389518916606903,-0.06023344025015831,-0.08897125720977783,0.0187690407037735,0.00645563006401062,-0.026473164558410645
0.020354678854346275,-0.07090955227613449,-0.08178455382585526,0.024992257356643677,0.0003738701343536377,-0.009113311767578125
0.00451052887365222,-0.040606364607810974,-0.06398254632949829,0.0283423513174057,-0.0057229697704315186,0.012919485569000244
0.008018690161406994,-0.00940236821770668,-0.029769815504550934,0.03661477565765381,-0.008928030729293823,0.017989039421081543
0.0015152031555771828,0.01726098172366619,0.005487547256052494,0.03852348029613495,-0.011064499616622925,0.019096195697784424
-0.01816142536699772,0.03404891863465309,0.03844480961561203,0.033610254526138306,-0.01305466890335083,0.025894522666931152
-0.0321129634976387,0.022594988346099854,0.05320966988801956,0.0303400456905365,-0.0025779008865356445,0.023653924465179443
-0.01630443148314953,-0.009489630348980427,0.04203393682837486,0.02377583086490631,0.00551295280456543,0.018646240234375
-0.011317715048789978,0.018773209303617477,0.03977455571293831,0.018644094467163086,0.01051512360572815,0.021070361137390137
-0.036590054631233215,0.08622801303863525,0.04571828246116638,0.00977267324924469,0.004661619663238525,0.02942824363708496
-0.06282098591327667,0.11725068092346191,0.06635967642068863,0.01531192660331726,0.009244322776794434,0.016329288482666016
-0.04582422226667404,0.07023748010396957,0.08170603960752487,0.013493835926055908,0.009265094995498657,-0.021666884422302246
-0.012244018726050854,-0.016573414206504822,0.07809623330831528,0.003341466188430786,0.012163341045379639,-0.04137146472930908
-0.0021208375692367554,-0.05761472508311272,0.07008916139602661,-0.004599213600158691,0.012164205312728882,-0.03214496374130249
-0.009060399606823921,-0.02685639262199402,0.05154639482498169,-0.010127127170562744,0.012467712163925171,-0.008868932723999023
-0.005924212746322155,0.0002279694890603423,0.035188380628824234,-0.01326480507850647,0.014267116785049438,0.003966629505157471
-0.0039977445267140865,0.005529374815523624,0.02240084856748581,-0.01256030797958374,0.01367899775505066,0.006753504276275635
-0.03202885389328003,0.0025327191688120365,0.017232496291399002,-0.01359286904335022,0.008904844522476196,0.0169905424118042
-0.048260681331157684,-0.02099640853703022,0.011858348734676838,-0.009882092475891113,0.005440741777420044,0.02105611562728882
-0.056963689625263214,-0.016268648207187653,0.011138129979372025,-0.006201609969139099,0.006769746541976929,0.023155629634857178
-0.06216437369585037,-0.00027118955040350556,0.00394802913069725,-0.010193601250648499,0.0017957985401153564,0.02954113483428955
-0.08126476407051086,0.044417865574359894,-0.012242559343576431,-0.016758590936660767,-0.0006430447101593018,0.03329414129257202
-0.0918121337890625,0.06139454245567322,-0.03505736216902733,-0.019177541136741638,-0.00044858455657958984,0.02170497179031372
-0.09684813767671585,0.07189899682998657,-0.049040548503398895,-0.01309022307395935,0.0037750601768493652,0.0036524534225463867
-0.07749524712562561,0.05172433704137802,-0.055431876331567764,-0.005981564521789551,0.006065845489501953,-0.020260214805603027
-0.03280581906437874,0.019582776352763176,-0.06007713824510574,-0.0023926347494125366,0.002348959445953369,-0.038758039474487305
0.010334379971027374,-0.0004232390783727169,-0.0668276846408844,0.0003639012575149536,0.004258096218109131,-0.04087841510772705
0.027939341962337494,-0.02002234011888504,-0.06431754678487778,0.007571429014205933,0.009524941444396973,-0.033923447132110596
0.024360327050089836,-0.04549407958984375,-0.04114968702197075,0.01819247007369995,0.007857203483581543,-0.01868152618408203
0.014242327772080898,-0.06842891871929169,-0.014669053256511688,0.024013221263885498,0.0029600858688354492,-0.00561368465423584
0.011521020904183388,-0.08609701693058014,0.0043609063141047955,0.02567233145236969,0.0043103694915771484,0.004984140396118164
0.008804593235254288,-0.08052468299865723,0.01399147231131792,0.024195745587348938,0.003021419048309326,0.015643715858459473
0.002682671882212162,-0.055288467556238174,0.020868266001343727,0.02371111512184143,0.002925485372543335,0.02542024850845337
-0.009212084114551544,-0.0321665033698082,0.025104910135269165,0.023967474699020386,0.005116254091262817,0.031196415424346924
-0.02621857076883316,0.023648275062441826,0.02811533771455288,0.019279837608337402,0.003198593854904175,0.03268694877624512
-0.04339146241545677,0.0869656503200531,0.03568771481513977,0.007828488945960999,-0.003286302089691162,0.03006303310394287
-0.04704508185386658,0.12907953560352325,0.018635407090187073,-0.003787904977798462,-0.0023735761642456055,0.014926552772521973
-0.02681836485862732,0.1336842179298401,-0.020653188228607178,-0.014333948493003845,0.0029642879962921143,-0.007574915885925293
0.008511349558830261,0.16526289284229279,-0.05347151309251785,-0.024950623512268066,-0.00422629714012146,-0.022534966468811035
0.02022252418100834,0.110379658639431,-0.06659504771232605,-0.023344755172729492,-0.0076417624950408936,-0.033696532249450684
0.03537639230489731,-0.0037576425820589066,-0.07182883471250534,-0.011655434966087341,-0.001935720443725586,-0.04471421241760254
0.05985066667199135,-0.05525842308998108,-0.06729865074157715,-0.003673642873764038,-0.0011379718780517578,-0.03956770896911621
0.0851212739944458,-0.03491410240530968,-0.06517599523067474,-0.007009625434875488,-0.009187430143356323,-0.02277928590774536
0.09918710589408875,-0.008540669456124306,-0.0491558238863945,-0.0036132633686065674,-0.008996427059173584,-0.006469905376434326
0.08063678443431854,-0.013963150791823864,-0.01464180089533329,0.003526926040649414,-0.007399946451187134,0.0051694512367248535
0.07927233725786209,-0.06830864399671555,0.015764063224196434,0.013131573796272278,0.001191169023513794,0.002365410327911377
0.09285814315080643,-0.10357122123241425,0.02612699195742607,0.008350715041160583,0.00830182433128357,0.0010317564010620117
0.09890463203191757,-0.11980339139699936,0.011405976489186287,-0.0011933892965316772,0.012261509895324707,0.018081068992614746
0.09432033449411392,-0.11464762687683105,-0.014395159669220448,-0.001977771520614624,0.0216943621635437,0.04350471496582031
0.06781366467475891,-0.07637166231870651,-0.03610341623425484,0.0012072324752807617,0.030444800853729248,0.0743446946144104
-0.031900759786367416,0.041151151061058044,-0.032823704183101654,0.007249265909194946,0.03230878710746765,0.10311710834503174
-0.14521734416484833,0.13449051976203918,-0.01802569441497326,0.013173013925552368,0.025764822959899902,0.09575718641281128
-0.13950033485889435,0.1232377365231514,0.0037103095091879368,0.012041032314300537,0.01334071159362793,0.023194551467895508
-0.08214422315359116,0.025083567947149277,-0.010974906384944916,0.00793910026550293,0.019215047359466553,-0.04601842164993286
-0.021765761077404022,-0.06974579393863678,-0.05910269916057587,-0.004223167896270752,0.022000491619110107,-0.0694851279258728
0.001089644618332386,-0.06437675654888153,-0.08732689917087555,-0.01077917218208313,0.013553410768508911,-0.05229729413986206
-0.0032900855876505375,-0.01910930871963501,-0.09915313869714737,-0.011075899004936218,-0.0016782283782958984,-0.02365511655807495
-0.004120776429772377,0.012832628563046455,-0.10227987170219421,-0.008037090301513672,-0.009446978569030762,-0.00908505916595459
0.015473414212465286,-0.010331213474273682,-0.1019497737288475,-0.000922858715057373,-0.011895358562469482,-0.009566187858581543
0.03549613058567047,-0.0454888716340065,-0.1002054512500763,0.005990520119667053,-0.00911054015159607,-0.00448232889175415
0.03363886475563049,-0.04998747631907463,-0.08122953772544861,0.012270107865333557,-0.01250678300857544,0.009235978126525879
0.02368149161338806,-0.04352220520377159,-0.05247215926647186,0.0214785635471344,-0.015855789184570312,0.02443408966064453
-0.003213375573977828,-0.03562690317630768,-0.012145353481173515,0.028112292289733887,-0.013977497816085815,0.03178286552429199
-0.026994876563549042,-0.02346936985850334,0.03274679556488991,0.02822047472000122,-0.01744544506072998,0.031065940856933594
-0.03759729862213135,-0.027766011655330658,0.05708939954638481,0.02243390679359436,-0.014560341835021973,0.020947754383087158
-0.03028840944170952,-0.041790321469306946,0.04835691303014755,0.015392422676086426,-0.001103520393371582,0.006787776947021484
-0.022911012172698975,-0.044776011258363724,0.02194809913635254,0.003688439726829529,0.0034674108028411865,-0.0009136199951171875
-0.030600296333432198,-0.0341155007481575,-0.01350380014628172,-0.0029909908771514893,0.004335254430770874,0.0031702518463134766
-0.018720565363764763,-0.01581527851521969,-0.022642578929662704,-0.0038341879844665527,0.001018524169921875,0.0018184185028076172
-0.01855938695371151,0.030678536742925644,0.01241887453943491,-0.0005351901054382324,-0.01078122854232788,0.00936204195022583
-0.0430338978767395,0.0707874596118927,0.037030912935733795,0.004429250955581665,-0.014453113079071045,0.01621401309967041
-0.06874093413352966,0.1060142070055008,0.020956017076969147,0.002290382981300354,0.0022987425327301025,0.01999133825302124
-0.06037095561623573,0.06897381693124771,-0.04635641723871231,-0.00814010202884674,0.010004103183746338,0.004920840263366699
-0.003225978696718812,0.011369958519935608,-0.10664671659469604,-0.0050605833530426025,0.021545857191085815,-0.021893620491027832
0.0378766730427742,-0.00675567053258419,-0.15695783495903015,-0.010044485330581665,0.01590055227279663,-0.02207183837890625
0.042164672166109085,0.003369290381669998,-0.1462031751871109,0.003248646855354309,0.008110910654067993,-0.007765710353851318
0.022017883136868477,0.016483023762702942,-0.09049725532531738,0.018917948007583618,-0.0035133063793182373,0.007195591926574707
-0.009101562201976776,-0.00026103685377165675,-0.03135756403207779,0.0275840163230896,-0.0014010369777679443,0.012618303298950195
-0.014639953151345253,-0.03707645460963249,0.00749110197648406,0.02566659450531006,0.004959791898727417,0.011769533157348633
-0.03167205676436424,-0.04828540235757828,0.010511953383684158,0.013528972864151001,0.007171303033828735,0.017369329929351807
-0.04242473468184471,-0.028594233095645905,-0.010778587311506271,0.0002657473087310791,0.0090084969997406,0.02364593744277954
-0.0433896966278553,-0.019369598478078842,-0.03522757068276405,-0.002432912588119507,0.01622176170349121,0.02045232057571411
-0.044442251324653625,-0.01425687875598669,-0.05410380661487579,-0.0005288869142532349,0.018438667058944702,0.020429790019989014
-0.05125848576426506,0.0004379489691928029,-0.06587318331003189,-0.0015604645013809204,0.010651916265487671,0.021747112274169922
-0.06269136816263199,0.024992840364575386,-0.061648063361644745,0.0035966187715530396,0.00643688440322876,0.02198207378387451
-0.07271628826856613,0.06142481416463852,-0.06619846820831299,0.011278033256530762,0.005850017070770264,0.01597660779953003
-0.05832357332110405,0.04967280104756355,-0.0817422866821289,0.013339012861251831,0.004721134901046753,-0.0012784600257873535
-0.02509923279285431,-0.007366234436631203,-0.09282395243644714,0.015803828835487366,6.881356239318848e-05,-0.015548527240753174
-0.011165188625454903,-0.033194400370121,-0.0744502991437912,0.024647891521453857,-0.006008654832839966,-0.010320067405700684
-0.035943686962127686,0.0024992970284074545,-0.03524438291788101,0.030251607298851013,-0.010967344045639038,0.011575758457183838
-0.06974366307258606,0.05735071003437042,0.0003382135182619095,0.032006919384002686,-0.011841773986816406,0.01875138282775879
-0.0653703510761261,0.06267666816711426,0.018267523497343063,0.02198822796344757,-0.008997529745101929,-0.000683903694152832
-0.03953017666935921,0.026742184534668922,0.00477715814486146,0.00843721628189087,-0.0041321516036987305,-0.024022221565246582
-0.005756235681474209,-0.008477587252855301,-0.017958248034119606,-0.0009503215551376343,-0.0015323460102081299,-0.03341132402420044
0.02620289847254753,-0.023716028779745102,-0.03455761820077896,-0.0016447007656097412,-0.0011619329452514648,-0.03133869171142578
0.04372168332338333,-0.004466505255550146,-0.04205474257469177,0.0006059110164642334,-0.00017309188842773438,-0.020250916481018066
0.05982478708028793,0.017580145969986916,-0.04500821605324745,0.003969401121139526,-0.0012517273426055908,-0.007421016693115234
0.04138418287038803,0.031147072091698647,-0.02793204039335251,0.0035386085510253906,-0.0038571059703826904,0.00574105978012085
0.029201801866292953,0.011170970275998116,-0.01536654308438301,0.006733432412147522,-0.0029155313968658447,0.011555314064025879
0.01856100931763649,-0.002052854746580124,-0.0035715149715542793,0.00843094289302826,0.003908991813659668,0.011344075202941895
0.01737232692539692,-0.005640505813062191,0.007197451312094927,0.011933773756027222,0.00964587926864624,0.00800478458404541
0.03804590553045273,-0.01494246069341898,0.011287843808531761,0.004526808857917786,0.004643350839614868,0.004208624362945557
0.016518302261829376,-0.028282148763537407,-0.0028968090191483498,0.0025046467781066895,0.0163118839263916,0.017987728118896484
-0.007098332978785038,-0.01462293229997158,-0.01715625822544098,-0.004367172718048096,0.013039737939834595,0.03310507535934448
-0.04177076742053032,0.04003880172967911,0.0021568606607615948,0.0002936422824859619,0.009875744581222534,0.038656413555145264
-0.03179282322525978,0.04193686693906784,0.02266402542591095,0.008097648620605469,0.0066931843757629395,0.018638014793395996
-0.006134619005024433,0.027419118210673332,0.025743650272488594,0.0014995932579040527,0.008284956216812134,-0.003250598907470703
-0.02910144254565239,-0.005981788970530033,-0.012373765930533409,-0.007997006177902222,0.01745942234992981,0.0032839179039001465
-0.02439410239458084,-0.017166417092084885,-0.03815539553761482,-0.01497851312160492,0.010859429836273193,-0.004590630531311035
-0.00506261270493269,-0.011052165180444717,-0.05747971311211586,-0.009754255414009094,0.00674360990524292,-0.005104243755340576
0.010566400364041328,0.013879354111850262,-0.06610342860221863,0.00047659873962402344,0.002043217420578003,-0.0009107589721679688
0.006718351040035486,0.03569095581769943,-0.03906378895044327,0.012870416045188904,-0.0034934580326080322,0.0075438618659973145
-0.0054151336662471294,0.03222348541021347,0.003592398017644882,0.02363353967666626,-0.010276943445205688,0.010391771793365479
-0.005467426497489214,0.0022080508060753345,0.041554585099220276,0.02566516399383545,-0.010190993547439575,0.0067781805992126465
-0.020073801279067993,0.004108951892703772,0.055611591786146164,0.018509387969970703,-0.005373239517211914,0.009576678276062012
-0.019046084955334663,0.01133789960294962,0.04995739087462425,0.009245634078979492,-0.006949752569198608,0.006174445152282715
0.023309608921408653,-0.00035731832031160593,0.048859499394893646,0.008343666791915894,-0.007021069526672363,-0.009640395641326904
0.03480849415063858,0.0033280751667916775,0.03339290991425514,0.011593461036682129,0.0025262534618377686,-0.0031980276107788086
0.01459912396967411,0.025024380534887314,0.03632164001464844,0.004961103200912476,-0.003842651844024658,0.010807037353515625
0.010577954351902008,0.03517380356788635,0.04945145174860954,0.006867766380310059,-0.005344301462173462,0.007749795913696289
0.05017561465501785,0.013295052573084831,0.06155022606253624,0.009261518716812134,0.00012534856796264648,-0.010027885437011719
0.05232037976384163,0.005569722503423691,0.06797774136066437,0.0016760826110839844,0.0021494030952453613,-0.007448315620422363
0.00652592396363616,0.025655332952737808,0.06936865299940109,-0.006361663341522217,0.0010838508605957031,0.014798164367675781
0.0008088452741503716,0.041502196341753006,0.07734321057796478,-0.006615623831748962,0.006877273321151733,0.009638011455535889
0.04887128248810768,0.0033253291621804237,0.05398974567651749,-0.013077795505523682,0.011830717325210571,-0.019836246967315674
0.07101123034954071,-0.03755577281117439,0.027183789759874344,-0.022920578718185425,0.01240953803062439,-0.01767551898956299
0.04103251174092293,-0.029033346101641655,0.004419929347932339,-0.028415024280548096,0.004293918609619141,0.009072363376617432
0.009148145094513893,0.015426147729158401,-0.003809139132499695,-0.020162716507911682,0.00364568829536438,0.028149187564849854
0.03375258296728134,0.011187463998794556,0.00919836200773716,-0.012263059616088867,-0.0030106306076049805,0.00577390193939209
0.050470974296331406,-0.025624779984354973,0.02625526487827301,-0.005194827914237976,-0.001011669635772705,-0.005109071731567383
0.028501130640506744,-0.04305431991815567,0.01319923810660839,-0.011648640036582947,0.0016563832759857178,0.004902184009552002
0.03443901240825653,-0.03113539330661297,-0.0007001860067248344,-0.01643092930316925,0.00043895840644836426,0.00931096076965332
0.045171454548835754,-0.00842657033354044,0.008552554994821548,-0.005722522735595703,0.001499086618423462,0.005749642848968506
0.042106520384550095,-0.004039859399199486,0.017794668674468994,0.0032615363597869873,0.004733920097351074,0.0047054290771484375
0.044371072202920914,-0.022447679191827774,0.017436794936656952,0.004722848534584045,0.007429271936416626,0.0013284087181091309
0.04062851145863533,-0.044500455260276794,0.010035737417638302,0.004216492176055908,0.006245553493499756,0.002792954444885254
0.037746116518974304,-0.052163515239953995,0.01306334137916565,0.009000986814498901,0.008283227682113647,0.009586334228515625
0.040841445326805115,-0.038258232176303864,0.034476388245821,0.020898014307022095,0.009057343006134033,0.019646942615509033
0.024868203327059746,0.001863451674580574,0.05805830657482147,0.022133231163024902,0.0050064921379089355,0.03249281644821167
-0.022679805755615234,0.04714992269873619,0.06856612116098404,0.014622420072555542,0.00519290566444397,0.04457437992095947
-0.04880516976118088,0.03628215938806534,0.06583332270383835,0.00705544650554657,0.007806450128555298,0.03269517421722412
-0.021827006712555885,-0.0015496239066123962,0.06336378306150436,0.0037749409675598145,0.010976821184158325,-0.004983425140380859
0.005509959068149328,-0.01912059262394905,0.06368605047464371,-0.0012505948543548584,0.009165912866592407,0.0004979372024536133
-0.008731028065085411,0.01229778490960598,0.06399604678153992,-0.004029393196105957,0.007968604564666748,0.016005873680114746
-0.03541121259331703,0.036013420671224594,0.06064412370324135,-0.0032799243927001953,0.007170677185058594,0.013152897357940674
-0.020920999348163605,0.010274810716509819,0.051337216049432755,-0.006465807557106018,0.00629425048828125,-0.004387319087982178
0.00335038173943758,-0.018333032727241516,0.059183038771152496,-0.004976391792297363,0.005014985799789429,0.0001938343048095703
-0.01654209941625595,-0.0052505191415548325,0.0660950094461441,-0.004001110792160034,0.002079904079437256,0.018703043460845947
-0.04432259127497673,0.03205510973930359,0.07736387103796005,-0.0032696276903152466,0.000948488712310791,0.018085479736328125
-0.04172473028302193,0.0291572418063879,0.07485555857419968,-0.006174415349960327,-0.001217961311340332,-0.004493296146392822
-0.00315286498516798,-0.0023519506212323904,0.0734192281961441,-0.006473556160926819,0.0015195906162261963,-0.014690279960632324
0.004383099731057882,-0.0014278995804488659,0.0592510811984539,-0.006905227899551392,0.00307425856590271,0.0012641549110412598
-0.013113388791680336,0.028520066291093826,0.04949098080396652,-0.004219710826873779,-0.0010333657264709473,0.009488880634307861
-0.0008964254520833492,0.02075168676674366,0.05797594040632248,0.0018124580383300781,-0.007577836513519287,-0.0014840960502624512
0.003684991504997015,-0.00666056340560317,0.0768880546092987,0.004796773195266724,-0.005640357732772827,0.0010907649993896484
-0.008969456888735294,-0.008318295702338219,0.08518972992897034,0.004127204418182373,-0.0033641457557678223,0.008989572525024414
-0.018623707816004753,0.02057667076587677,0.09328089654445648,0.0011335909366607666,-0.0005446970462799072,0.005738258361816406
-0.0029324505012482405,0.034953583031892776,0.09836601465940475,-0.003400832414627075,-0.0007722973823547363,-0.007119238376617432
0.015460830181837082,0.026100080460309982,0.09073492884635925,-0.00969851016998291,0.00805974006652832,-0.009872734546661377
0.03176337480545044,0.005659586749970913,0.06373975425958633,-0.017830997705459595,0.010733187198638916,-0.002302885055541992
0.019539397209882736,-0.0017269067466259003,0.046763379126787186,-0.015912190079689026,0.009027600288391113,0.015652775764465332
-0.013323819264769554,0.025120340287685394,0.05594891682267189,-0.00917312502861023,0.007813513278961182,0.024060428142547607
-0.03176279738545418,0.047199591994285583,0.061315227299928665,-0.008678346872329712,0.01210448145866394,0.007071316242218018
0.002564885187894106,0.00477431807667017,0.05190260335803032,-0.011126786470413208,0.01628550887107849,-0.008799612522125244
0.01876637525856495,-0.03675977140665054,0.03988431394100189,-0.015737533569335938,0.010010898113250732,0.0009673833847045898
-0.006819902453571558,-0.011833436787128448,0.03382904827594757,-0.015988022089004517,0.0054877400398254395,0.020673096179962158
-0.03402022272348404,0.030422374606132507,0.023815898224711418,-0.01437823474407196,-0.002129286527633667,0.005385637283325195
0.0070897797122597694,0.02116539515554905,0.01369856670498848,-0.008226677775382996,-0.004298090934753418,-0.024981260299682617
0.045105770230293274,-0.027864232659339905,0.01759253442287445,0.0027674436569213867,-0.005586206912994385,-0.020414650440216064
0.04053158313035965,-0.03449802100658417,0.038399647921323776,-0.0001577138900756836,-0.014468014240264893,0.004007935523986816
0.00788062997162342,0.003094680607318878,0.0544736348092556,0.0014669299125671387,-0.013798892498016357,0.014423906803131104
0.010546385310590267,0.02825068309903145,0.05336916446685791,0.004895225167274475,-0.0028461813926696777,-0.004080772399902344
0.04552573710680008,0.010407919995486736,0.05181238055229187,0.0016202926635742188,0.00023609399795532227,-0.019213855266571045
0.06806820631027222,-0.020769206807017326,0.03746253252029419,-0.0030224770307540894,-0.0008922219276428223,-0.011861801147460938
0.061397846788167953,-0.028874121606349945,0.029797259718179703,-0.0013317316770553589,0.0028611421585083008,0.0007240176200866699
0.04912658780813217,-0.02922004833817482,0.02240903675556183,0.004976123571395874,0.006418168544769287,0.00790172815322876
0.06033565476536751,-0.03149709850549698,0.022861920297145844,0.005963116884231567,0.0024941861629486084,0.006223618984222412
0.060698576271533966,-0.023756040260195732,0.0305863618850708,0.004849672317504883,0.0012876391410827637,0.01955235004425049
0.025160223245620728,0.003372033592313528,0.04170047864317894,-0.0004660487174987793,0.0032555460929870605,0.029460787773132324
0.002002759836614132,0.02490963041782379,0.03319954499602318,-0.007379934191703796,0.0030831992626190186,0.017511487007141113
0.021185660734772682,0.00665476405993104,0.006777016445994377,-0.011940643191337585,0.008793354034423828,-0.0042438507080078125
0.04521952569484711,-0.027115467935800552,-0.020950589329004288,-0.007222533226013184,0.014070838689804077,-0.0025920867919921875
0.03804248198866844,-0.027198785915970802,-0.03728257864713669,-0.002616018056869507,0.011731445789337158,0.011843264102935791
0.019125698134303093,-0.003968654200434685,-0.03173118084669113,0.002191320061683655,0.007593810558319092,0.01975911855697632
0.008479505777359009,-0.0053887697868049145,-0.01897001452744007,0.006244629621505737,0.007106989622116089,0.016457974910736084
0.006855356972664595,-0.02071482688188553,-0.010931776836514473,0.0025100111961364746,0.00795695185661316,0.018137753009796143
-0.004710412584245205,-0.01562950573861599,-0.021862974390387535,-0.00597149133682251,0.004919290542602539,0.018708646297454834
-0.007801271043717861,-0.012239769101142883,-0.036645159125328064,-0.00486813485622406,0.006611883640289307,0.013685047626495361
-0.009630213491618633,-0.002980852499604225,-0.03875037282705307,0.0005864351987838745,0.0041359663009643555,0.008988261222839355
-0.0161991398781538,-0.0006276196800172329,-0.025187641382217407,0.005872994661331177,-0.0004470944404602051,0.005503356456756592
-0.011252660304307938,-0.004748612642288208,-0.005372669082134962,0.008956536650657654,-0.0012208223342895508,0.0055255889892578125
-0.014214879833161831,-0.004094937816262245,-0.0015543168410658836,0.008521512150764465,0.00559389591217041,0.011657238006591797
-0.024835387244820595,-0.00020048301666975021,-0.003628310514613986,0.00836382806301117,0.009418785572052002,0.015443623065948486
-0.033212076872587204,0.0034439880400896072,-0.002649464178830385,0.007541000843048096,0.00426560640335083,0.0049814581871032715
-0.011819640174508095,-0.020388757809996605,0.0020260815508663654,0.010534122586250305,0.003231227397918701,-0.008617103099822998
0.004087482579052448,-0.04163717105984688,0.0051194424740970135,0.012844428420066833,0.007352322340011597,-0.0036805272102355957
-0.006814358755946159,-0.03210729733109474,-0.000621255487203598,0.007888689637184143,0.0040819644927978516,0.008711159229278564
-0.01934800110757351,-0.01307774893939495,-0.00589693384245038,0.007753878831863403,0.0018164217472076416,0.008913934230804443
-0.012918535619974136,-0.004975464195013046,-0.0017478957306593657,0.013866454362869263,0.003989726305007935,0.0034788846969604492
0.0027838535606861115,-0.015241383574903011,0.004671052563935518,0.013071492314338684,-0.0014812052249908447,0.007128417491912842
-0.013242250308394432,-0.001734629855491221,0.016606807708740234,0.012618273496627808,0.0030554533004760742,0.02112632989883423
-0.035058990120887756,0.020469706505537033,0.019650336354970932,0.010247692465782166,0.0066821277141571045,0.024520456790924072
-0.03974620997905731,0.02609848417341709,0.02553977444767952,0.004473060369491577,0.003006577491760254,0.018967807292938232
-0.047026071697473526,0.03691814839839935,0.024117665365338326,-0.007532820105552673,0.004503905773162842,0.020269453525543213
-0.051697246730327606,0.03399408608675003,0.0009547770023345947,-0.014293834567070007,0.007608562707901001,0.020346522331237793
-0.05026908218860626,0.04131234437227249,-0.018318483605980873,-0.01406775414943695,0.012124031782150269,0.023572862148284912
-0.06926144659519196,0.05865391343832016,-0.026939939707517624,-0.01753203570842743,0.006301194429397583,0.0220029354095459
-0.078532375395298,0.07060912251472473,-0.034383196383714676,-0.018908947706222534,0.005798310041427612,0.002301931381225586
-0.0619342066347599,0.04349035769701004,-0.05667877569794655,-0.020211994647979736,0.009485363960266113,-0.01849263906478882
-0.03213389590382576,-0.02211347036063671,-0.073736272752285,-0.01188388466835022,0.008877098560333252,-0.032808005809783936
-0.014351362362504005,-0.06903568655252457,-0.06597553938627243,-0.0029333382844924927,0.0007968544960021973,-0.021766185760498047
-0.016372669488191605,-0.05818562209606171,-0.05019306391477585,0.00028030574321746826,-0.004329323768615723,0.00020229816436767578
-0.028034448623657227,-0.019614409655332565,-0.0433560311794281,0.0011832714080810547,-0.005733519792556763,0.008999466896057129
-0.025790035724639893,-0.02259558066725731,-0.04498066380620003,0.005820870399475098,-0.006324082612991333,0.005700826644897461
-0.02948679029941559,-0.04221396520733833,-0.024836115539073944,0.019597485661506653,-0.00390896201133728,0.0020236968994140625
-0.030706733465194702,-0.05154938995838165,-0.002936756704002619,0.01869933307170868,-0.007168084383010864,-0.0032421350479125977
-0.01894387975335121,-0.045974478125572205,0.0015186131931841373,0.011600300669670105,-0.004046887159347534,-0.005990326404571533
-0.005363563075661659,-0.04607612267136574,-0.01648714393377304,0.008741244673728943,-0.0003120005130767822,-0.0013374686241149902
0.0008018938824534416,-0.04306250810623169,-0.028495430946350098,0.011977016925811768,0.0019088983535766602,0.008535563945770264
-0.006053500808775425,-0.020138321444392204,-0.03314346820116043,0.015579745173454285,-0.002845942974090576,0.015115618705749512
-0.01715395785868168,0.00814268458634615,-0.022060835734009743,0.015297383069992065,-0.006040632724761963,0.013631224632263184
-0.013168560341000557,0.018214967101812363,-0.012147007510066032,0.010610431432723999,-0.00893661379814148,0.0055283308029174805
-0.015322569757699966,0.030231522396206856,-0.0072699603624641895,0.00974304974079132,-0.0012126564979553223,0.0028141140937805176
-0.008508783765137196,0.03184928372502327,-0.015378830954432487,0.00040027499198913574,-0.0015250444412231445,-0.0018802881240844727
0.012115322053432465,0.016205156221985817,-0.02761804312467575,-0.004996806383132935,0.0005071461200714111,-0.0054697394371032715
0.0167826060205698,0.00864619854837656,-0.034991081804037094,-0.008106470108032227,0.002118706703186035,0.006011664867401123
-0.017735853791236877,0.0394040010869503,-0.037997499108314514,-0.00906422734260559,-0.0016890764236450195,0.012841284275054932
-0.02020489051938057,0.05388893559575081,-0.02930743433535099,-0.001538395881652832,0.0010379552841186523,-0.01008540391921997
0.029226984828710556,0.010464261285960674,-0.023367226123809814,-0.004605025053024292,0.005289047956466675,-0.029796481132507324
0.057427141815423965,-0.04531466215848923,-0.03586798161268234,-0.01125498116016388,0.009423017501831055,-0.009968996047973633
0.03289015591144562,-0.051625605672597885,-0.05315886065363884,-0.009089767932891846,0.008404314517974854,0.025103867053985596
-0.010656451806426048,-0.005438921041786671,-0.04487907886505127,0.0023674964904785156,0.004323452711105347,0.035116374492645264
-0.009964488446712494,0.015712987631559372,-0.015055123716592789,0.00815311074256897,0.001554250717163086,0.018715858459472656
0.001016263384371996,0.00280817411839962,0.014019627124071121,0.0075530558824539185,0.0057208240032196045,0.011322498321533203
-0.01301167719066143,-0.026803581044077873,0.01111682504415512,-0.005047470331192017,0.010541141033172607,0.016060948371887207
-0.03704751655459404,-0.03390742838382721,-0.010297300294041634,-0.006286263465881348,0.015249550342559814,0.011968910694122314
-0.02941879816353321,-0.0394337996840477,-0.029633034020662308,-0.006516307592391968,0.010077327489852905,-0.0015329718589782715
-0.0023600987624377012,-0.03305988013744354,-0.03402508422732353,-0.003385409712791443,0.005856901407241821,-0.0032854080200195312
-0.003819380421191454,-0.02058100700378418,-0.0405411534011364,0.00054168701171875,0.0017496049404144287,0.00766986608505249
-0.02281712181866169,-0.0036599584855139256,-0.04134216159582138,0.0029636770486831665,0.001476585865020752,0.014597117900848389
-0.031141474843025208,0.004048191476613283,-0.04918256774544716,0.0031969547271728516,-0.0019420981407165527,0.0055863261222839355
-0.004763612523674965,-0.004911464173346758,-0.055257584899663925,0.008137822151184082,-0.0031167566776275635,-0.007573425769805908
0.012307909317314625,-0.005272819194942713,-0.040266454219818115,0.01619352400302887,-0.003400832414627075,-0.0003688931465148926
-0.009824985638260841,0.010244438424706459,-0.02726910077035427,0.014152184128761292,-0.00462794303894043,0.01035696268081665
-0.011992244981229305,0.013961243443191051,-0.02601427212357521,0.012584388256072998,-0.003425776958465576,0.001450181007385254
0.01512301154434681,-0.023564904928207397,-0.016200389713048935,0.012237757444381714,-0.00547364354133606,0.0002918243408203125
-0.0060938564129173756,-0.027760520577430725,0.013069499284029007,0.011792093515396118,-0.012859523296356201,0.018666207790374756
-0.06520818173885345,-0.03198186308145523,0.04497063532471657,0.009670466184616089,-0.004002630710601807,0.017972052097320557
-0.07151367515325546,-0.06201770901679993,0.04767264798283577,0.0011775791645050049,0.003383427858352661,-0.010251879692077637
0.005490634124726057,-0.07515699416399002,0.019253848120570183,-0.00914984941482544,0.004998832941055298,-0.028145432472229004
0.0599442757666111,-0.037689246237277985,-0.016211576759815216,-0.007068797945976257,0.0035746097564697266,0.0002301335334777832
0.03779837116599083,0.01883777230978012,-0.014492508955299854,-3.904104232788086e-06,-0.0019027888774871826,0.030080795288085938
-0.012594141066074371,0.028631169348955154,0.0074345506727695465,0.004008501768112183,-0.006328999996185303,0.02500605583190918
-0.010670813731849194,-0.013765358366072178,0.020943745970726013,0.005159527063369751,0.001964956521987915,0.006235003471374512
-0.0003750331234186888,-0.005724210292100906,0.013776114210486412,-0.004798680543899536,0.0062628984451293945,0.006070494651794434
-0.003780477913096547,0.04196566343307495,-0.017847692593932152,-0.010033786296844482,0.008193612098693848,0.0072133541107177734
0.006028797011822462,0.044183358550071716,-0.03467686101794243,0.002484261989593506,0.009174466133117676,-0.006599605083465576
0.02846585586667061,0.01582413911819458,-0.017359135672450066,0.013698011636734009,0.007445633411407471,-0.012968897819519043
0.023739030584692955,-0.027033373713493347,0.0031827581115067005,0.01429586112499237,0.005515933036804199,-0.0003387928009033203
0.0012365621514618397,-0.038118407130241394,0.011457010172307491,0.009485572576522827,0.001088857650756836,0.015181183815002441
-3.3554621040821075e-05,-0.014858437702059746,0.019443687051534653,0.012767314910888672,0.002138584852218628,0.014822959899902344
0.02099533937871456,0.007316792383790016,0.031920600682497025,0.009653881192207336,0.0026328861713409424,0.013631761074066162
0.01822805404663086,0.024815423414111137,0.037540894001722336,0.0033081918954849243,0.0031180977821350098,0.02503889799118042
-0.019378773868083954,0.031180761754512787,0.03670322895050049,-0.000499039888381958,0.0024518966674804688,0.028754711151123047
-0.036443889141082764,0.023152494803071022,0.03630666807293892,0.0036574602127075195,0.0029957592487335205,0.011003494262695312
-0.018756497651338577,-0.003529647132381797,0.03889494761824608,0.00920531153678894,0.005937486886978149,-0.011594176292419434
0.009028397500514984,0.003459454281255603,0.04501420632004738,0.012469485402107239,0.0041577816009521484,-0.015264630317687988
0.02581050619482994,0.0043263621628284454,0.05607612058520317,0.012510120868682861,0.0012896060943603516,-0.007483124732971191
0.02317749336361885,-0.01843453012406826,0.07088664174079895,0.012334436178207397,0.0029610097408294678,0.0060269832611083984
0.007709487807005644,-0.030979221686720848,0.07709337770938873,0.007398158311843872,0.0012842416763305664,0.021329939365386963
-0.010756929405033588,-0.005389199126511812,0.07866206020116806,0.007436037063598633,0.0033321380615234375,0.03143906593322754
-0.009903564117848873,0.03192190080881119,0.0782981663942337,0.0029273182153701782,0.0002359449863433838,0.029733479022979736
-0.02521740272641182,0.04713883996009827,0.0888017788529396,0.0017893612384796143,-0.002585113048553467,0.026910603046417236
-0.055073175579309464,0.03594140708446503,0.11026674509048462,0.003421604633331299,-0.0033749639987945557,0.020157158374786377
-0.07323461771011353,0.020264046266674995,0.12262975424528122,-0.0029075145721435547,-0.0010602474212646484,0.0006088018417358398
-0.05067737028002739,0.00037342822179198265,0.09923788905143738,-0.01530197262763977,0.00735512375831604,-0.016030550003051758
-0.011993148364126682,0.010741829872131348,0.061254940927028656,-0.024222686886787415,0.007974565029144287,-0.014468848705291748
-0.008856136351823807,0.02445925772190094,0.027258632704615593,-0.022587046027183533,0.004241913557052612,-0.004428744316101074
-0.010829735547304153,0.026061367243528366,0.013747142627835274,-0.014927208423614502,0.003999978303909302,-0.009051978588104248
0.00045919837430119514,0.005494987592101097,0.0092715322971344,-0.0076178014278411865,0.0022849738597869873,-0.013985395431518555
0.01426280103623867,-0.01479511708021164,0.005808516871184111,-0.004197403788566589,0.00017601251602172852,-0.008436441421508789
0.0220013540238142,-0.028455622494220734,0.012064673937857151,-0.004393845796585083,-0.0037062466144561768,0.003201127052307129
0.009853210300207138,-0.011434726417064667,0.018576525151729584,-0.003278374671936035,-0.002457559108734131,0.01934373378753662
-0.001974063226953149,0.02500871941447258,0.015029876492917538,-0.005925878882408142,-0.0013866424560546875,0.01903754472732544
0.009561399929225445,0.022692900151014328,0.007621624507009983,-0.003936842083930969,0.0015191435813903809,0.005888819694519043
0.009168917313218117,0.005217718426138163,0.010636379942297935,-0.002309262752532959,0.0005384385585784912,0.006825506687164307
-0.012561483308672905,0.0019015346188098192,0.016496386379003525,0.0017637014389038086,0.0029201507568359375,0.004964888095855713
-0.0032264634501188993,-0.014533009380102158,0.019424322992563248,0.005136400461196899,0.008712828159332275,-0.005424618721008301
0.02099437639117241,-0.02723950520157814,0.020565742626786232,0.004404619336128235,0.007426738739013672,-0.0008949041366577148
0.015742389485239983,-0.00026719231391325593,0.025406355038285255,0.0008577555418014526,0.007934421300888062,0.019447028636932373
-0.01934446394443512,0.03012220375239849,0.03129731863737106,-0.0026114583015441895,0.006496816873550415,0.026017308235168457
-0.03158482909202576,0.025425534695386887,0.03614228218793869,-0.0069128721952438354,0.009207069873809814,0.0068285465240478516
-0.013416471891105175,-0.006276134867221117,0.024344436824321747,-0.01107168197631836,0.013357400894165039,-0.0076898932456970215
0.0028653466142714024,-0.018064066767692566,0.006825816351920366,-0.014965251088142395,0.012562274932861328,-0.0006143450736999512
-0.0036428531166166067,-0.012553649954497814,-0.005772220902144909,-0.012929946184158325,0.011599749326705933,0.011715590953826904
-0.013939257711172104,-0.003330745967105031,-0.014420758932828903,-0.00909075140953064,0.014197170734405518,0.01474994421005249
-0.01891934685409069,-0.007509040646255016,-0.013458692468702793,-0.00949937105178833,0.012170463800430298,0.016889512538909912
-0.0397506020963192,-0.018370546400547028,-0.011677790433168411,-0.007957607507705688,0.009452909231185913,0.018932044506072998
-0.06320545077323914,-0.029199857264757156,-0.012464378029108047,-0.0047895461320877075,0.012416690587997437,0.02089071273803711
-0.07781125605106354,-0.010797200724482536,-0.01827329955995083,-0.007853150367736816,0.01037028431892395,0.013918876647949219
-0.05231066793203354,0.008324231021106243,-0.04043039679527283,-0.00957934558391571,0.008341461420059204,-0.003988206386566162
-0.011850952170789242,0.011704630218446255,-0.0708736777305603,-0.010844260454177856,0.008972108364105225,-0.007171571254730225
-0.007384170778095722,-0.008429896086454391,-0.09382353723049164,-0.004168123006820679,0.0013682544231414795,0.006316184997558594
-0.04610856994986534,-0.018303286284208298,-0.07807829231023788,0.00617140531539917,-0.009739875793457031,0.01587820053100586
-0.0769229531288147,0.0013678192626684904,-0.04337192699313164,0.01637887954711914,-0.01424318552017212,0.006539821624755859
-0.047755345702171326,0.013154803775250912,-0.02000918984413147,0.013517290353775024,-0.014395833015441895,-0.020134449005126953
0.0006180359050631523,0.012039871886372566,-0.0288233682513237,0.011746138334274292,-0.009743541479110718,-0.03088390827178955
0.030283447355031967,-0.017798997461795807,-0.03845097869634628,0.017041489481925964,-0.013965994119644165,-0.02852797508239746
0.03886936232447624,-0.03595153987407684,-0.01265534944832325,0.025837883353233337,-0.014466524124145508,-0.01157599687576294
0.03204479441046715,-0.03756659850478172,0.02061205357313156,0.028276920318603516,-0.013378739356994629,0.0009772777557373047
0.02497551590204239,-0.012550510466098785,0.04947821795940399,0.021430879831314087,-0.010552763938903809,0.006423592567443848
0.035763032734394073,0.00030867173336446285,0.05681022256612778,0.01087208092212677,-0.005811631679534912,0.005117535591125488
0.0417494922876358,-0.005919485352933407,0.054468899965286255,0.0049431174993515015,0.0011485517024993896,0.012088477611541748
0.027833230793476105,-0.019116299226880074,0.04806254804134369,0.002074629068374634,0.008253544569015503,0.022427618503570557
0.009233059361577034,-0.02054591476917267,0.04253069683909416,-0.0045443326234817505,0.0026164352893829346,0.025474131107330322
-0.009572550654411316,-0.01633131504058838,0.039019860327243805,-0.002352491021156311,0.012425541877746582,0.024653136730194092
-0.02079673670232296,0.0020177867263555527,0.03260025382041931,-0.005049154162406921,0.016526609659194946,0.01843780279159546
-0.0262623094022274,0.018048562109470367,0.018390173092484474,-0.01309281587600708,0.014766544103622437,0.010525941848754883
-0.008933328092098236,0.03174768388271332,-0.005330196116119623,-0.017290234565734863,0.020063459873199463,0.0020245909690856934
-0.005626683589071035,0.02870091050863266,-0.03298729285597801,-0.017839357256889343,0.022028952836990356,0.0015203356742858887
-0.011193668469786644,0.004496983718127012,-0.04987451061606407,-0.01426437497138977,0.01709684729576111,0.00034999847412109375
-0.005254613235592842,-0.016647865995764732,-0.05810777097940445,-0.009480476379394531,0.01356324553489685,-0.0076004862785339355
0.009882906451821327,-0.024869408458471298,-0.05657057836651802,-0.006005153059959412,0.006560921669006348,-0.008427023887634277
0.0137657281011343,-0.01524922251701355,-0.03757830336689949,0.006108686327934265,0.00349387526512146,-0.00041240453720092773
-0.008491761051118374,0.0037394140381366014,-0.011737624183297157,0.01207020878791809,-0.0032783448696136475,0.010352253913879395
-0.004304014146327972,-0.016684651374816895,0.014974668622016907,0.014442160725593567,-0.004275381565093994,0.002100646495819092
0.013509858399629593,-0.03416716679930687,0.02235441282391548,0.013858228921890259,0.0037479400634765625,-0.004340708255767822
0.01795487105846405,-0.025723561644554138,0.013673785142600536,0.0071984827518463135,0.00909358263015747,0.003959715366363525
-0.001698172651231289,0.005948872305452824,0.004769869148731232,0.000882074236869812,0.008349329233169556,0.01541072130203247
-0.007934026420116425,0.007221447303891182,0.0002384008839726448,0.007242351770401001,0.010642379522323608,0.012502908706665039
0.0021974174305796623,0.004799572750926018,0.01696934923529625,0.010615691542625427,0.007120579481124878,-0.0029035210609436035
0.013690993189811707,-0.012000412680208683,0.03226799517869949,0.013580217957496643,0.004980951547622681,-0.00602644681930542
0.0014556851238012314,0.003802864346653223,0.03725038096308708,0.012329012155532837,0.010163158178329468,0.0027871131896972656
-0.00587382772937417,0.01928151212632656,0.03589913994073868,0.004365086555480957,0.007208287715911865,0.005718052387237549
0.0092486422508955,0.014113163575530052,0.034813232719898224,-0.0018934458494186401,0.00365331768989563,-0.0021828413009643555
0.02197866700589657,-0.007658215705305338,0.034651026129722595,0.0003477931022644043,0.009619563817977905,-0.006061971187591553
0.022454649209976196,0.00595854502171278,0.032034747302532196,-0.002961471676826477,0.00726744532585144,0.0027568936347961426
0.011784005910158157,0.021420491859316826,0.026782745495438576,-0.01087905466556549,0.003017991781234741,0.010289549827575684
0.0039496393874287605,0.0005286997184157372,0.021687068045139313,-0.007543608546257019,0.0053923726081848145,0.009934604167938232
0.010820542462170124,-0.013140998780727386,0.02073848992586136,-0.0063766539096832275,0.006705343723297119,0.002896428108215332
0.016778819262981415,0.005809799302369356,0.016436856240034103,-0.011939361691474915,0.0029134750366210938,0.006577730178833008
0.013396896421909332,0.022456010803580284,0.008983212523162365,-0.016315028071403503,0.004241526126861572,0.010732412338256836
0.006009213626384735,0.018573638051748276,0.00594666413962841,-0.013798892498016357,0.004689633846282959,0.004072308540344238
0.014805693179368973,-0.018607202917337418,0.0090017169713974,-0.008560702204704285,0.0055043697357177734,-0.003489255905151367
0.00912684015929699,-0.03910660371184349,0.011712029576301575,-0.010947346687316895,0.0064160823822021484,0.005808234214782715
-0.0033745646942406893,-0.03285050392150879,-0.007957855239510536,-0.016869813203811646,0.0041352808475494385,0.017015278339385986
-0.003939697984606028,-0.017267417162656784,-0.030621271580457687,-0.013109713792800903,0.0011976957321166992,0.014742672443389893
0.0034604445099830627,-0.019914932548999786,-0.02361089363694191,-7.152557373046875e-06,-0.0014738738536834717,0.018469035625457764
-0.02365965209901333,0.00023945595603436232,0.0013092695735394955,0.005011305212974548,-0.005204439163208008,0.016562938690185547
-0.01113399863243103,-0.0036630716640502214,0.002626956906169653,-0.0037360340356826782,-0.005995035171508789,0.00029599666595458984
0.0068466938100755215,-0.0123927416279912,-0.01826775074005127,-0.009615719318389893,-0.0012037456035614014,-0.004890084266662598
0.004779564216732979,-0.025457685813307762,-0.04640661180019379,-0.00477367639541626,-0.0003922581672668457,0.00013190507888793945
0.009476440027356148,-0.021517504006624222,-0.04654037207365036,0.0057764798402786255,-0.005225479602813721,0.0006938576698303223
0.030463822185993195,-0.017299307510256767,-0.03442057967185974,0.01304677128791809,-0.0058127641677856445,0.005927085876464844
0.018440328538417816,0.012930799275636673,-0.018783271312713623,0.016177579760551453,-0.0004982054233551025,0.019488394260406494
-0.010166112333536148,0.037601981312036514,-0.009455882012844086,0.015615329146385193,-0.0024888217449188232,0.012490034103393555
0.00398716377094388,0.012613103725016117,0.007529570255428553,0.014754638075828552,-0.005537956953048706,-0.014404535293579102
0.02703411690890789,-0.04716634377837181,0.014248266816139221,0.012258261442184448,-0.0009219646453857422,-0.014371275901794434
0.030783072113990784,-0.05964798107743263,0.004082772880792618,0.005835443735122681,0.003571629524230957,0.0036457180976867676
0.019394129514694214,-0.029958313331007957,-0.0028035729192197323,-0.0008808672428131104,0.0007256269454956055,0.0185014009475708
0.013377041555941105,-0.0014035486383363605,-0.0021869090851396322,-0.0028034448623657227,-0.004286587238311768,0.01525193452835083
0.020920634269714355,-0.0010854422580450773,-0.0017556746024638414,-0.0034596920013427734,0.0008792579174041748,0.011175930500030518
0.015506027266383171,0.002552537713199854,-0.002774180844426155,-0.007373064756393433,0.0023917853832244873,0.012793660163879395
-0.00673708226531744,0.0223015658557415,-0.016865244135260582,-0.012924566864967346,-0.0004884302616119385,0.00726473331451416
0.006555501371622086,-0.011984255164861679,-0.023673534393310547,-0.0048910826444625854,0.005103856325149536,-0.009469211101531982
0.026189405471086502,-0.06513708829879761,-0.02819087728857994,0.00190068781375885,0.010157108306884766,-0.006662547588348389
0.015750598162412643,-0.07924984395503998,-0.019088637083768845,-0.00036779046058654785,0.0010667741298675537,0.01660996675491333
-0.02237243764102459,-0.0405009463429451,-0.0060907951556146145,-0.0028885304927825928,-0.005269885063171387,0.026783108711242676
-0.015611999668180943,-0.003020087257027626,-0.010617411695420742,-0.003573969006538391,0.0030038654804229736,0.00584566593170166
0.022084852680563927,0.008735387586057186,-0.015944253653287888,-0.002091825008392334,0.00699615478515625,-0.006963014602661133
0.0353754460811615,-0.008759030140936375,-0.023040857166051865,-0.0017619431018829346,0.002352803945541382,-0.003361344337463379
0.018446769565343857,-0.014874184504151344,-0.017502635717391968,0.0022364258766174316,0.003782331943511963,0.0036218762397766113
0.015560433268547058,-0.02319449558854103,-0.015892181545495987,0.003679051995277405,-0.0009808540344238281,0.00036013126373291016
0.017072631046175957,-0.01272105984389782,0.0013956441543996334,0.011927023530006409,0.002060025930404663,0.0016219019889831543
0.02827177196741104,0.015681011602282524,0.01674114353954792,0.01358690857887268,0.0010221302509307861,0.004014551639556885
0.02252967469394207,0.03502639755606651,0.025991490110754967,0.013330265879631042,0.0034563839435577393,0.00458526611328125
0.01719095930457115,0.006057895254343748,0.03355426713824272,0.014020487666130066,0.0037201642990112305,-0.0030351877212524414
0.0244770348072052,-0.03212086483836174,0.040949542075395584,0.018222138285636902,0.005724042654037476,-0.00046640634536743164
0.028810344636440277,-0.02680378034710884,0.05090707167983055,0.012470245361328125,0.004103124141693115,0.01352614164352417
0.021917054429650307,0.009330282919108868,0.05383210629224777,0.006626397371292114,0.005426079034805298,0.030173778533935547
-0.014057692140340805,0.044000301510095596,0.05351462960243225,0.002377733588218689,0.005614787340164185,0.035243988037109375
-0.025185102596879005,0.04953942820429802,0.051340166479349136,-0.008885115385055542,0.0044152140617370605,0.017768442630767822
-0.013129983097314835,0.019316092133522034,0.03236342594027519,-0.014597907662391663,0.006471842527389526,0.005192756652832031
-0.009305089712142944,0.016231238842010498,0.004556927364319563,-0.01715405285358429,0.007674098014831543,0.00552976131439209
-0.014789898879826069,0.0504244901239872,-0.008729597553610802,-0.015894919633865356,0.0010774731636047363,0.0030086636543273926
-0.005511901341378689,0.05186375603079796,-0.021216653287410736,-0.012306466698646545,-0.0016751885414123535,-0.01304006576538086
0.0207680556923151,0.012263443320989609,-0.027563780546188354,-0.00674670934677124,-0.0021192431449890137,-0.02106386423110962
0.02656901627779007,-0.015745671465992928,-0.028302708640694618,-0.0024094432592391968,-0.0031773149967193604,-0.00811910629272461
0.02460402436554432,-0.015574325807392597,-0.02320117875933647,-0.0012710988521575928,-0.010001420974731445,0.002619028091430664
0.030708972364664078,0.00020987680181860924,-0.01660982146859169,-0.0026109516620635986,-0.010616213083267212,0.010631024837493896
0.025405196473002434,0.03922411426901817,-0.013125451281666756,-0.0018437206745147705,-0.008455932140350342,0.015158295631408691
0.036714259535074234,0.0620889887213707,-0.016131319105625153,-0.006690964102745056,-0.002288609743118286,0.00878232717514038
0.04379197210073471,0.054328229278326035,-0.03453414887189865,-0.01487642526626587,0.0037303566932678223,0.003446817398071289
0.04836245998740196,0.02666809968650341,-0.053981974720954895,-0.012251928448677063,0.009415924549102783,0.00032782554626464844
0.038469698280096054,0.02471661940217018,-0.06774309277534485,-0.012253940105438232,0.01065516471862793,0.0028066039085388184
0.04365565627813339,0.03428495675325394,-0.08009634166955948,-0.006908610463142395,0.008547544479370117,-0.002670884132385254
0.06816717237234116,0.07517767697572708,-0.07940951734781265,-0.00010314583778381348,0.01059037446975708,-0.006970107555389404
0.09023177623748779,0.11242065578699112,-0.08315132558345795,0.00031572580337524414,0.00818479061126709,-0.0062285661697387695
0.11518669128417969,0.17355765402317047,-0.08264372497797012,0.007955536246299744,0.009413331747055054,-0.006845951080322266
0.1458059847354889,0.20837938785552979,-0.08515039831399918,0.0056956857442855835,0.008551836013793945,-0.007967770099639893
0.15355665981769562,0.14415176212787628,-0.08893265575170517,0.006113678216934204,0.010892987251281738,0.001817464828491211
0.10265092551708221,0.0720641240477562,-0.08209755271673203,0.008804991841316223,0.00554993748664856,0.025944113731384277
0.022087665274739265,0.044896356761455536,-0.06486649811267853,0.019685477018356323,0.0023959875106811523,0.044276654720306396
-0.009317221119999886,0.0971825122833252,-0.03070122003555298,0.030329197645187378,4.589557647705078e-05,0.040688931941986084
0.013300466351211071,0.2078593671321869,0.0071442462503910065,0.029493987560272217,-0.004357874393463135,0.028127431869506836
0.02254725806415081,0.2635667026042938,0.03107275813817978,0.023390859365463257,-0.006528019905090332,0.03268015384674072
-0.004221659619361162,0.2232213020324707,0.04784243553876877,0.028286084532737732,0.00799095630645752,0.02326226234436035
-0.036208756268024445,0.058198630809783936,0.04817335307598114,0.030225247144699097,0.029699981212615967,0.01435995101928711
-0.0775209441781044,-0.048394374549388885,0.04555770009756088,0.01383170485496521,0.017443060874938965,0.014402508735656738
-0.08521503210067749,-0.03200766444206238,0.046401843428611755,-0.0005619078874588013,-0.0010847151279449463,0.010675013065338135
-0.05585551634430885,0.0371389240026474,0.04515876993536949,0.0016548335552215576,0.004377514123916626,0.004241943359375
-0.033415764570236206,0.09137032926082611,0.047394223511219025,0.0021958351135253906,0.006935149431228638,-0.002010941505432129
-0.017192188650369644,0.07107288390398026,0.0442822091281414,-0.014516115188598633,0.0006616711616516113,-0.010381102561950684
-0.024248884990811348,-0.002181591931730509,0.025417201220989227,-0.02732737362384796,0.00333520770072937,-0.006358921527862549
-0.029130538925528526,-0.0645209476351738,-0.028119761496782303,-0.03368309140205383,0.005584448575973511,-0.0015848278999328613
-0.011804211884737015,-0.06012411788105965,-0.06372830271720886,-0.023448213934898376,0.004403173923492432,0.0029123425483703613
-0.0009094749111682177,0.00021951401140540838,-0.06944992393255234,-0.019748926162719727,-0.007745504379272461,0.008777499198913574
-0.016969667747616768,0.0739816203713417,-0.07004274427890778,-0.022150829434394836,-0.015815258026123047,0.003788471221923828
0.007379490882158279,0.05447552725672722,-0.07746144384145737,-0.023288384079933167,-0.015877187252044678,-0.027157068252563477
0.07138407975435257,-0.0617462657392025,-0.10752958804368973,-0.014085397124290466,0.007718473672866821,-0.03222918510437012
0.05077176168560982,-0.06523135304450989,-0.15981583297252655,-0.01239505410194397,0.01688671112060547,0.015924692153930664
-0.004750427324324846,-0.0014731576666235924,-0.1789383888244629,-0.003031596541404724,-0.006381690502166748,0.034613728523254395
-0.0430091992020607,0.0017509812023490667,-0.17707028985023499,0.002817898988723755,-0.012046217918395996,0.0255967378616333
-0.06520896404981613,0.013960259966552258,-0.1924540400505066,0.007943451404571533,-0.020403563976287842,0.018170297145843506
-0.03571633622050285,-0.0075785196386277676,-0.1587928682565689,0.019388437271118164,-0.007519841194152832,0.006090283393859863
-0.04029150307178497,-0.009471729397773743,-0.13479430973529816,0.03274250030517578,-0.006104469299316406,0.011311650276184082
-0.05557001009583473,0.039320532232522964,-0.09287646412849426,0.02982090413570404,-0.004166394472122192,0.013945937156677246
-0.03805964067578316,0.044193729758262634,-0.0731361135840416,0.016296446323394775,-0.01623678207397461,-0.007950663566589355
0.0035374099388718605,0.01111435703933239,-0.06156786158680916,0.01594129204750061,-0.005901604890823364,-0.01534336805343628
0.011442314833402634,-0.016637807711958885,-0.062012020498514175,0.012814879417419434,0.0006366968154907227,-0.0026164650917053223
-0.004247214645147324,-0.004795484710484743,-0.0669550746679306,0.002400115132331848,-0.005396544933319092,0.008855640888214111
-0.015354074537754059,0.023652371019124985,-0.0747552290558815,0.0019239485263824463,-0.004990577697753906,0.007458806037902832
-0.011290023103356361,0.02006131410598755,-0.07620099931955338,0.009527713060379028,0.00160139799118042,0.0033634305000305176
-0.006193275563418865,0.024150939658284187,-0.07358858734369278,0.00977596640586853,-0.00017970800399780273,-0.003702878952026367
0.005006545688956976,0.030581431463360786,-0.05995840206742287,0.013438522815704346,-0.004985392093658447,-0.008599400520324707
0.018927771598100662,0.020219162106513977,-0.04123561829328537,0.01605689525604248,-0.005229830741882324,-0.020197749137878418
0.060601379722356796,-0.03377664461731911,-0.035260871052742004,0.015137284994125366,0.0020158886909484863,-0.018740594387054443
0.06720531731843948,-0.059164468199014664,-0.03362163156270981,0.014061272144317627,0.004459172487258911,0.012412428855895996
0.033969998359680176,-0.022015199065208435,-0.026856468990445137,0.013832777738571167,0.002358734607696533,0.0418584942817688
-0.02357911691069603,0.04783264175057411,-0.003997017629444599,0.017976954579353333,0.0054544806480407715,0.054550111293792725
-0.04717789590358734,0.08483114093542099,0.021075140684843063,0.016221702098846436,0.00021329522132873535,0.035147130489349365
-0.03193065896630287,0.06817662715911865,0.03953889384865761,0.00843954086303711,0.00037598609924316406,0.01862943172454834
-0.04613494873046875,0.05662088841199875,0.02693317085504532,0.00951392948627472,0.020274996757507324,0.02098912000656128
-0.05711650475859642,0.027645766735076904,-0.014611747115850449,0.007123485207557678,0.020764917135238647,0.011555969715118408
-0.045639198273420334,0.03731793165206909,-0.023906994611024857,0.0059503912925720215,0.00041025876998901367,0.0027948617935180664
-0.037679560482501984,0.05415044724941254,-0.0051456536166369915,0.012485295534133911,-0.0038498640060424805,0.005482673645019531
-0.054367393255233765,0.059431176632642746,0.024871690198779106,0.016246885061264038,0.0028314590454101562,0.005605101585388184
-0.053984858095645905,0.05044974386692047,0.035480186343193054,0.008047133684158325,0.0017298460006713867,-0.001987457275390625
-0.04548167437314987,0.05039282143115997,0.029737211763858795,-0.004729479551315308,-0.0018190443515777588,-0.004106104373931885
-0.03100639022886753,0.05815897881984711,0.0001153070479631424,-0.011518821120262146,-0.0030563175678253174,-0.008682608604431152
-0.022386344149708748,0.051060572266578674,-0.02375941164791584,-0.005579918622970581,-0.001556694507598877,-0.007362246513366699
-0.023604147136211395,0.056924473494291306,-0.03500264510512352,0.0037935972213745117,-0.0007381439208984375,-0.010202288627624512
0.004289131611585617,0.046297162771224976,-0.02098729833960533,0.007853284478187561,-0.008654415607452393,-0.015162408351898193
0.012603525072336197,0.04215335100889206,0.004020540975034237,0.007333800196647644,-0.007044345140457153,-0.0033149123191833496
-0.008975401520729065,0.04960024729371071,0.004418529104441404,0.003701239824295044,-0.0035887062549591064,0.009240269660949707
-0.016124192625284195,0.050185125321149826,-0.006361470557749271,-0.0008414685726165771,0.0001049041748046875,0.010368704795837402
-0.0037406969349831343,0.052905965596437454,-0.0213115606456995,-0.002160012722015381,-0.0019389688968658447,0.009764611721038818
-0.0027018715627491474,0.0795271173119545,-0.02737634815275669,-1.1779367923736572e-05,-0.003494471311569214,0.016506731510162354
-0.011588428169488907,0.0974327027797699,-0.025326792150735855,0.011395230889320374,0.00038692355155944824,0.017290890216827393
-0.006900075823068619,0.08591929078102112,-0.0013506491668522358,0.012560226023197174,-0.003307521343231201,0.009128689765930176
-0.003439532592892647,0.07562071084976196,0.031852319836616516,0.00535053014755249,-0.00951695442199707,0.009863793849945068
-0.027364999055862427,0.04329270124435425,0.029716795310378075,0.0006580501794815063,0.006774395704269409,0.012999296188354492
-0.030145609751343727,0.03297581896185875,0.01852969452738762,-0.007700368762016296,0.005985260009765625,0.00415879487991333
-0.009949666447937489,0.03771169111132622,0.0054423571564257145,-0.01126386970281601,0.00568544864654541,-0.006597042083740234
0.012357977218925953,0.017843952402472496,0.0018668845295906067,-0.006048098206520081,0.010517269372940063,-0.006543159484863281
0.024692213162779808,-0.02240678295493126,0.0005891136825084686,-0.0062287673354148865,0.00879824161529541,0.002141416072845459
0.01938585378229618,-0.04228667542338371,-0.009813068434596062,-0.009088501334190369,0.007219940423965454,0.015168845653533936
-0.0016605777200311422,-0.029832996428012848,-0.019226238131523132,-0.009573057293891907,0.006720930337905884,0.026906311511993408
