rotation_x,rotation_y,rotation_z,acceleration_x,acceleration_y,acceleration_z
-0.20379769802093506,-0.22536210715770721,-0.09657301008701324,-0.031289242208004,-0.02352619171142578,0.04557377099990845
-0.29576337337493896,-0.4368032217025757,-0.22044813632965088,-0.01553015410900116,-0.005456328392028809,0.024974942207336426
-0.26653921604156494,-0.43135467171669006,-0.1362534761428833,-0.003640413284301758,0.002714991569519043,-0.017509639263153076
-0.15911976993083954,-0.43032053112983704,-0.11033761501312256,-0.0018815696239471436,-0.0005922913551330566,-0.019127726554870605
-0.08895155787467957,-0.3843916356563568,-0.11789552122354507,-0.011746272444725037,0.0018813610076904297,-0.019042015075683594
-0.11391862481832504,-0.31369778513908386,-0.12948019802570343,-0.016093827784061432,-0.009440243244171143,-0.0007843971252441406
-0.14406143128871918,-0.3010113537311554,-0.17401869595050812,-0.00519154965877533,-0.008857309818267822,-0.010860919952392578
-0.06976597011089325,-0.29173576831817627,-0.19478443264961243,0.016989365220069885,-0.00024634599685668945,-0.02149909734725952
-0.0034709598403424025,-0.3353680372238159,-0.18932563066482544,0.021998487412929535,0.001990973949432373,-0.020085573196411133
-0.0026101463008672,-0.29445090889930725,-0.15975145995616913,0.015039114281535149,0.0124930739402771,-0.004255115985870361
-0.02758917585015297,-0.20913036167621613,-0.1031489446759224,0.012243561446666718,0.009933948516845703,-0.010853290557861328
-0.011755981482565403,-0.15215644240379333,-0.07603341341018677,0.009777983650565147,0.008597135543823242,-0.007418692111968994
0.005894987843930721,-0.16172043979167938,-0.05827246233820915,0.010021626949310303,0.005688369274139404,0.006642758846282959
-0.011793559417128563,-0.1757248193025589,-0.047437094151973724,0.002426154911518097,-0.00020432472229003906,0.018817782402038574
-0.06253121048212051,-0.15201188623905182,-0.04348765313625336,0.0010569468140602112,-0.001209557056427002,0.017288625240325928
-0.08427172899246216,-0.1570044755935669,-0.012438414618372917,-0.006417691707611084,0.00016629695892333984,-0.007094860076904297
-0.017192699015140533,-0.07926058769226074,-0.03092753142118454,-0.02258947491645813,-0.00322723388671875,-0.021167516708374023
0.006211903877556324,-0.005943620577454567,-0.03040354512631893,-0.012697868049144745,-0.005273699760437012,0.006210446357727051
-0.04409802705049515,-0.07762421667575836,-0.021549921482801437,-0.013479180634021759,-0.008890330791473389,0.021947741508483887
-0.054070163518190384,-0.08731548488140106,-0.04939884692430496,-0.016685761511325836,-0.009317278861999512,-0.007881402969360352
-0.019675759598612785,-0.03137938305735588,-0.06455790996551514,-0.018719129264354706,0.0037553906440734863,-0.01371777057647705
-0.011909730732440948,-0.019700445234775543,-0.03337173908948898,-0.013303898274898529,0.009166598320007324,0.014448881149291992
-0.055885739624500275,-0.048612188547849655,-0.017986565828323364,-0.013582490384578705,-0.0031489133834838867,0.011726081371307373
-0.04973481968045235,-0.01311806496232748,-0.03848674148321152,-0.005544424057006836,0.0006667375564575195,-0.0041217803955078125
-0.044322419911623,-0.04905702546238899,0.01772201806306839,-0.00033602118492126465,0.008606255054473877,0.00844419002532959
-0.039510928094387054,-0.06359632313251495,0.04826144501566887,-0.0204874649643898,0.0007495284080505371,-0.013042628765106201
-0.008312557823956013,0.052148185670375824,0.0110585056245327,-0.028705783188343048,0.0021515488624572754,-0.01401817798614502
-0.01287172082811594,0.06802979111671448,0.0382629930973053,-0.005271188914775848,0.008168041706085205,0.024179935455322266
-0.024188781157135963,-0.02296692319214344,0.061204105615615845,-0.0074860528111457825,-0.0050550103187561035,0.015616178512573242
-0.00951128825545311,0.0058067599311470985,0.03531868755817413,-0.02212011069059372,-0.00444406270980835,0.006394684314727783
-0.04548174887895584,-0.019902467727661133,0.025358282029628754,-0.013940572738647461,-0.0024167895317077637,0.0034986138343811035
-0.026945319026708603,-0.012325841933488846,0.01663474179804325,-0.007611169945448637,0.00782078504562378,-0.024556219577789307
0.006204530131071806,0.036141034215688705,0.04816080629825592,-0.006047836970537901,0.0160406231880188,-0.015669643878936768
-0.01503588818013668,0.07671723514795303,0.10922901332378387,0.0024641230702400208,0.004726231098175049,0.017450392246246338
-0.05403886362910271,0.002373031573370099,0.10049276798963547,-0.015336096286773682,-0.004017055034637451,0.02111029624938965
-0.030212780460715294,-0.014721553772687912,0.07586246728897095,-0.01135774701833725,-0.006249070167541504,0.007080376148223877
-0.03102000057697296,-0.02935013547539711,0.09070220589637756,0.0062705958262085915,-0.008824467658996582,0.004638850688934326
-0.041248828172683716,-0.025569261983036995,0.1274377852678299,-0.002927437424659729,0.0017794370651245117,-0.00986170768737793
0.018323145806789398,0.000772500759921968,0.11934260278940201,-0.007492691278457642,-0.010776698589324951,-0.034470200538635254
0.043498288840055466,0.05131727457046509,0.09920317679643631,0.00806930661201477,-0.01033782958984375,-0.002251744270324707
0.01383423525840044,-0.020573275163769722,0.12492768466472626,0.013766312971711159,-0.01023411750793457,0.0032071471214294434
0.03739084675908089,-0.0074124583043158054,0.0780007615685463,0.0039186030626297,-0.008153378963470459,-0.02076125144958496
0.059669435024261475,0.07626134902238846,0.051064182072877884,0.011522360146045685,-0.006039083003997803,-0.002626180648803711
0.01773788221180439,0.02539357915520668,0.05303119495511055,0.024267762899398804,-0.010327637195587158,-0.0030536651611328125
0.04170886427164078,0.06358136236667633,0.02836884744465351,0.015157327055931091,0.002665579319000244,-0.02081972360610962
0.05452926829457283,0.060660552233457565,0.05581153184175491,0.021782025694847107,0.013193964958190918,-0.013838410377502441
0.05915427207946777,0.14504310488700867,0.07351494580507278,0.008347667753696442,0.011163413524627686,-0.007995903491973877
0.039133165031671524,0.16460837423801422,0.07907085120677948,0.015012919902801514,0.007528483867645264,0.030381083488464355
-0.009707411751151085,0.049293529242277145,0.08037786930799484,0.012990937568247318,0.004882693290710449,0.044776976108551025
-0.00786600448191166,0.026128176599740982,0.06392563134431839,0.002071000635623932,0.003995358943939209,-0.00013446807861328125
0.016889525577425957,0.08779099583625793,0.07501626759767532,0.004530429840087891,0.007758736610412598,0.010248184204101562
-0.02894696593284607,0.03666851297020912,0.12566964328289032,0.012510150671005249,0.0004000663757324219,0.01888751983642578
0.0019091179128736258,0.016606763005256653,0.11216184496879578,-0.008694007992744446,-0.01683950424194336,-0.004027068614959717
0.0019978161435574293,0.01782844215631485,0.04089031368494034,-0.0010899137705564499,-0.017039358615875244,-0.023024260997772217
0.04439527913928032,0.09019704908132553,0.06825824081897736,0.01915069669485092,0.0034459829330444336,-0.010995030403137207
-0.010915613733232021,0.09415390342473984,0.07913792133331299,0.013917148113250732,-0.011099040508270264,0.01007544994354248
0.006108025088906288,0.09308085590600967,0.04528968408703804,0.008477963507175446,-0.0030451416969299316,-0.015728890895843506
0.060062211006879807,0.14720554649829865,0.07208488881587982,0.02864951640367508,0.00973433256149292,0.006616115570068359
0.011294896714389324,0.12725764513015747,0.14372137188911438,0.03655463457107544,0.004130065441131592,0.03739374876022339
-0.02191299758851528,0.07851014286279678,0.15341679751873016,0.01472744345664978,0.005343198776245117,0.021271109580993652
-0.008452382870018482,0.108396016061306,0.12463942915201187,0.01770005375146866,0.007728099822998047,0.012543201446533203
-0.053898025304079056,0.11391951143741608,0.18599393963813782,0.04585620015859604,0.005955100059509277,0.02101445198059082
-0.06660499423742294,0.046575646847486496,0.2519456744194031,0.031114615499973297,0.002429962158203125,-0.019313573837280273
0.01542447879910469,0.07668931782245636,0.223611980676651,-0.001616649329662323,-0.0031055808067321777,-0.05276268720626831
0.043003641068935394,0.17912594974040985,0.22597341239452362,-0.0025472119450569153,-0.0032497644424438477,-0.03859412670135498
0.051388587802648544,0.22714902460575104,0.24914643168449402,-0.004460260272026062,-0.005310118198394775,-0.0008494853973388672
0.023994138464331627,0.1831645369529724,0.21767671406269073,-0.033712804317474365,-0.015555202960968018,0.01842421293258667
0.024890374392271042,0.15756362676620483,0.13521116971969604,-0.02546599507331848,-0.006660521030426025,0.006093740463256836
0.03782951459288597,0.1687397062778473,0.14206081628799438,-0.011428214609622955,0.014276504516601562,0.02245396375656128
-0.017887208610773087,0.15019021928310394,0.17104992270469666,-0.004368238151073456,0.004007101058959961,0.034547626972198486
-0.05868538096547127,0.10533279925584793,0.14171910285949707,-0.014488503336906433,-0.0009214282035827637,0.019969701766967773
-0.023784974589943886,0.06339827924966812,0.1026807650923729,-0.01562979817390442,0.00845879316329956,-0.011781692504882812
-0.007051835302263498,0.1299467533826828,0.10654035210609436,0.004097416996955872,0.01763904094696045,-0.005045533180236816
-0.05314093455672264,0.15186843276023865,0.15654809772968292,0.008602619171142578,0.0066176652908325195,0.014110922813415527
-0.05270865559577942,0.08691529929637909,0.12560653686523438,-0.007054224610328674,-0.0031517744064331055,0.0078089237213134766
-0.018944932147860527,0.0744803249835968,0.07195931673049927,-0.014758944511413574,-0.003753364086151123,-0.01035243272781372
-0.03951546922326088,0.12321394681930542,0.0538724847137928,-0.0014453679323196411,0.0008591413497924805,-0.0093458890914917
-0.050708118826150894,0.11251634359359741,0.08709917962551117,0.002934977412223816,0.004054367542266846,-0.009540319442749023
-0.019925549626350403,0.09596854448318481,0.07680106163024902,-0.012184768915176392,0.0003120303153991699,-0.020194411277770996
0.0005951847415417433,0.12384742498397827,0.048473212867975235,-0.005823642015457153,0.0013431310653686523,-0.012705326080322266
-0.02877606265246868,0.1213914304971695,0.07147824019193649,-0.0007657111855223775,-0.00046050548553466797,0.0035690665245056152
-0.019580096006393433,0.07520391792058945,0.06463797390460968,-0.007110580801963806,-0.0008113980293273926,-0.002536773681640625
0.0033488504122942686,0.05101686716079712,0.057355765253305435,-0.004839107394218445,0.004509091377258301,-0.010426580905914307
0.020237958058714867,0.09115379303693771,0.06227825582027435,-0.007263615727424622,0.008696138858795166,-0.007252216339111328
-0.0022604952100664377,0.0869324803352356,0.09500759840011597,-0.004951506853103638,0.00299680233001709,0.015780508518218994
-0.0369354672729969,0.009752940386533737,0.06396926194429398,-0.021307334303855896,-0.00800788402557373,0.0073966383934021
0.00401335209608078,0.038354888558387756,0.005369418300688267,-0.02257169783115387,0.004652678966522217,-0.015426039695739746
-0.005983327981084585,0.05464349687099457,0.012485070154070854,-0.006956055760383606,0.009954094886779785,0.016191959381103516
-0.06462875753641129,-0.008588175289332867,0.02799307368695736,-0.007041916251182556,0.0025144219398498535,0.009581804275512695
-0.020865997299551964,-0.012570498511195183,-0.009831074625253677,-0.019636303186416626,0.006110668182373047,-0.021005451679229736
-0.017770016565918922,-0.03177789971232414,-0.017696592956781387,-0.008795902132987976,0.010848701000213623,-0.005042612552642822
-0.03712627664208412,-0.013418779708445072,-0.01115892082452774,-0.012229889631271362,0.004144489765167236,-0.022732019424438477
-0.019210100173950195,-0.0010045216185972095,-0.023617545142769814,-0.006868422031402588,-0.00138932466506958,-0.012515723705291748
-0.0019712760113179684,-0.06712261587381363,-0.002543679904192686,-0.004432931542396545,0.013971686363220215,0.008652567863464355
-0.007672292646020651,-0.07714399695396423,-0.028717517852783203,-0.012980401515960693,-0.003185272216796875,-0.0174102783203125
0.006098662968724966,0.016790322959423065,-0.06001851335167885,-0.016919732093811035,0.005553483963012695,-0.011469244956970215
-0.016278255730867386,-0.012160678394138813,-0.04166441410779953,-0.004868015646934509,-0.0011494755744934082,0.02337336540222168
-0.037633635103702545,-0.09276386350393295,-0.07440650463104248,-0.011108547449111938,-0.006123483180999756,0.007773995399475098
1.2359581887722015e-05,-0.038408949971199036,-0.0931628942489624,0.0031848850194364786,0.005942940711975098,0.0031977295875549316
-0.045358166098594666,-0.025897683575749397,-0.06831523776054382,0.009834274649620056,0.008303642272949219,0.037299275398254395
-0.13050661981105804,-0.054778069257736206,-0.08763886243104935,-0.002013593912124634,0.0008581280708312988,0.011684179306030273
-0.04017467051744461,-0.0883142352104187,-0.09497937560081482,0.014708414673805237,0.0014284253120422363,-0.03097778558731079
0.013203959912061691,-0.12780450284481049,-0.045519135892391205,0.014265432953834534,0.010773658752441406,-0.013645470142364502
-0.023477239534258842,-0.07596316188573837,-0.03560907766222954,-0.012393921613693237,-0.0006404519081115723,-0.037775397300720215
0.01782245934009552,-0.024409113451838493,-0.07143238186836243,-0.01536649465560913,-0.0033559799194335938,-0.03452020883560181
0.031157422810792923,-0.05268453061580658,-0.07092951238155365,-0.007010221481323242,-0.007237434387207031,-0.006578564643859863
0.0277092345058918,-0.09624163061380386,-0.101244255900383,-0.021902263164520264,-0.005046069622039795,-0.010014116764068604
0.04343465343117714,-0.0401209220290184,-0.13293452560901642,-0.012503460049629211,0.006094396114349365,-0.014054954051971436
0.035426776856184006,-0.0001603071577847004,-0.10517521947622299,0.002666383981704712,0.009016036987304688,0.024569332599639893
0.00026844232343137264,-0.10945010185241699,-0.09778657555580139,0.00015324377454817295,0.005200028419494629,0.049563050270080566
-0.03477200120687485,-0.19914601743221283,-0.12546031177043915,-0.007943198084831238,0.0013218522071838379,-0.0021723508834838867
0.004012690857052803,-0.11158543825149536,-0.13585332036018372,3.851205110549927e-05,0.019974470138549805,-0.023511171340942383
0.0049777100794017315,-0.09872954338788986,-0.07235018908977509,0.00665564090013504,0.017395377159118652,0.0003731250762939453
-0.01634127087891102,-0.15512914955615997,-0.09639715403318405,-0.014437704347074032,0.0006877779960632324,-0.021851837635040283
0.014468682929873466,-0.07937422394752502,-0.14732030034065247,0.0016337865963578224,0.007950901985168457,-0.01169818639755249
-0.013160225003957748,-0.10783396661281586,-0.10380789637565613,0.015638433396816254,0.005734920501708984,0.010261774063110352
-0.007371759507805109,-0.13901232182979584,-0.09514544159173965,0.007337392307817936,-0.0007892847061157227,-0.014474809169769287
0.023409435525536537,-0.07703419774770737,-0.1134462058544159,-0.0011075139045715332,0.0007765889167785645,-0.00691986083984375
-0.011932549066841602,-0.11798515915870667,-0.10121706128120422,0.00475224107503891,-0.0019646286964416504,0.01614159345626831
-0.0296835545450449,-0.14031822979450226,-0.11064180731773376,0.005253314971923828,-0.0008513927459716797,0.002530038356781006
-0.022898254916071892,-0.1294638216495514,-0.10539621114730835,0.00396350771188736,0.0011368989944458008,-0.016284644603729248
-0.002294624922797084,-0.08988814055919647,-0.07811474800109863,0.011668354272842407,0.006379902362823486,-0.019162476062774658
0.005521079991012812,-0.05783291533589363,-0.04681527614593506,0.011216634884476662,0.0012717247009277344,0.004241883754730225
-0.009644572623074055,-0.10976333171129227,-0.040063828229904175,0.00659945048391819,-0.006025135517120361,0.00851517915725708
0.008050985634326935,-0.09836185723543167,-0.06069164350628853,-0.008570050820708275,-0.003705918788909912,0.00035893917083740234
0.003848992520943284,-0.06017758324742317,-0.059748440980911255,0.0019149258732795715,0.0008498430252075195,0.012040317058563232
-0.01294277049601078,-0.060018040239810944,-0.0456763431429863,-0.0017848238348960876,-0.009565412998199463,0.019428730010986328
-0.027775835245847702,-0.07589435577392578,-0.08279498666524887,-0.003315366804599762,-0.014283359050750732,0.004176020622253418
0.013310277834534645,-0.06618336588144302,-0.08976161479949951,-0.0005637854337692261,-0.0031577348709106445,-0.01602458953857422
0.005301591008901596,-0.06247697025537491,-0.0672687292098999,0.011519372463226318,-4.404783248901367e-05,-0.004692792892456055
0.004625286906957626,-0.013691674917936325,-0.05816246196627617,-0.004699192941188812,0.0015147924423217773,-0.009736180305480957
0.016277553513646126,-0.03252776339650154,-0.0765133872628212,-0.00320480577647686,-0.0008005499839782715,0.008758723735809326
-0.004815966822206974,-0.048603106290102005,-0.07322826236486435,0.006634615361690521,0.002331852912902832,0.01087939739227295
-0.005241818726062775,-0.03597448766231537,-0.0335247702896595,0.009959489107131958,-0.0004963278770446777,0.010457158088684082
-0.020018145442008972,-0.06349056959152222,-0.02790374681353569,-0.005448861047625542,-0.010474622249603271,-0.005649209022521973
0.007471116725355387,-0.015727851539850235,-0.05092607066035271,-0.000847918912768364,-0.0038698315620422363,-0.012408912181854248
0.020112551748752594,-0.00613474240526557,0.012084768153727055,0.020974934101104736,-0.0032521486282348633,0.005239009857177734
0.015267405658960342,-0.005451237317174673,0.043492138385772705,0.013542482629418373,-0.01297605037689209,0.017461836338043213
0.014262218028306961,-0.04667562618851662,0.022726995870471,0.005624942481517792,-0.018629014492034912,0.008885562419891357
0.02986094355583191,-0.015545269474387169,0.007819237187504768,0.01041150838136673,-0.014510631561279297,-0.007779240608215332
0.020701389759778976,0.028675798326730728,0.03357671946287155,0.02427241951227188,-0.00978916883468628,-0.004987120628356934
0.028420213609933853,0.035875335335731506,0.06534793227910995,0.028747456148266792,-0.006019711494445801,0.004096686840057373
0.04082699865102768,0.019981540739536285,0.04922404885292053,0.004873298108577728,-0.011713802814483643,-0.018510937690734863
0.0757385641336441,0.11545662581920624,0.04449716582894325,0.02550683170557022,0.007050216197967529,-0.012119114398956299
0.03480863571166992,0.08911211788654327,0.14104686677455902,0.031867943704128265,0.006133317947387695,0.02206575870513916
0.042729105800390244,0.058904483914375305,0.13861659169197083,-0.002344362437725067,-0.0022927522659301758,-0.0028798580169677734
0.08587491512298584,0.0715114027261734,0.1135212630033493,-0.013788200914859772,0.004654824733734131,-0.004145443439483643
0.06829816102981567,0.11115626245737076,0.12573285400867462,0.001858450472354889,0.006084322929382324,0.019663989543914795
0.039800014346838,0.05491612106561661,0.15019458532333374,-0.00931607186794281,0.003944456577301025,0.02718043327331543
0.024624677374958992,0.05022844299674034,0.08382999897003174,-0.016259469091892242,0.003084242343902588,0.015196084976196289
0.007772558368742466,0.07839684933423996,0.0853748694062233,0.0023328661918640137,0.006876707077026367,0.01019895076751709
-0.017297333106398582,0.07857850193977356,0.09997260570526123,-0.004052788019180298,0.0017177462577819824,0.011908650398254395
-0.020793670788407326,0.05766265466809273,0.0509338341653347,-0.009474044665694237,-0.0020467638969421387,-0.010929465293884277
0.007585169747471809,0.11141061782836914,0.05481879413127899,0.0049543604254722595,0.008821189403533936,-0.013724327087402344
-7.555307820439339e-05,0.13289761543273926,0.1076376810669899,0.013981090858578682,0.003925681114196777,0.009123384952545166
-0.013819008134305477,0.0519818514585495,0.11624008417129517,0.0010238513350486755,-0.007512807846069336,0.017563343048095703
0.009410206228494644,0.024231307208538055,0.0792483314871788,-0.015048287808895111,-0.005325376987457275,-0.014453887939453125
0.040427256375551224,0.06665661931037903,0.0794919803738594,-0.007661297917366028,0.0039768218994140625,-0.02640080451965332
0.022548280656337738,0.0963711217045784,0.11598800122737885,-0.008908964693546295,0.0023341774940490723,-0.00010693073272705078
0.011224589310586452,0.04571538046002388,0.09311838448047638,-0.01483018510043621,-0.008975565433502197,0.00399702787399292
0.048978667706251144,0.051316551864147186,0.03018062561750412,-0.02577473223209381,0.0012319684028625488,0.005198955535888672
-0.010841857641935349,0.0549510233104229,0.0310100968927145,0.003454960882663727,-0.0021302103996276855,0.03183084726333618
-0.053740840405225754,-0.010391409508883953,0.03752097114920616,-0.005963852629065514,0.00045752525329589844,0.0054375529289245605
0.011849898844957352,0.012405609712004662,0.013063274323940277,-0.00947146862745285,0.005906224250793457,-0.03080826997756958
0.022846177220344543,0.07465386390686035,0.043976444751024246,0.004836127161979675,0.010433793067932129,-0.0015410780906677246
-0.018149081617593765,0.028494874015450478,0.05462716892361641,0.002012619748711586,-0.006883084774017334,0.002780914306640625
0.013562982901930809,-0.005057622212916613,0.004286147188395262,-0.009205177426338196,-0.0003675222396850586,-0.013026714324951172
0.029764465987682343,0.01982181891798973,0.0046497490257024765,-0.0051953792572021484,0.006551086902618408,-0.0112723708152771
0.008364086970686913,0.029080992564558983,0.02458357624709606,-0.004059366881847382,0.007444858551025391,0.003328263759613037
0.01713571324944496,0.024131841957569122,-0.00322985602542758,-0.023867882788181305,0.002851724624633789,0.00033211708068847656
0.026183998212218285,0.022808294743299484,-0.049265582114458084,-0.016941480338573456,0.005111217498779297,0.01904010772705078
-0.028880946338176727,-0.0011389896972104907,-0.041017789393663406,-0.009735478088259697,0.0030943751335144043,0.034477293491363525
-0.06273303925991058,-0.028452079743146896,-0.0790836289525032,-0.010123662650585175,-0.0020252466201782227,0.013014376163482666
-0.05028371140360832,-0.047733139246702194,-0.09179756790399551,0.0016698036342859268,0.0028472542762756348,-0.01445859670639038
-0.02414703741669655,-0.01391772460192442,-0.058254174888134,0.008669884875416756,0.012079417705535889,-0.022338449954986572
-0.021115299314260483,-0.00452769547700882,-0.01957065612077713,0.003048337996006012,0.0014347434043884277,-0.014729022979736328
0.004604797810316086,0.0021297335624694824,-0.04399450868368149,-0.009585998952388763,-0.00747835636138916,-0.012005388736724854
0.005334139335900545,-0.03576294332742691,-0.05631798878312111,-0.00667149480432272,-0.0018320083618164062,0.011937141418457031
-0.007733980193734169,-0.012372569181025028,-0.0687861368060112,-0.014750994741916656,-0.002984762191772461,0.005016326904296875
-0.03464307636022568,-0.00834044162184,-0.09092479199171066,0.0014783218502998352,-0.0028205513954162598,0.0286063551902771
-0.05063069239258766,-0.0579962320625782,-0.08551446348428726,0.0066406503319740295,0.0026656389236450195,0.017703115940093994
-0.04201659560203552,-0.05208838731050491,-0.09901165962219238,0.0023435577750205994,0.003447890281677246,-0.0031273961067199707
-0.04080281779170036,-0.04202568903565407,-0.08190936595201492,0.013894438743591309,0.00943821668624878,-0.011108696460723877
-0.028260521590709686,-0.010754403658211231,-0.05393567308783531,0.007060311734676361,0.007496178150177002,-0.01872718334197998
-0.01904129609465599,0.0010183926206082106,-0.054154034703969955,0.0065718526020646095,0.005177676677703857,-0.0049659013748168945
-0.008836205117404461,0.0012461652513593435,-0.04271130636334419,0.009441591799259186,0.003729701042175293,0.013480067253112793
-0.044202424585819244,-0.026680342853069305,-0.05764560401439667,0.0021618232131004333,-0.009213089942932129,0.02008342742919922
-0.05395454168319702,-0.02870514802634716,-0.08889523893594742,0.0031116902828216553,-0.004883408546447754,-0.011277437210083008
-0.031123962253332138,0.026996605098247528,-0.08073476701974869,0.010351866483688354,0.0039269328117370605,-0.014060795307159424
-0.04146936535835266,0.03323210030794144,-0.05309629812836647,0.023154348134994507,0.00399935245513916,-0.006900012493133545
-0.03503065183758736,0.04773075878620148,-0.03072190284729004,0.020715445280075073,0.004903137683868408,-0.0008643269538879395
-0.03905685991048813,0.004138778895139694,-0.003113596234470606,0.016439780592918396,-0.002650916576385498,-0.009729743003845215
-0.0013613714836537838,0.03612363710999489,0.01933646947145462,0.012739114463329315,0.0014677643775939941,-0.012837886810302734
-0.006654191296547651,0.02036266401410103,0.05086098238825798,0.0012778565287590027,-0.006996870040893555,-0.0044438838958740234
0.01995084248483181,0.02747155912220478,0.05105152353644371,-0.004688538610935211,-0.011366069316864014,-0.007786393165588379
0.01138007640838623,-0.025052042677998543,0.05403079465031624,-0.009920559823513031,-0.0073653459548950195,0.014781832695007324
-0.005779694765806198,-0.07675915211439133,0.0782713070511818,-0.010350845754146576,-0.007241010665893555,0.015350103378295898
-0.011448932811617851,0.004771812818944454,0.00044571864418685436,-0.025540657341480255,-0.01619422435760498,-0.001561284065246582
-0.01175176352262497,-0.016859112307429314,-0.02926122024655342,-0.0018693432211875916,0.0007479190826416016,0.005943715572357178
-0.006852543447166681,-0.022262440994381905,-0.010609445162117481,0.0018892958760261536,0.009128689765930176,-0.012074112892150879
-0.003337506204843521,0.03629731759428978,0.0063409823924303055,0.01116257905960083,0.009662389755249023,-0.010110616683959961
-0.008736995980143547,0.019871162250638008,0.02457304298877716,0.008340582251548767,0.007780253887176514,-0.0007492303848266602
0.00912928394973278,-0.009238994680345058,0.027531979605555534,0.0008523315191268921,0.00490492582321167,-0.008931636810302734
0.00946246087551117,0.0311945378780365,0.024051204323768616,-0.00039674341678619385,0.005758464336395264,-0.0010842084884643555
-0.003453927580267191,0.03070465289056301,0.029992632567882538,-0.005142629146575928,-5.614757537841797e-05,0.015315115451812744
-0.04007425531744957,0.026754120364785194,0.015387057326734066,-0.012931957840919495,-0.0033414363861083984,0.01759558916091919
-0.026338597759604454,-0.029365960508584976,0.002321177162230015,-0.018530085682868958,-0.00665968656539917,-0.008109033107757568
0.010985240340232849,0.009681153111159801,-0.04244626313447952,-0.008593998849391937,0.002959012985229492,-0.001421809196472168
-0.035130757838487625,0.002994642360135913,0.010905876755714417,0.00450550764799118,0.0035045742988586426,0.014818251132965088
-0.041146766394376755,-0.02756970189511776,-0.0007770848460495472,-0.005671054124832153,-0.001035153865814209,-0.00831681489944458
0.015114053152501583,-0.031010890379548073,-0.009480154141783714,-0.007936477661132812,0.002142012119293213,-0.017024338245391846
-0.020151767879724503,-0.014376863837242126,-0.01699111796915531,-0.0024311691522598267,0.0009401440620422363,-0.00921630859375
0.002680917037650943,0.008756651543080807,0.018654514104127884,0.0006884783506393433,0.00470811128616333,-0.012325286865234375
0.01808536984026432,-0.01865175925195217,0.0029063825495541096,-0.010936357080936432,-0.005329012870788574,0.00875157117843628
-0.006332665681838989,-0.014498330652713776,-0.04292779415845871,-0.008583851158618927,-0.002311408519744873,0.011449933052062988
-0.018954280763864517,0.015399239957332611,-0.024439608678221703,0.0179697647690773,0.00366055965423584,0.01988440752029419
-0.034648146480321884,-0.07300049066543579,0.013382192701101303,0.01749282330274582,-0.004029035568237305,0.008224189281463623
0.016098735854029655,-0.10223252326250076,-0.0025131069123744965,-0.0008083879947662354,0.0022164583206176758,-0.0410161018371582
0.04475096985697746,-0.0507267601788044,0.005830564070492983,6.222724914550781e-05,0.015209197998046875,-0.0360487699508667
0.03433094546198845,-0.06102645769715309,0.04813985899090767,-0.005192972719669342,0.011227309703826904,-0.05053091049194336
0.10208006203174591,0.011363739147782326,0.03266070410609245,-0.021736174821853638,0.015268564224243164,-0.029438436031341553
0.055630166083574295,0.03765523433685303,0.01922440528869629,-0.015475235879421234,0.0018756389617919922,0.038983702659606934
-0.0023293732665479183,-0.03429873660206795,-0.011657048016786575,-0.008382409811019897,-0.009618520736694336,0.05937397480010986
-0.015842536464333534,-0.08983772248029709,-0.05853074789047241,-0.011209510266780853,-0.01077204942703247,0.044014573097229004
-0.049977220594882965,-0.09013468772172928,-0.082912877202034,-0.002204379066824913,-0.004331231117248535,0.018757760524749756
-0.044337235391139984,-0.05553954839706421,-0.05555218085646629,0.014589309692382812,0.005273222923278809,0.0019248127937316895
-0.0492747500538826,-0.06930605322122574,-0.03129049390554428,0.013493172824382782,5.507469177246094e-05,-0.0036730170249938965
-0.046812962740659714,-0.055577751249074936,-0.05687190219759941,0.0022215992212295532,-0.0020096898078918457,-0.022659897804260254
-0.012554103508591652,-0.046941421926021576,-0.04035935178399086,0.014465250074863434,0.005640923976898193,-0.028042852878570557
0.004373257514089346,-0.02053028531372547,-0.00456555699929595,0.0003843232989311218,0.004367232322692871,-0.02146434783935547
0.0006769997999072075,0.0009154867730103433,-9.472714737057686e-05,0.0037926211953163147,-0.003587007522583008,0.005041718482971191
0.011765742674469948,-0.03753851354122162,0.004955280106514692,-0.0029068049043416977,-0.008026182651519775,0.018201589584350586
-0.010347716510295868,-0.06902198493480682,-0.017713045701384544,-0.005744561553001404,-0.01305997371673584,0.02583754062652588
-0.023597590625286102,-0.03831892088055611,-0.04511794447898865,-0.015277974307537079,-0.007543981075286865,0.0014723539352416992
-0.011669624596834183,-0.025005994364619255,-0.0480179563164711,0.009123891592025757,-0.0039643049240112305,0.006730258464813232
-0.010538959875702858,-0.043996989727020264,-0.029229529201984406,0.014600031077861786,-0.0037964582443237305,0.00522160530090332
-0.021319633349776268,-0.053374554961919785,-0.030582886189222336,0.00898829847574234,-0.00568389892578125,-0.016550838947296143
0.016346506774425507,-0.005433755461126566,-0.027760444208979607,0.011961638927459717,0.005129039287567139,-0.02991163730621338
0.038647692650556564,-0.009697295725345612,0.03634542599320412,0.023125916719436646,0.01075071096420288,-0.015271008014678955
0.02658596821129322,0.007663317956030369,0.03933322802186012,-0.0030000805854797363,0.004119753837585449,-0.02007228136062622
0.04783066362142563,0.03637601062655449,0.02596696838736534,-0.0005945190787315369,0.002053380012512207,-0.018198907375335693
0.06832560896873474,0.018011504784226418,0.06176024302840233,0.011162392795085907,0.0021430253982543945,0.009388327598571777
0.02494131028652191,-0.005439449567347765,0.07801026105880737,-0.006272122263908386,-0.006331026554107666,0.030344605445861816
0.018084542825818062,-0.002588569885119796,0.017834557220339775,-0.021405011415481567,-0.009949982166290283,0.01302570104598999
0.03323143348097801,-0.015968184918165207,0.01593739166855812,-0.004761835560202599,0.0019140839576721191,0.015302538871765137
0.0025675613433122635,-0.0117391562089324,0.045575886964797974,0.0007130522280931473,-0.0007226467132568359,0.028461873531341553
-0.03936270251870155,-0.03314013406634331,0.014450006186962128,0.0013932958245277405,-0.004523217678070068,0.020603537559509277
-0.0103068295866251,-0.07024045288562775,0.006845106370747089,0.0023861005902290344,0.0018908381462097168,-0.026022374629974365
0.030176887288689613,0.012024986557662487,0.018524620682001114,0.008882055059075356,0.007968485355377197,-0.030938684940338135
0.011971535161137581,0.03243528679013252,0.04635219648480415,0.009310118854045868,0.0023545026779174805,-0.013537108898162842
0.033858202397823334,0.040320735424757004,0.0345919169485569,-0.0015946552157402039,0.000851750373840332,-0.005988776683807373
0.03299038112163544,0.03148453310132027,0.029211726039648056,0.004925303161144257,0.002378106117248535,0.0221632719039917
-0.012954574078321457,-0.022294174879789352,0.04427090659737587,0.0030409786850214005,-0.0011619329452514648,0.01895815134048462
0.0057624452747404575,0.0007156635983847082,0.014507506042718887,-0.012106142938137054,0.007536172866821289,-0.013004422187805176
0.010929412208497524,0.05833246558904648,0.03770739957690239,0.0054456740617752075,0.004915118217468262,0.008693099021911621
-0.02089719846844673,-0.009814698249101639,0.04381713271141052,-0.006070330739021301,-0.003171861171722412,0.005277812480926514
0.02481723576784134,-0.010165832005441189,0.012578964233398438,-0.015474610030651093,0.002351522445678711,-0.014741778373718262
0.03637430816888809,0.04422188177704811,0.011098181828856468,-0.00980648398399353,0.007776021957397461,-0.008444547653198242
-0.003597176866605878,0.034943535923957825,0.02557222545146942,-3.4516677260398865e-05,0.0013048052787780762,0.012588202953338623
-0.0017786161042749882,0.0008212743559852242,0.012107071466743946,-0.011834166944026947,0.002808690071105957,0.005563199520111084
-0.0019508837722241879,-0.012636163271963596,-0.0239296555519104,-0.0031996332108974457,0.007593274116516113,0.016028404235839844
-0.028196042403578758,-0.010845554061233997,0.018537374213337898,0.006529808044433594,0.006739974021911621,0.0026569366455078125
-0.02404595911502838,0.02916130982339382,-0.0002567879855632782,-0.012470066547393799,-0.0029663443565368652,-0.011876940727233887
-0.009810332208871841,0.008834706619381905,-0.02648964338004589,0.002275802195072174,0.0033940672874450684,0.0015898942947387695
-0.0024449254851788282,0.011948318220674992,0.004175621550530195,0.0032447222620248795,0.003346562385559082,-0.004532158374786377
0.0009844833984971046,0.0132608562707901,0.01435963436961174,0.005436919629573822,-0.0017175674438476562,0.002061784267425537
-0.005878260359168053,-0.0021996297873556614,-0.002977654803544283,-0.01346207782626152,-0.00699770450592041,-0.003752410411834717
0.0016215770738199353,-0.009839453734457493,-0.03601662069559097,-0.007859334349632263,-0.004467785358428955,-0.011758744716644287
0.008484827354550362,0.01746470481157303,-0.015654422342777252,-0.00014702975749969482,0.004561364650726318,-0.0025351643562316895
-0.018275119364261627,-0.00023153668735176325,-0.00567671237513423,0.003572992980480194,0.00046437978744506836,0.008916139602661133
-0.005795308854430914,-0.06612952053546906,-0.04619342088699341,-0.007188260555267334,-0.012345552444458008,0.009618639945983887
0.013594817370176315,-0.054337095469236374,-0.030387332662940025,0.008864335715770721,0.0063416361808776855,-0.00023639202117919922
-0.0211624912917614,-0.03930017724633217,0.018533993512392044,-0.001798197627067566,0.007822155952453613,-0.007767140865325928
0.024981215596199036,0.04731401428580284,-0.0009408988989889622,-0.007436707615852356,0.0007449984550476074,-0.01152724027633667
-0.030441366136074066,-0.009188632480800152,-0.007003644946962595,-0.003825761377811432,-0.010399997234344482,0.030504345893859863
-0.025527456775307655,-0.056151628494262695,-0.050285130739212036,-0.012136518955230713,-0.00731891393661499,-0.011775732040405273
0.03663638234138489,-0.004024287685751915,-0.0421975813806057,-0.0006383620202541351,0.005864739418029785,-0.020977318286895752
0.0052824667654931545,0.026495104655623436,0.001215111929923296,0.007710997015237808,-3.4689903259277344e-05,0.003157675266265869
0.008965834975242615,-0.004475721158087254,-0.007207523100078106,-0.00202333927154541,-0.006179153919219971,0.005995810031890869
0.021103333681821823,-0.04072754457592964,-0.04790507256984711,-0.002581261098384857,-0.00012308359146118164,0.0034238100051879883
0.006037521176040173,0.012266661040484905,-0.03703868389129639,0.006106067448854446,0.007196187973022461,-0.004353821277618408
-0.007634870707988739,0.02453514374792576,-0.016278307884931564,0.013978801667690277,0.00012642145156860352,0.0045316219329833984
0.007883640006184578,-0.012537650763988495,-0.01074855774641037,0.00615125335752964,0.0005252957344055176,-0.005561172962188721
0.023150403052568436,0.008653158321976662,-0.011416233144700527,0.001588374376296997,0.0019890666007995605,0.0006033778190612793
0.0057282173074781895,0.02169346995651722,0.0003007524646818638,-0.004374071955680847,-0.0031609535217285156,-0.002020120620727539
0.020456507802009583,0.03450474515557289,-0.01733984611928463,-0.0033418238162994385,-0.004879295825958252,0.008831679821014404
-0.008535059168934822,-0.012707861140370369,-0.022373899817466736,0.0009151641279459,-0.007814764976501465,0.00829380750656128
0.0176848154515028,0.005695570260286331,-0.039792321622371674,-0.0005556270480155945,0.0015605688095092773,-0.015381336212158203
0.02022545225918293,0.024101622402668,-0.002460555173456669,0.013025067746639252,0.005434632301330566,0.00025141239166259766
0.010619835928082466,0.025145765393972397,0.007073148153722286,-0.005846694111824036,-0.0009871125221252441,-0.0019065141677856445
0.02613990381360054,0.01830914244055748,-0.02734040655195713,-0.004211902618408203,0.0002797842025756836,0.005494892597198486
0.005500677973031998,-0.0044061969965696335,-0.02026757225394249,0.004152916371822357,0.0020192861557006836,0.014226436614990234
-0.01376364380121231,0.011069905944168568,-0.03359246626496315,-0.007969178259372711,0.0022403597831726074,-0.005449891090393066
0.011540382169187069,0.05108975991606712,-0.036574140191078186,0.007180511951446533,0.00634312629699707,-0.002695441246032715
0.0010894665028899908,0.029181350022554398,-0.01414671540260315,0.005626983940601349,0.0018693208694458008,0.018917858600616455
-0.029023390263319016,0.027180278673768044,-0.04048017039895058,-0.0004085451364517212,-0.0064473748207092285,0.010888516902923584
-0.01793055236339569,-0.021108353510499,-0.04804558679461479,0.0016102418303489685,-0.0041158199310302734,-0.013957560062408447
0.014019390568137169,0.002228926867246628,-0.04400956630706787,-0.003053143620491028,0.0011472702026367188,-0.037974655628204346
0.03492359444499016,0.07182574272155762,-0.014740334823727608,0.005778662860393524,0.010754168033599854,-0.02151954174041748
0.026670489460229874,0.05451299995183945,0.01763775572180748,-0.0006531830877065659,0.004791438579559326,0.01123201847076416
0.015047794207930565,0.03207259252667427,-0.022301550954580307,-0.005821846425533295,-0.0021427273750305176,0.02401602268218994
-0.0068064965307712555,-0.03022627905011177,-0.010612059384584427,0.0011261925101280212,0.0007405281066894531,0.028616666793823242
-0.012632686644792557,0.005921695381402969,-0.012900766916573048,-0.005219741724431515,0.0010077357292175293,0.005201578140258789
-0.02324368618428707,0.008993539027869701,-0.014424390159547329,0.011915981769561768,0.0007320046424865723,0.014419734477996826
-0.03229872137308121,-0.043423525989055634,0.0051240636967122555,0.005353190004825592,-0.0009043216705322266,-0.016307592391967773
0.013864157721400261,0.04534756392240524,-0.011691931635141373,0.0023551443591713905,0.0001366734504699707,-0.028168439865112305
0.009290543384850025,0.030630026012659073,0.021018581464886665,0.008498303592205048,-0.003207385540008545,0.0037088990211486816
-0.01221119798719883,0.008804251439869404,-0.0027123112231492996,-0.011509827338159084,-0.008904218673706055,-0.007589161396026611
0.021220143884420395,0.03859108313918114,-0.019874699413776398,-0.00013637449592351913,0.003817915916442871,-0.008684754371643066
0.014484943822026253,0.029209617525339127,0.022377317771315575,0.006955452263355255,0.004387021064758301,0.018881380558013916
-0.01674858294427395,0.005538296885788441,0.0017151315696537495,-0.004389412701129913,-0.008035123348236084,0.010880529880523682
-0.011869307607412338,-0.015464035794138908,-0.020231476053595543,0.00484718382358551,0.00475311279296875,0.007681131362915039
-0.0017045140266418457,-0.006765058729797602,0.00773293012753129,0.00037013739347457886,0.005405068397521973,-0.0189552903175354
0.011199980042874813,0.07750217616558075,0.008892561309039593,0.008296161890029907,0.006150007247924805,0.008659601211547852
-0.033803775906562805,0.008836595341563225,0.04693599045276642,0.013325035572052002,-0.0047841668128967285,0.036969780921936035
-0.04437828063964844,-0.05989827588200569,-0.005218081641942263,-0.012630388140678406,-0.01133030652999878,-0.0022774934768676758
-0.001374035608023405,-0.003366693388670683,-0.04251153767108917,-0.003659278154373169,0.0009300708770751953,-0.03271675109863281
0.0005679086316376925,0.024093665182590485,0.025718197226524353,0.010813310742378235,0.008459150791168213,-0.029969096183776855
0.026346206665039062,0.07978548854589462,0.04383447766304016,-0.008277952671051025,0.0025006532669067383,-0.00390625
0.008563807234168053,0.02406083419919014,0.00725125428289175,-0.008423902094364166,-0.00836479663848877,0.0402066707611084
-0.0286276713013649,-0.06384489685297012,-0.038134634494781494,-0.008544310927391052,-0.006687581539154053,0.026927590370178223
-0.029933348298072815,-0.02627253159880638,-0.03625917807221413,0.002281196415424347,0.008264601230621338,-0.004126131534576416
-0.03834890201687813,0.003288320731371641,-0.005954383872449398,0.009423986077308655,0.010952472686767578,0.005423903465270996
-0.05164564773440361,-0.013964241370558739,-0.01774309016764164,0.004177309572696686,0.0020648837089538574,-0.004235208034515381
-0.014951425604522228,-0.01231380831450224,-0.028636829927563667,0.009335845708847046,0.008573770523071289,-0.00406038761138916
-0.04085840284824371,-0.015938464552164078,0.008133459836244583,0.008369475603103638,0.004015564918518066,-0.0018579959869384766
-0.03487465903162956,0.041264645755290985,-0.013947244733572006,-0.0028046295046806335,-0.007204890251159668,-0.00950932502746582
-0.028403768315911293,-0.00758238323032856,-0.015099415555596352,0.009971536695957184,-0.00877457857131958,0.0047980546951293945
-0.016327202320098877,-0.029535843059420586,0.0007463337387889624,0.0029771849513053894,-0.0033777356147766113,0.0035216808319091797
-0.037743307650089264,0.004021122120320797,-0.026013020426034927,-0.009851053357124329,-0.009039878845214844,0.000661313533782959
-0.02849431335926056,-0.014009114354848862,-0.014127667993307114,0.005140289664268494,-0.0039234161376953125,-0.0026459693908691406
0.006044277921319008,-0.02519560419023037,0.0016519546043127775,-0.00014866888523101807,-0.0019058585166931152,0.001954793930053711
-0.01135394535958767,-0.028692195191979408,0.008239462971687317,-0.00272402074187994,-0.00550532341003418,0.0036647915840148926
-0.008580091409385204,-0.012771166861057281,-0.006767725106328726,-0.006579473614692688,-0.0005977153778076172,0.016014039516448975
-0.03482044115662575,-0.031079841777682304,0.008158111944794655,-0.004030220210552216,-0.0072473883628845215,0.018137753009796143
-0.04562036320567131,-0.09357438236474991,-0.03335121273994446,-0.014880083501338959,-0.008823394775390625,-0.013269484043121338
-0.002816413063555956,-0.013325419276952744,-0.05143975839018822,-0.0059415847063064575,0.006811738014221191,-0.03836703300476074
-0.003286021761596203,0.01026977226138115,0.007098912727087736,0.007666111923754215,0.01009058952331543,-0.014711618423461914
0.02091853879392147,0.000635807286016643,0.01629752479493618,-0.004853582940995693,0.006063580513000488,-0.01239466667175293
0.015928827226161957,-0.0017831457080319524,-0.005662295036017895,-0.0006096512079238892,0.001541733741760254,0.011720895767211914
0.003983637318015099,-0.05017366260290146,0.025901803746819496,0.005828790366649628,0.004314541816711426,0.0069963932037353516
0.007336164824664593,-0.02543884515762329,0.025671029463410378,-0.011988459154963493,-0.00042492151260375977,0.004758656024932861
-0.013071388006210327,-0.04296174645423889,-0.011179598048329353,-0.02174677513539791,0.0006162524223327637,-0.004214107990264893
0.013078765943646431,-0.009813614189624786,-0.018178541213274002,-0.009400933980941772,0.005318820476531982,-0.011884808540344238
0.007757806219160557,-0.0028576813638210297,0.017968464642763138,-0.0015639662742614746,-0.0002301931381225586,0.011755287647247314
-0.01123150996863842,-0.06596601754426956,-0.001459829043596983,-0.011645779013633728,-0.009843587875366211,0.008027732372283936
0.012637181207537651,-0.05298738554120064,-0.02687922492623329,-0.009662382304668427,-0.007477879524230957,-0.01929175853729248
0.017745250836014748,-0.023995598778128624,-0.007471824996173382,-0.001629658043384552,0.0007908344268798828,-0.004181921482086182
0.017574826255440712,-0.029837675392627716,0.007130223326385021,-0.0031630899757146835,-0.0034224390983581543,-0.011872589588165283
0.04477989673614502,-0.007991444319486618,-0.005102973897010088,0.008605778217315674,0.0012786388397216797,0.00708460807800293
0.013080950826406479,-0.06211478263139725,0.026294244453310966,0.011796481907367706,-0.004855513572692871,0.011537611484527588
0.02385452389717102,-0.02938087098300457,-0.0005336971953511238,-0.0049690306186676025,0.00015497207641601562,-0.013294637203216553
0.041632965207099915,0.014705429784953594,0.008988756686449051,0.01115536130964756,0.008354246616363525,0.0035889744758605957
-0.0017874771729111671,-0.020514342933893204,0.04098690301179886,0.009955115616321564,0.0038216710090637207,0.02172243595123291
0.007646926678717136,-0.0377361923456192,0.016784684732556343,-0.0013154074549674988,-0.004959225654602051,-0.009853661060333252
0.04448685050010681,-0.024432091042399406,0.007247998379170895,0.0004040449857711792,0.0014523863792419434,-0.017658233642578125
0.029358409345149994,0.011864877305924892,0.04576583206653595,0.008155161514878273,0.00446707010269165,-0.005418896675109863
0.026679890230298042,-0.020893815904855728,0.048446301370859146,-0.007521733641624451,-0.0017178654670715332,-0.00015437602996826172
