rotation_x,rotation_y,rotation_z,acceleration_x,acceleration_y,acceleration_z
0.1506863832473755,-0.2682771384716034,0.3862225115299225,-0.004364661872386932,0.019132263958454132,-0.07140439748764038
0.06333291530609131,-0.3771350681781769,0.33667880296707153,-0.04732052981853485,0.00017379969358444214,-0.031089961528778076
0.12427245080471039,-0.45725709199905396,0.0872773677110672,-0.018736012279987335,0.028785616159439087,0.005594730377197266
0.35202300548553467,-0.8223962187767029,-0.17380496859550476,0.017023295164108276,0.025497332215309143,-0.003412902355194092
0.5072680711746216,-1.076108455657959,-0.48217523097991943,0.04497664421796799,-0.011774584650993347,-0.041528940200805664
0.6892396807670593,-0.9701694846153259,-0.8327217698097229,0.008944161236286163,0.03646102547645569,-0.024763047695159912
1.0121442079544067,-0.30920058488845825,-1.0496939420700073,0.003653682768344879,0.11341637372970581,0.014493286609649658
1.5205050706863403,0.16316719353199005,-0.9184878468513489,0.008572451770305634,0.08624430000782013,0.0413287878036499
1.6738851070404053,0.509139358997345,-0.6334871053695679,0.010746300220489502,0.04101648926734924,0.0669482946395874
1.1830697059631348,0.8097549080848694,-0.4326290488243103,-0.050246164202690125,0.018516525626182556,0.1551411747932434
0.33165645599365234,1.0071220397949219,-0.06101338937878609,0.011814258992671967,-0.0014037489891052246,0.22977215051651
-0.3696179986000061,0.7353730797767639,0.27406686544418335,0.07570461928844452,-0.002955988049507141,0.30667370557785034
-0.6557105779647827,0.5197567939758301,0.2545406222343445,0.0669499933719635,0.03279174864292145,0.28951960802078247
-0.5941657423973083,0.618476927280426,0.03341609984636307,0.04113595187664032,0.053921669721603394,0.28929680585861206
-0.2768211364746094,0.8740625977516174,-0.27197766304016113,-0.04189686477184296,0.07288071513175964,0.30781471729278564
0.12560725212097168,1.0029491186141968,-0.4743887484073639,-0.053986772894859314,0.09860348701477051,0.34396588802337646
0.32112443447113037,1.0237584114074707,-0.38360467553138733,0.022932186722755432,0.09339989721775055,0.36821651458740234
-0.04363230988383293,1.376481294631958,-0.0949297696352005,0.0924854725599289,0.1268770843744278,0.379780650138855
-0.4434870481491089,1.086388349533081,-0.22829510271549225,-0.08154326677322388,0.1440097689628601,0.41655200719833374
-0.4773997664451599,0.6475011706352234,-0.6107157468795776,-0.2394721508026123,0.17188504338264465,0.4346355199813843
-0.25527510046958923,0.9048919081687927,-1.015857458114624,-0.3062593340873718,0.24262365698814392,0.3533483147621155
0.004061094485223293,1.817083716392517,-1.2856249809265137,-0.21210479736328125,0.27171236276626587,0.3453750014305115
-0.6350725293159485,1.6057865619659424,-1.3256052732467651,0.021720826625823975,0.21280565857887268,0.23122626543045044
-1.2193284034729004,1.0382641553878784,-1.0203566551208496,0.005241811275482178,0.2103743702173233,0.14516550302505493
-1.3775538206100464,1.2481530904769897,-1.3114557266235352,-0.1356579065322876,0.15474168956279755,0.06787842512130737
-1.2361116409301758,1.8655614852905273,-1.4218453168869019,-0.10872185230255127,0.18412072956562042,-0.044484496116638184
-1.0631725788116455,2.1734683513641357,-1.2650833129882812,0.07176333665847778,0.16894474625587463,-0.020216405391693115
-0.9761010408401489,2.7124645709991455,-1.1768851280212402,0.03757297992706299,0.17031966149806976,-0.09772628545761108
-0.6516001224517822,2.978982925415039,-1.165311574935913,0.0514143705368042,0.13191097974777222,-0.17324715852737427
-0.308788001537323,2.8704097270965576,-1.3475284576416016,0.06681036949157715,0.19597271084785461,-0.18916970491409302
-0.3507542014122009,3.051460027694702,-1.687650203704834,0.0985175371170044,0.2352484166622162,-0.2436268925666809
-0.5749981999397278,3.1231002807617188,-2.017604351043701,0.05139559507369995,0.1657891571521759,-0.037393808364868164
-0.699918270111084,3.610379934310913,-2.2811193466186523,0.07359373569488525,0.15874406695365906,-0.033287763595581055
-0.5038921236991882,4.449367046356201,-2.490940809249878,0.12744587659835815,0.1393028050661087,-0.10806751251220703
0.06151248887181282,5.544888496398926,-2.722418785095215,0.16211938858032227,0.13372334837913513,-0.25845015048980713
0.5844379663467407,6.188357353210449,-3.020097494125366,0.22477030754089355,0.0944775640964508,-0.36886247992515564
0.8203728199005127,6.070713996887207,-3.5314619541168213,0.23575836420059204,0.0514184832572937,-0.3734802305698395
0.7598313093185425,5.1434736251831055,-3.5448660850524902,0.45136529207229614,-0.0424325168132782,-0.37410733103752136
0.6196414232254028,3.742811679840088,-2.9000730514526367,0.6203398108482361,-0.07700398564338684,-0.27328556776046753
1.086053729057312,2.8523967266082764,-1.8565092086791992,0.784439742565155,-0.12241017818450928,-0.36645352840423584
1.8711037635803223,1.8555645942687988,-0.6496946811676025,0.7336975336074829,-0.23089289665222168,-0.5190857648849487
2.1441426277160645,0.5114002823829651,0.5243304371833801,0.6949111819267273,-0.17538872361183167,-0.43628036975860596
1.3164808750152588,-1.0468589067459106,0.6775943040847778,0.3718499541282654,-0.18449914455413818,-0.1264890432357788
0.3192775547504425,-2.0243844985961914,0.39383840560913086,0.15614938735961914,-0.040868937969207764,0.15898321568965912
-0.016521111130714417,-2.091248035430908,0.23373553156852722,0.07213830947875977,-0.03759312629699707,0.16822946071624756
0.29549089074134827,-1.5565919876098633,0.23226380348205566,0.08975261449813843,-0.04952037334442139,0.04716916382312775
0.8637195825576782,-0.8879488110542297,0.2324950098991394,0.049081504344940186,-0.031142622232437134,-0.037133604288101196
1.3144629001617432,-0.25230881571769714,0.12426143884658813,-0.025932669639587402,0.007288485765457153,-0.030744045972824097
1.4789894819259644,0.2532861828804016,-0.12602537870407104,-0.1104421615600586,-0.0006322860717773438,0.025432318449020386
1.3993338346481323,0.5748202204704285,-0.46137088537216187,-0.1618422269821167,-0.051058441400527954,0.10077691078186035
1.2120646238327026,0.6886236667633057,-0.7620413303375244,-0.15043723583221436,-0.031205177307128906,0.12818753719329834
1.1375564336776733,0.8269461989402771,-1.0107526779174805,-0.08703804016113281,-0.015140414237976074,0.11092385649681091
1.26766037940979,1.1508663892745972,-1.2051492929458618,-0.0758814811706543,-0.019851118326187134,0.05396926403045654
1.557107925415039,1.6860826015472412,-1.300715684890747,-0.052831947803497314,-0.012835025787353516,0.0077117085456848145
1.9721887111663818,2.168429374694824,-1.2020633220672607,0.00981217622756958,-0.004619896411895752,-0.03984570503234863
2.4544618129730225,2.5506153106689453,-1.0416309833526611,0.056590914726257324,0.0003255903720855713,-0.0839531421661377
2.767841100692749,2.665400266647339,-0.9636464715003967,0.030329465866088867,-0.011020451784133911,-0.09203904867172241
2.646969795227051,2.509516954421997,-0.9884263277053833,0.04239076375961304,-0.0049111247062683105,0.018360227346420288
2.2975425720214844,2.1298859119415283,-1.0053826570510864,0.04449641704559326,-0.007888048887252808,0.09281721711158752
1.805595874786377,1.7096424102783203,-0.8626846075057983,0.0854904055595398,-0.0348813533782959,0.14120285212993622
1.2615000009536743,1.2610548734664917,-0.6030985713005066,0.1280154585838318,-0.06556886434555054,0.15535442531108856
0.7125247716903687,0.7876829504966736,-0.280468612909317,0.14614713191986084,-0.08381962776184082,0.15398907661437988
0.1972942054271698,0.3426938056945801,0.01684042252600193,0.14359533786773682,-0.07260841131210327,0.14028120040893555
-0.23114730417728424,-0.010422649793326855,0.2749800980091095,0.11353355646133423,-0.052951037883758545,0.12200504541397095
-0.4117998480796814,-0.13994358479976654,0.4431660771369934,0.06376993656158447,-0.02890259027481079,0.0597689151763916
-0.48725783824920654,-0.18813137710094452,0.45642903447151184,0.024394512176513672,-0.003287971019744873,0.01486968994140625
-0.5148738622665405,-0.19289393723011017,0.3554902672767639,-0.01165682077407837,0.05488273501396179,-0.0029336661100387573
-0.4133007526397705,-0.15622863173484802,0.2544628381729126,-0.04009503126144409,0.0739612877368927,-0.03752785921096802
-0.20880894362926483,-0.03787196800112724,0.195694699883461,-0.04666125774383545,0.0798230767250061,-0.07355843484401703
0.004625956993550062,0.10756224393844604,0.20377010107040405,-0.04643452167510986,0.07498970627784729,-0.08210538327693939
0.13314487040042877,0.23299071192741394,0.25916317105293274,-0.049940526485443115,0.06320500373840332,-0.06256836652755737
0.19037622213363647,0.2653844356536865,0.260709285736084,-0.06097477674484253,0.058661192655563354,-0.042780742049217224
0.1996319442987442,0.1969519406557083,0.22381006181240082,-0.06574583053588867,0.07739526033401489,-0.029554009437561035
0.1576637327671051,0.08504094183444977,0.17156089842319489,-0.06473875045776367,0.09167063236236572,-0.008939027786254883
0.05910692363977432,0.01289539597928524,0.12736372649669647,-0.0887763500213623,0.08526140451431274,0.012122169137001038
-0.030117636546492577,-0.01023799553513527,0.12733225524425507,-0.09637802839279175,0.07817107439041138,0.028597310185432434
-0.07025639712810516,0.03742801025509834,0.16072918474674225,-0.09156745672225952,0.07483786344528198,0.024129286408424377
-0.07050486654043198,0.05783650279045105,0.14213894307613373,-0.08232557773590088,0.07874876260757446,0.0187656432390213
-0.11612498760223389,0.01948443427681923,0.027775555849075317,-0.09017032384872437,0.09963053464889526,0.01526816189289093
-0.16426487267017365,-0.06051349267363548,-0.07217542827129364,-0.10035121440887451,0.09980505704879761,0.009623304009437561
-0.15583732724189758,-0.09209617972373962,-0.10846219956874847,-0.08804327249526978,0.0830216109752655,-0.0008794516324996948
-0.13714978098869324,-0.07251480221748352,-0.11429281532764435,-0.07221466302871704,0.06616660952568054,-0.004425570368766785
-0.13179776072502136,-0.05063299089670181,-0.09847752749919891,-0.06511104106903076,0.059282124042510986,-0.004300892353057861
-0.1694883108139038,-0.04351659119129181,-0.10641366243362427,-0.06277227401733398,0.05082440376281738,0.011966541409492493
-0.19723130762577057,-0.06287071853876114,-0.16886048018932343,-0.06501996517181396,0.0487406849861145,0.009198293089866638
-0.18882857263088226,-0.1267881691455841,-0.24598397314548492,-0.052989423274993896,0.0508420467376709,0.0013695955276489258
-0.18485966324806213,-0.14183762669563293,-0.3111298382282257,-0.056787192821502686,0.04374551773071289,-0.0050182342529296875
-0.17260023951530457,-0.10953953862190247,-0.3472343981266022,-0.044360220432281494,0.02594679594039917,-0.004279613494873047
-0.14822685718536377,-0.10029342025518417,-0.3815420866012573,-0.03188878297805786,0.02040153741836548,-0.00850057601928711
-0.11604971438646317,-0.04919130355119705,-0.38581910729408264,-0.025339782238006592,0.0037253499031066895,-0.015162214636802673
-0.08222299069166183,0.0012521932367235422,-0.3706919252872467,-0.008982419967651367,-0.008165121078491211,-0.016939282417297363
-0.07062650471925735,0.018996290862560272,-0.35865911841392517,0.005872786045074463,-0.0204848051071167,-0.00939585268497467
-0.09162285178899765,-0.008007308468222618,-0.3867049813270569,0.012241125106811523,-0.0244138240814209,-0.0027098655700683594
-0.1321123242378235,-0.015058961696922779,-0.35494229197502136,0.018839120864868164,-0.04183506965637207,0.000607609748840332
-0.16117581725120544,-0.12639208137989044,-0.3925413191318512,0.04600554704666138,-0.046575963497161865,0.012864828109741211
-0.16153860092163086,-0.29814308881759644,-0.5070648193359375,0.0712006688117981,-0.005829930305480957,-0.027687132358551025
-0.1318349689245224,-0.3888322114944458,-0.47637706995010376,0.04926949739456177,-0.048722267150878906,-0.050610899925231934
-0.10076916217803955,-0.33386531472206116,-0.3758382201194763,0.061798274517059326,-0.07738536596298218,-0.032450661063194275
-0.045902349054813385,-0.2114352136850357,-0.2781539857387543,0.07990461587905884,-0.08693653345108032,-0.02400951087474823
0.012441003695130348,-0.09266885370016098,-0.2183382660150528,0.07991385459899902,-0.08922958374023438,-0.009379208087921143
0.03324724733829498,-0.004193535540252924,-0.2094995081424713,0.08434444665908813,-0.08482563495635986,0.008485794067382812
0.00476588262245059,0.060015831142663956,-0.20760171115398407,0.0741720199584961,-0.08610862493515015,0.019565805792808533
-0.03465651720762253,0.09735234826803207,-0.14407968521118164,0.08480727672576904,-0.09611892700195312,0.01818978786468506
-0.06718680262565613,0.11828884482383728,-0.055126339197158813,0.09728598594665527,-0.10947549343109131,0.011218786239624023
-0.09878497570753098,0.10222724825143814,0.00022074230946600437,0.09835654497146606,-0.10570406913757324,0.00401073694229126
-0.09079735726118088,0.06875067204236984,0.018925929442048073,0.09335637092590332,-0.09695559740066528,-0.011443853378295898
-0.030749734491109848,0.025147372856736183,-0.004706372041255236,0.08554708957672119,-0.08486801385879517,-0.02842746675014496
0.06929043680429459,-0.009714581072330475,-0.01138322614133358,0.08028912544250488,-0.07753533124923706,-0.04841817915439606
0.15698860585689545,-0.00818613450974226,0.00697755254805088,0.07819485664367676,-0.07766801118850708,-0.045146748423576355
0.18546703457832336,0.0354633703827858,0.042494434863328934,0.07238972187042236,-0.07856911420822144,-0.02518381178379059
0.18107160925865173,0.09542547166347504,0.07838395982980728,0.0700414776802063,-0.07246637344360352,-0.0025057047605514526
0.19704875349998474,0.16319362819194794,0.10227692127227783,0.06666165590286255,-0.06487256288528442,0.003962263464927673
0.29116329550743103,0.24516944587230682,0.16003702580928802,0.06797462701797485,-0.0606999397277832,-0.021806105971336365
0.3731808364391327,0.25353068113327026,0.19284716248512268,0.07074981927871704,-0.04508000612258911,-0.031593725085258484
0.36482104659080505,0.23353928327560425,0.20545397698879242,0.04837906360626221,-0.03979480266571045,-0.025134623050689697
0.33834853768348694,0.14042522013187408,0.2130531370639801,0.0453985333442688,-0.03515219688415527,-0.007990747690200806
0.25945600867271423,0.03261992707848549,0.22935765981674194,0.0433119535446167,-0.02709376811981201,0.00730365514755249
0.1362275332212448,-0.06017551198601723,0.25765520334243774,0.03510850667953491,-0.01976698637008667,0.027987495064735413
0.02773791365325451,-0.11060681939125061,0.2770066261291504,0.021134376525878906,-0.012838006019592285,0.0364932119846344
-0.015463032759726048,-0.1077958270907402,0.28249314427375793,0.005245864391326904,-0.002511918544769287,0.024388596415519714
-0.014868566766381264,-0.06890422105789185,0.28114792704582214,-0.009076118469238281,0.004690647125244141,0.012113139033317566
0.006255546119064093,0.003002812387421727,0.26974964141845703,-0.023466765880584717,0.01437300443649292,0.0047397613525390625
0.036980777978897095,0.05649321898818016,0.252859890460968,-0.032932281494140625,0.02003657817840576,-0.0038690418004989624
0.07033263891935349,0.0681052878499031,0.1880764365196228,-0.038214266300201416,0.0273476243019104,-0.010008037090301514
0.07252836227416992,0.01675061509013176,0.10474326461553574,-0.046105265617370605,0.04053008556365967,-0.0198400616645813
0.08480343222618103,-0.03802444040775299,0.07739607244729996,-0.048054635524749756,0.04523962736129761,-0.023667678236961365
0.12513330578804016,-0.03412121906876564,0.08026129752397537,-0.04810178279876709,0.039858102798461914,-0.025297939777374268
0.16346928477287292,0.0026431300211697817,0.11617238074541092,-0.041504085063934326,0.0401383638381958,-0.017697036266326904
0.16919730603694916,0.05868489295244217,0.14160186052322388,-0.04169648885726929,0.03749209642410278,-0.003410235047340393
0.12135098874568939,0.07715736329555511,0.10837240517139435,-0.047025322914123535,0.04694586992263794,0.020214155316352844
0.05169499292969704,0.03478064388036728,0.04383537545800209,-0.057160139083862305,0.05196881294250488,0.026802435517311096
0.019363712519407272,0.01262142974883318,-0.004480417817831039,-0.057797789573669434,0.05610579252243042,0.011898711323738098
0.03796170651912689,0.006032522767782211,-0.01570376195013523,-0.052591025829315186,0.04902482032775879,-0.005337610840797424
0.05128137022256851,0.019412027671933174,0.005052812397480011,-0.04709160327911377,0.04616326093673706,-0.010753855109214783
0.04131811112165451,0.02650902047753334,0.0010737553238868713,-0.04788702726364136,0.03999984264373779,-0.0030277222394943237
0.01767999492585659,0.0505753792822361,-0.011445142328739166,-0.05192065238952637,0.040391623973846436,0.007652223110198975
0.01148330420255661,0.06185320019721985,-0.029650188982486725,-0.05056947469711304,0.03858768939971924,0.005789086222648621
0.022053312510252,0.049447376281023026,-0.0659424364566803,-0.0441552996635437,0.03579980134963989,0.0026434510946273804
0.012373337522149086,-0.009757976047694683,-0.11712843179702759,-0.04012686014175415,0.038791537284851074,-0.0016333013772964478
-0.028936926275491714,-0.0662255808711052,-0.14784589409828186,-0.03721135854721069,0.029972851276397705,0.006725504994392395
-0.05176094174385071,-0.08613641560077667,-0.16257049143314362,-0.035903990268707275,0.021687328815460205,-0.0010761022567749023
-0.0397164411842823,-0.07700462639331818,-0.1566205620765686,-0.027026236057281494,0.01388692855834961,-0.010712847113609314
-0.03316757455468178,-0.03954429551959038,-0.1642579436302185,-0.026746630668640137,0.007036924362182617,-0.0036676526069641113
-0.022600281983613968,-0.05051897093653679,-0.21836741268634796,-0.023239493370056152,0.011128485202789307,-0.00011110305786132812
-0.011987783014774323,-0.03274092078208923,-0.2421640157699585,-0.01988041400909424,0.0016713142395019531,-0.0015498995780944824
-0.01268494501709938,-0.030962692573666573,-0.26200389862060547,-0.007302522659301758,-0.009197890758514404,0.0034477710723876953
-0.02253202348947525,-0.014548801816999912,-0.262679785490036,-0.0035155415534973145,-0.017299294471740723,-0.0013439059257507324
-0.01745058223605156,-0.0025141919031739235,-0.24425722658634186,0.008745670318603516,-0.026860952377319336,-0.003986135125160217
-0.009035587310791016,-0.0367080457508564,-0.2534039318561554,0.01919233798980713,-0.030560851097106934,-0.0036499351263046265
-0.017470985651016235,-0.04369448497891426,-0.24671177566051483,0.020313024520874023,-0.03627520799636841,-0.003742501139640808
-0.03644872084259987,-0.03874939680099487,-0.1975122094154358,0.032509684562683105,-0.046020567417144775,0.007589936256408691
-0.05883736163377762,-0.023690031841397285,-0.18610548973083496,0.040001630783081055,-0.05324912071228027,0.011383667588233948
-0.07099246978759766,-0.02948871999979019,-0.1814461201429367,0.04186207056045532,-0.04864764213562012,0.005777075886726379
-0.05650794506072998,-0.03236594796180725,-0.17651857435703278,0.045836448669433594,-0.04829925298690796,-0.004884183406829834
-0.02716188132762909,-0.013943330384790897,-0.14983665943145752,0.052453041076660156,-0.04975515604019165,-0.016196325421333313
0.0013659209944307804,0.0030273818410933018,-0.12138410657644272,0.058458566665649414,-0.051354289054870605,-0.018605008721351624
0.016645759344100952,0.004616089630872011,-0.11577703803777695,0.05841875076293945,-0.04893970489501953,-0.015253543853759766
0.03168410435318947,0.02720784954726696,-0.08822563290596008,0.058645427227020264,-0.052440762519836426,-0.013060688972473145
0.04201652854681015,0.059808868914842606,-0.04836772754788399,0.06113499402999878,-0.05825507640838623,-0.007523730397224426
0.03560973331332207,0.07071942090988159,-0.02689260244369507,0.05723947286605835,-0.060018837451934814,-0.0007745027542114258
0.002362721599638462,0.06362736225128174,-0.03605949878692627,0.05040895938873291,-0.05316019058227539,0.007950440049171448
-0.03530678525567055,0.0036154889967292547,-0.03845231980085373,0.04965013265609741,-0.04498291015625,0.014655932784080505
-0.04091934487223625,-0.05129555985331535,0.008353478275239468,0.05216330289840698,-0.04990905523300171,0.0092659592628479
-0.03972432017326355,-0.06317873299121857,0.04790550097823143,0.05005359649658203,-0.04955148696899414,0.0007906705141067505
-0.037445519119501114,-0.044629137963056564,0.07886146754026413,0.041475534439086914,-0.04493170976638794,0.0033072829246520996
-0.03135223686695099,-0.008453438989818096,0.10503387451171875,0.03574061393737793,-0.04229891300201416,0.0067716240882873535
-0.03676322475075722,0.0121791185811162,0.12228623777627945,0.03405570983886719,-0.03197556734085083,0.0064729005098342896
-0.0407305583357811,0.0372871533036232,0.16033227741718292,0.03140568733215332,-0.031405091285705566,0.0024236291646957397
-0.03861486166715622,0.008810951374471188,0.1674913465976715,0.03029942512512207,-0.021570444107055664,-0.0032562613487243652
-0.031469687819480896,-0.006795255001634359,0.17674914002418518,0.022907555103302002,-0.008527696132659912,-0.010170325636863708
-0.01435832493007183,0.005183071829378605,0.1964222490787506,0.014404773712158203,-0.0070950984954833984,-0.012590110301971436
0.019599273800849915,0.04447227716445923,0.22007614374160767,0.0077457427978515625,-0.004288077354431152,-0.011884436011314392
0.040296733379364014,0.06566917896270752,0.21911005675792694,0.0036235451698303223,0.006686687469482422,-0.005849406123161316
0.03650883585214615,0.09143267571926117,0.21720515191555023,-0.0032028555870056152,0.012993395328521729,0.0020636916160583496
0.032853007316589355,0.04959195479750633,0.1252823919057846,-0.003416299819946289,0.018546223640441895,0.009766697883605957
0.015177592635154724,-0.0961938127875328,-0.06511911004781723,-0.017036855220794678,0.05527216196060181,-0.009934842586517334
0.055539146065711975,-0.15611886978149414,-0.09052499383687973,-0.0283624529838562,0.044989168643951416,-0.030924484133720398
0.09452246129512787,-0.10353612899780273,0.000396376708522439,-0.022114455699920654,0.01613980531692505,-0.019151031970977783
0.11414644867181778,-0.008488575927913189,0.10609143227338791,-0.020507454872131348,-0.0015243291854858398,-0.0016102641820907593
0.07716675847768784,0.09327889233827591,0.19322438538074493,-0.021654784679412842,3.3974647521972656e-06,0.029403939843177795
0.007656859699636698,0.17332373559474945,0.2139599323272705,-0.030410587787628174,0.006527125835418701,0.054083362221717834
-0.045030780136585236,0.1460852026939392,0.13634824752807617,-0.040100932121276855,0.02306467294692993,0.04993902146816254
-0.06321840733289719,0.08542781323194504,0.08442823588848114,-0.04403311014175415,0.03477036952972412,0.02501654624938965
-0.06744971871376038,0.04649700969457626,0.08931837975978851,-0.0417478084564209,0.023636579513549805,0.010052040219306946
-0.09111245721578598,0.03130193054676056,0.12838661670684814,-0.029271483421325684,0.02027595043182373,0.009654998779296875
-0.11413751542568207,-0.026372484862804413,0.1465989351272583,-0.022249281406402588,0.026774942874908447,0.003139793872833252
-0.13219520449638367,-0.15617340803146362,0.0416470505297184,-0.00642925500869751,0.04520910978317261,-0.004091426730155945
-0.13595286011695862,-0.3063695430755615,-0.07776135206222534,-0.025798022747039795,0.054168879985809326,-0.015014603734016418
-0.09707695990800858,-0.321410596370697,-0.12146212160587311,-0.031484007835388184,0.03593379259109497,-0.018657922744750977
-0.016038725152611732,-0.21287144720554352,-0.10432671755552292,-0.032843947410583496,0.005947411060333252,-0.014259561896324158
0.05827611684799194,-0.050361309200525284,-0.04532262310385704,-0.025728821754455566,-0.003961920738220215,-0.009871408343315125
0.06635866314172745,0.06265805661678314,-0.0035273428075015545,-0.014302492141723633,0.0022765398025512695,0.008215665817260742
-0.009462718851864338,0.07550634443759918,-0.006232477258890867,-0.018288612365722656,0.010022521018981934,0.023579120635986328
-0.11324796825647354,-0.027799274772405624,-0.08085344731807709,-0.018349051475524902,0.024219810962677002,0.024963200092315674
-0.14703500270843506,-0.13539600372314453,-0.13996897637844086,-0.02666860818862915,0.02225792407989502,-0.000680968165397644
-0.11574097722768784,-0.12403418123722076,-0.14006765186786652,-0.017828285694122314,0.009179115295410156,-0.020999431610107422
-0.049165185540914536,-0.04830076918005943,-0.09855856746435165,-0.010866641998291016,-0.011576175689697266,-0.028157159686088562
-0.007838981226086617,0.011310745030641556,-0.07855973392724991,-0.009728789329528809,-0.017383933067321777,-0.020255446434020996
-0.015676766633987427,0.015158580616116524,-0.08010099828243256,-0.004051327705383301,-0.014939427375793457,-0.0038014650344848633
-0.06307511031627655,-0.0440249964594841,-0.13200460374355316,0.0018323659896850586,-0.006865859031677246,0.0048888325691223145
-0.08301452547311783,-0.0741138756275177,-0.13690122961997986,0.0035578012466430664,-0.005685985088348389,-0.006935596466064453
-0.06058269366621971,-0.06030859798192978,-0.11816521733999252,0.015303075313568115,-0.017139017581939697,-0.017032012343406677
-0.04262314364314079,-0.05056452378630638,-0.09352479130029678,0.017803966999053955,-0.01777726411819458,-0.02028822898864746
-0.0365932397544384,-0.01831033080816269,-0.06439414620399475,0.017565608024597168,-0.028349697589874268,-0.013475939631462097
-0.03086966648697853,-0.002571667544543743,-0.04218805953860283,0.020361661911010742,-0.03426617383956909,-0.003855392336845398
-0.04874695464968681,-0.06242566183209419,-0.03760064020752907,0.029368579387664795,-0.024943292140960693,-0.0013182014226913452
-0.096535325050354,-0.09599189460277557,-0.00018085027113556862,0.028889119625091553,-0.040454328060150146,0.016547024250030518
-0.1838977187871933,-0.1706262230873108,0.025313977152109146,0.03142869472503662,-0.04335427284240723,0.030266284942626953
-0.24158614873886108,-0.21871311962604523,0.07347562164068222,0.035654425621032715,-0.03867626190185547,0.02513420581817627
-0.2628542184829712,-0.15702679753303528,0.09611134231090546,0.0295448899269104,-0.038410484790802,0.02243809401988983
-0.2713109850883484,-0.07674778997898102,0.1133434846997261,0.024304866790771484,-0.019201934337615967,0.03376397490501404
-0.27847838401794434,-0.037170588970184326,0.13264566659927368,0.02896350622177124,-0.02126789093017578,0.02906416356563568
-0.3142189681529999,-0.05879030004143715,0.1204368993639946,0.029321789741516113,-0.012443602085113525,0.030394211411476135
-0.3228069841861725,-0.08413790166378021,0.11616402864456177,0.023707985877990723,-0.01756066083908081,0.016957834362983704
-0.30261215567588806,-0.07386040687561035,0.12466472387313843,0.02002483606338501,-0.02302795648574829,-0.00023287534713745117
-0.2643629312515259,-0.06723614782094955,0.15507344901561737,0.015094339847564697,-0.030018210411071777,-0.013089284300804138
-0.24196599423885345,-0.08566728979349136,0.15028171241283417,0.006534934043884277,-0.025686979293823242,-0.019926533102989197
-0.17920538783073425,-0.10113875567913055,0.13275323808193207,-0.009766638278961182,-0.012349605560302734,-0.03151237964630127
-0.09430655837059021,-0.11566843837499619,0.061769332736730576,-0.015144824981689453,0.009126067161560059,-0.03383554518222809
0.00022705551236867905,-0.0549837090075016,-0.025185493752360344,-0.03352588415145874,0.018642902374267578,-0.033005401492118835
0.08656731992959976,0.01696198433637619,-0.06725949794054031,-0.02600318193435669,0.01274251937866211,-0.02234327793121338
0.12163662165403366,0.10433443635702133,-0.06815911084413528,-0.01668858528137207,-0.004829585552215576,-0.006941065192222595
0.10544432699680328,0.10746224969625473,-0.049844495952129364,0.0047997236251831055,-0.013198375701904297,0.00796864926815033
0.050132617354393005,0.06837500631809235,-0.022367190569639206,0.010550200939178467,-0.017237424850463867,0.012901127338409424
0.000490277074277401,0.004075514618307352,0.016004115343093872,0.02494335174560547,-0.019365787506103516,0.011931762099266052
-0.032029084861278534,-0.07692538946866989,0.04488103464245796,0.03328108787536621,-0.011968433856964111,0.008519336581230164
-0.12156862765550613,-0.11584066599607468,0.08135692775249481,0.03186643123626709,-0.016451001167297363,0.029242709279060364
-0.2261449098587036,-0.12221416085958481,0.11881852895021439,0.027255356311798096,-0.016052305698394775,0.04801000654697418
-0.2736973166465759,-0.11298065632581711,0.17646630108356476,0.028231501579284668,-0.01644277572631836,0.03633902966976166
-0.2677476704120636,-0.09701281785964966,0.1936153620481491,0.018286943435668945,-0.0012955069541931152,0.00460110604763031
-0.21883276104927063,-0.08290021121501923,0.17721331119537354,-0.0014724135398864746,0.021299660205841064,-0.01742224395275116
-0.12456841766834259,-0.05462568625807762,0.14983965456485748,-0.01346975564956665,0.03127199411392212,-0.04098445177078247
-0.010179880075156689,-0.011435331776738167,0.11239783465862274,-0.027665376663208008,0.03332090377807617,-0.04935777187347412
0.08249824494123459,0.029554324224591255,0.06908655911684036,-0.036821186542510986,0.0315433144569397,-0.042771995067596436
0.1303083598613739,0.08288121223449707,0.03669172152876854,-0.04164403676986694,0.025580167770385742,-0.02237670123577118
0.14327871799468994,0.11488107591867447,0.025182798504829407,-0.04365581274032593,0.01854562759399414,-0.0054207295179367065
0.11713112890720367,0.0559137724339962,-0.006554917432367802,-0.038553714752197266,0.015755772590637207,0.005001246929168701
0.05886293575167656,-0.015055467374622822,-0.03329402208328247,-0.04349112510681152,0.01459282636642456,0.01717214286327362
0.01767168939113617,-0.10963625460863113,-0.04965578392148018,-0.03297758102416992,0.007854580879211426,0.017619669437408447
-0.040333621203899384,-0.11704271286725998,-0.045905325561761856,-0.028453528881072998,0.0021932125091552734,0.025020018219947815
-0.09024636447429657,-0.06394100189208984,-0.02571052685379982,-0.023295581340789795,-0.0013402104377746582,0.029722586274147034
-0.10215995460748672,0.0015070842346176505,-0.043544020503759384,-0.022450923919677734,0.009199202060699463,0.02043551206588745
-0.06696648895740509,0.016261661425232887,-0.053947534412145615,-0.016399145126342773,0.014164328575134277,-0.009217262268066406
-0.029447749257087708,0.020471900701522827,-0.07890677452087402,-0.013460278511047363,0.013435959815979004,-0.02037052810192108
-0.0025888695381581783,0.005791122559458017,-0.10205594450235367,-0.009622037410736084,0.005556464195251465,-0.02081906795501709
0.009742576628923416,-0.019009333103895187,-0.12540827691555023,-0.003330826759338379,-0.0035451650619506836,-0.011740848422050476
0.03572423756122589,-0.03170404210686684,-0.13644878566265106,0.008962690830230713,-0.011120140552520752,-0.004020765423774719
0.058758825063705444,-0.04039333388209343,-0.11502229422330856,0.02090507745742798,-0.01974564790725708,0.000666499137878418
0.03232279419898987,-0.04166775941848755,-0.06760701537132263,0.0329473614692688,-0.024911940097808838,0.014045372605323792
-0.053684838116168976,-0.05026617273688316,-0.024092242121696472,0.027458548545837402,-0.02917766571044922,0.029597178101539612
-0.10931205004453659,-0.05547009035944939,0.007744345348328352,0.026668429374694824,-0.019974946975708008,0.02206684648990631
-0.10570982098579407,-0.06504116952419281,0.00789667945355177,0.0196073055267334,-0.0027309656143188477,-0.0016366243362426758
-0.05321420356631279,-0.04286468029022217,-0.02666737511754036,0.006447017192840576,-6.181001663208008e-05,-0.02245497703552246
0.04103947430849075,-0.04042360186576843,-0.07783251255750656,0.0042768120765686035,0.005869090557098389,-0.03301107883453369
0.1081538051366806,-0.03225338086485863,-0.08713819831609726,0.003871023654937744,-0.007039844989776611,-0.03052651882171631
0.10260486602783203,-0.0008102603023871779,-0.06913428753614426,0.009891331195831299,-0.026599764823913574,0.005402222275733948
0.04768597334623337,-0.003982906229794025,-0.03888622298836708,0.018490731716156006,-0.030048608779907227,0.021843552589416504
-0.003858830314129591,0.0011669734958559275,0.0060059064999222755,0.02187502384185791,-0.031518638134002686,0.0298922061920166
-0.037968818098306656,-0.004910231102257967,0.023058077320456505,0.0187990665435791,-0.02352827787399292,0.030911922454833984
-0.05607181042432785,-0.0033130645751953125,0.014900573529303074,0.010235965251922607,-0.020264029502868652,0.0184706449508667
-0.04277826473116875,0.024347126483917236,0.0211129542440176,0.007309436798095703,-0.01562565565109253,0.004920735955238342
-0.005521891638636589,0.03983625769615173,0.029083212837576866,0.012531936168670654,-0.011155903339385986,-0.013180851936340332
0.018370728939771652,0.0217711441218853,-0.0069556888192892075,0.0162389874458313,-0.0043808817863464355,-0.0168292373418808
0.05032835155725479,0.0037407204508781433,-0.01608126237988472,0.013670384883880615,-0.002568960189819336,-0.023331627249717712
0.07744887471199036,0.009678542613983154,-0.0004508288111537695,0.015759527683258057,-0.012021899223327637,-0.019046306610107422
0.07388413697481155,0.032702911645174026,0.008860476315021515,0.005541682243347168,-0.014794409275054932,-0.007093325257301331
0.0760025903582573,0.039323098957538605,0.018066661432385445,0.004051268100738525,-0.012675046920776367,-0.0007480382919311523
0.06232599541544914,0.04732724279165268,0.02050560712814331,0.00027430057525634766,-0.010794878005981445,0.005996868014335632
0.05162516608834267,0.05166950821876526,0.030332552269101143,-0.0033635497093200684,-0.008768856525421143,0.003992423415184021
0.05572987347841263,0.06702025234699249,0.03711894154548645,-0.003481566905975342,-0.010208427906036377,0.0008323043584823608
0.06257224082946777,0.07797694206237793,0.03217144310474396,-0.005674421787261963,-0.0042685866355896,-0.002196177840232849
0.05195995047688484,0.0440002866089344,0.05737116560339928,0.0022590160369873047,-0.00145798921585083,-0.003953173756599426
-0.012627379968762398,-0.018848104402422905,0.06051401048898697,0.003976941108703613,0.0008979439735412598,0.0023996829986572266
-0.08483180403709412,-0.05792013928294182,0.06463658809661865,-0.002792954444885254,0.010093331336975098,0.012041330337524414
-0.08059640228748322,-0.07559126615524292,0.07005994766950607,-0.006033897399902344,0.008121728897094727,-0.003911852836608887
-0.032541424036026,-0.08592496812343597,0.02508643828332424,-0.011484682559967041,0.020820021629333496,-0.020221665501594543
0.013530299067497253,-0.05595412477850914,0.006200196221470833,-0.024441659450531006,0.017187178134918213,-0.022464215755462646
0.041710760444402695,-0.011338848620653152,0.0027676960453391075,-0.02356243133544922,0.011974155902862549,-0.007162034511566162
0.051730263978242874,0.002667249646037817,-0.007863976992666721,-0.019039690494537354,0.011471271514892578,-0.004890874028205872
0.06709284335374832,0.004738005809485912,-0.012805331498384476,-0.014635145664215088,0.011941015720367432,-0.005306646227836609
0.05003799498081207,-0.0001962442183867097,-0.006036906503140926,-0.015294134616851807,0.005615174770355225,0.007736727595329285
0.01887056976556778,-0.012077318504452705,-0.00922207161784172,-0.014711141586303711,0.004712224006652832,0.01118844747543335
0.012120704166591167,-0.010232998058199883,-0.006358059123158455,-0.014209985733032227,0.0037513375282287598,0.006976902484893799
0.01301909051835537,-0.016206739470362663,-0.026097871363162994,-0.017978966236114502,0.010177433490753174,0.003514707088470459
0.042303666472435,-0.0037334030494093895,-0.03178451582789421,-0.015682101249694824,0.006615698337554932,-0.00486128032207489
0.054520875215530396,-0.008798064664006233,-0.04826357960700989,-0.007056832313537598,0.005870401859283447,-0.0046410709619522095
0.0258779339492321,-0.029119383543729782,-0.04859410226345062,-0.006725668907165527,0.00908726453781128,0.008610263466835022
-0.0016445775981992483,-0.030297845602035522,-0.03375925123691559,0.0010013580322265625,-0.0034580230712890625,0.01047264039516449
-0.024561794474720955,-0.022577423602342606,-0.01914493925869465,0.009672403335571289,-0.0031844377517700195,0.014888182282447815
-0.03117651864886284,-0.010059545747935772,-0.0035771364346146584,0.010272622108459473,-0.001987636089324951,0.013323560357093811
-0.015550382435321808,0.017953237518668175,0.013602646067738533,0.008714854717254639,-0.00422823429107666,0.0055593401193618774
0.0008502998389303684,-0.007037379313260317,-0.007951284758746624,0.00563502311706543,-0.0026030540466308594,0.002544984221458435
0.0033808075822889805,-0.03635334223508835,-0.022742021828889847,-0.0010715126991271973,0.002815723419189453,0.0005744844675064087
0.011989383026957512,-0.046131230890750885,-0.02041349560022354,-6.127357482910156e-05,-0.0037642717361450195,0.005901947617530823
0.0015208735130727291,-0.03468222916126251,-0.03275615721940994,-0.0033895373344421387,-0.0009362101554870605,0.020419135689735413
-0.010355016216635704,-0.0039986539632081985,-0.02299794927239418,-0.00018215179443359375,-0.0033928751945495605,0.024452567100524902
-0.03500387817621231,0.021768644452095032,-0.009411494247615337,0.006468653678894043,-0.006639719009399414,0.031694188714027405
-0.05367054045200348,0.041185162961483,0.008164040744304657,0.010376453399658203,-0.009891688823699951,0.027023717761039734
-0.0717194452881813,0.0086830984801054,-0.00432475795969367,0.018035948276519775,-0.00643235445022583,0.015146911144256592
-0.06902244687080383,-0.027511416003108025,-0.013874704018235207,0.011353015899658203,-0.0018933415412902832,0.002619996666908264
-0.03588128834962845,-0.030291996896266937,-0.0037021106109023094,0.013120532035827637,-0.0071999430656433105,-0.008974239230155945
-0.01541273482143879,-0.03721979260444641,0.0003281231038272381,0.0100250244140625,-0.007953524589538574,-0.005333468317985535
-0.012042716145515442,-0.0004875771119259298,0.00391927408054471,0.003950595855712891,-0.01168280839920044,0.0031493306159973145
-0.011139665730297565,0.019380519166588783,0.018990030512213707,0.006104946136474609,-0.015630722045898438,0.00961710512638092
-0.03806333616375923,0.007019708398729563,0.03053208254277706,0.003874659538269043,-0.013273298740386963,0.011547550559043884
-0.06788633018732071,0.0020109659526497126,0.04452461376786232,0.0014064908027648926,-0.017082571983337402,0.008502677083015442
-0.07714557647705078,-0.006952018477022648,0.03682734817266464,0.0017874836921691895,-0.01151728630065918,0.0020862072706222534
-0.06621525436639786,-0.01323539949953556,0.025107894092798233,-0.004584848880767822,0.00109940767288208,-0.013647451996803284
-0.03307264670729637,0.005498767830431461,0.022060004994273186,-0.0048531293869018555,-0.0007618069648742676,-0.02689380943775177
0.003982039634138346,0.01528102345764637,0.013659638352692127,-0.007459402084350586,0.0007634758949279785,-0.02771514654159546
0.03516269475221634,0.02820124477148056,0.0026457011699676514,-0.010062873363494873,-0.0007321834564208984,-0.025202974677085876
0.059246983379125595,0.036628108471632004,-0.00701057817786932,-0.0058934688568115234,-0.0029143691062927246,-0.02074967324733734
0.06146717444062233,0.020097151398658752,-0.010084348730742931,-0.0015996694564819336,-0.006089389324188232,-0.009466350078582764
0.036754757165908813,0.018349451944231987,0.013636945746839046,0.004241347312927246,-0.016022562980651855,0.004395961761474609
-0.02486058697104454,-0.029562758281826973,0.02217898517847061,0.005988061428070068,-0.015180647373199463,0.019423380494117737
-0.07126962393522263,-0.04853520914912224,0.019761819392442703,-0.0005519986152648926,-0.010960996150970459,0.013027384877204895
-0.051129650324583054,-0.0215982124209404,0.023936806246638298,-0.0024721622467041016,-0.0035790205001831055,-0.0015965551137924194
0.013862300664186478,0.02546767145395279,0.0022111721336841583,-0.004286050796508789,0.0038689374923706055,-0.018634125590324402
0.07575228065252304,0.06156700477004051,-0.006181356497108936,-0.003262042999267578,0.0051171183586120605,-0.02572399377822876
0.09731917083263397,0.05768642947077751,-0.020461808890104294,0.0005232691764831543,-0.004867732524871826,-0.014805540442466736
0.07434728741645813,0.032019857317209244,-0.014306523837149143,0.004163205623626709,-0.0066645145416259766,-0.0034481287002563477
0.03531358763575554,-0.0020419484935700893,0.027416272088885307,0.012414336204528809,-0.0143967866897583,0.004608765244483948
-0.01976090669631958,-0.024728121235966682,0.034986961632966995,0.010422289371490479,-0.013521015644073486,0.015198841691017151
-0.03160712495446205,-0.029475703835487366,0.04487702250480652,0.003961443901062012,-0.004279434680938721,0.006268680095672607
-0.013170004822313786,-0.0017191385850310326,0.04729105532169342,-0.001037895679473877,-0.0030524134635925293,-0.004644572734832764
0.015434915199875832,0.007906762883067131,0.017488811165094376,-0.01016908884048462,0.007667899131774902,-0.009613335132598877
0.05858031287789345,0.015619641169905663,-0.0009454798419028521,-0.011629164218902588,0.010042428970336914,-0.018612846732139587
0.06586341559886932,0.03685108944773674,-0.006577553227543831,-0.00868690013885498,0.003878295421600342,-0.0070683956146240234
0.06136085093021393,0.051421307027339935,-0.003350610379129648,-0.006692171096801758,-0.0009499192237854004,0.002840891480445862
0.04119989275932312,0.04879980906844139,0.00267951306886971,7.194280624389648e-05,-0.002990126609802246,0.0059228092432022095
0.03293410316109657,0.013662636280059814,-0.007743925787508488,-0.0018479228019714355,0.0019409656524658203,0.0018073469400405884
0.04095811769366264,0.003635585308074951,-0.0045006428845226765,-0.0023556947708129883,0.00445401668548584,-0.0077544450759887695
0.04705175757408142,0.014015620574355125,-0.003108499338850379,-0.00709611177444458,0.00371628999710083,-0.003974780440330505
0.04627252742648125,0.02206440269947052,-0.011767315678298473,-0.006763160228729248,0.003571927547454834,0.0018937736749649048
0.05569162219762802,0.022809704765677452,-0.01846349611878395,-0.0048675537109375,0.005047619342803955,0.0001289844512939453
0.05870979279279709,0.025937765836715698,-0.013152431696653366,-0.0007339715957641602,0.004654109477996826,-0.0012950748205184937
0.04588104411959648,0.025298012420535088,-0.0067017171531915665,0.003439188003540039,0.0035208463668823242,0.0036740154027938843
0.029153194278478622,0.023941397666931152,0.0003529968671500683,0.0014677643775939941,0.003697335720062256,0.006434455513954163
0.030799688771367073,0.032423876225948334,0.00043626059778034687,-0.0035586953163146973,0.00417327880859375,0.0023115426301956177
0.04972107335925102,0.032436855137348175,-0.018755029886960983,-0.011274218559265137,0.005707383155822754,-0.004851937294006348
0.07107985019683838,0.03006669506430626,-0.0320863202214241,-0.016134440898895264,0.005861341953277588,-0.004537269473075867
0.06022762134671211,0.021822631359100342,-0.029845211654901505,-0.013564705848693848,-0.0006277561187744141,0.004596427083015442
0.02648591250181198,0.028778985142707825,-0.02194475755095482,-0.00844508409500122,-0.004448354244232178,0.014752686023712158
-0.005489581264555454,0.028892943635582924,-0.01671016402542591,0.0009189248085021973,-0.0011897683143615723,0.016085445880889893
-0.003178962506353855,0.019264694303274155,-0.01171716395765543,0.008486926555633545,0.0027099251747131348,0.003771170973777771
0.004232443869113922,0.012578880414366722,-0.002895036246627569,0.008347630500793457,0.001186668872833252,-0.0074334293603897095
-0.002103776903823018,-0.000659045297652483,0.006703190505504608,0.006216824054718018,-0.0018326640129089355,-0.005021274089813232
-0.01780351623892784,-0.002290986478328705,0.007080468349158764,-0.00016951560974121094,-0.001570284366607666,0.0010249614715576172
-0.020511168986558914,-0.002533040475100279,-0.007629388943314552,-0.002905428409576416,0.0027397871017456055,0.0023591965436935425
-0.04449969157576561,-0.05227812007069588,-0.010718224570155144,-0.0012850165367126465,-0.004744589328765869,0.0031694024801254272
-0.12770260870456696,-0.14807826280593872,-0.0010945242829620838,0.007908761501312256,-0.012926161289215088,0.0120476633310318
-0.20338156819343567,-0.20708821713924408,0.012193187139928341,0.007475674152374268,-0.025431454181671143,0.01294960081577301
-0.19196033477783203,-0.19623754918575287,0.04870890453457832,-0.0018120408058166504,-0.032190680503845215,-0.00917196273803711
-0.08811147511005402,-0.14015363156795502,0.042983680963516235,-0.005365192890167236,-0.025303900241851807,-0.03832477331161499
0.03342380374670029,-0.0373113676905632,0.01724783331155777,-0.00841301679611206,-0.004747927188873291,-0.04286658763885498
0.1299334615468979,0.0672638863325119,-0.00930371880531311,-0.009250104427337646,0.0037924647331237793,-0.03472447395324707
0.1761988401412964,0.11609973013401031,-0.02550610899925232,-0.0017461180686950684,0.0008820295333862305,-0.01983100175857544
0.1479407101869583,0.1044420599937439,-0.006237434223294258,0.0075950026512146,-0.006511986255645752,-0.0019974559545516968
0.07866089046001434,0.05556333810091019,0.02038434147834778,0.018094956874847412,-0.009030163288116455,0.009745359420776367
-0.027757136151194572,-0.022606147453188896,0.05866202712059021,0.0162622332572937,-0.012066662311553955,0.020771503448486328
-0.09847017377614975,-0.08713676035404205,0.08868029713630676,0.007264137268066406,-0.01598489284515381,0.009628430008888245
-0.09069190919399261,-0.12172550708055496,0.09249094128608704,-0.004427015781402588,-0.0030282139778137207,-0.011234089732170105
-0.04052504524588585,-0.11547358334064484,0.0648500919342041,-0.020413339138031006,0.013849973678588867,-0.02446123957633972
0.011985350400209427,-0.08727100491523743,0.01519563514739275,-0.0330159068107605,0.023717880249023438,-0.020739808678627014
0.04213530570268631,-0.07283947616815567,-0.02645305171608925,-0.027332425117492676,0.026189446449279785,-0.002888604998588562
0.031152082607150078,-0.07195335626602173,-0.03279238939285278,-0.017147839069366455,0.01929229497909546,0.016996607184410095
0.007433169521391392,-0.04562374949455261,-0.024139245972037315,-0.006139934062957764,0.00949794054031372,0.03719450533390045
-0.01868198812007904,-0.015487208031117916,-0.007056334055960178,0.0014060139656066895,0.005388498306274414,0.046069979667663574
-0.05598783120512962,0.013230693526566029,0.018053678795695305,0.00525212287902832,0.0003985762596130371,0.04703867435455322
-0.07992285490036011,0.001540113240480423,0.014665458351373672,0.00681382417678833,0.007197141647338867,0.03595691919326782
-0.0751596987247467,-0.024180270731449127,-0.00843895971775055,0.0013223886489868164,0.017405152320861816,0.013825759291648865
-0.03564644232392311,-0.0036315349861979485,-0.026426540687680244,-0.010407447814941406,0.01910388469696045,-0.005889877676963806
0.029299473389983177,0.030075468122959137,-0.05594726279377937,-0.015586316585540771,0.02077573537826538,-0.017958179116249084
0.08637487143278122,0.07725980132818222,-0.10419850796461105,-0.01822185516357422,0.02069610357284546,-0.01669943332672119
0.12994292378425598,0.11867909133434296,-0.11535069346427917,-0.009650111198425293,0.009386181831359863,-0.013809308409690857
0.15491674840450287,0.13230696320533752,-0.10146547108888626,-0.000629425048828125,-0.003692448139190674,-0.011014461517333984
0.15092331171035767,0.12779909372329712,-0.09140914678573608,0.002656280994415283,-0.011514127254486084,-0.006547704339027405
0.1420898288488388,0.08453518152236938,-0.08457866311073303,0.000973045825958252,-0.014817953109741211,-0.0013439655303955078
0.12230582535266876,0.047039564698934555,-0.08117847144603729,0.00042694807052612305,-0.018407344818115234,0.0054100751876831055
0.0911746546626091,0.04990552365779877,-0.0508088581264019,-9.053945541381836e-05,-0.02252984046936035,0.018098071217536926
0.04336170852184296,0.09126528352499008,-0.030156821012496948,0.003687918186187744,-0.019269585609436035,0.02967400848865509
-0.004359347280114889,0.10483759641647339,-0.01285648811608553,0.009463191032409668,-0.00764995813369751,0.024654671549797058
-0.026124240830540657,0.06504441052675247,-0.0271505955606699,0.01603788137435913,0.005212724208831787,0.0018063634634017944
-0.03314363211393356,0.012403739616274834,-0.029383519664406776,0.015621662139892578,0.006726443767547607,-0.020137369632720947
-0.0012674019671976566,-0.016609767451882362,-0.027688808739185333,0.015111207962036133,0.0012088418006896973,-0.03562270104885101
0.04283446446061134,-0.015444554388523102,-0.028551355004310608,0.010744154453277588,-0.004000604152679443,-0.03553140163421631
0.0739758238196373,0.01470544096082449,-0.019152188673615456,0.007953941822052002,-0.010870158672332764,-0.022701308131217957
0.07611531019210815,0.015507487580180168,-0.004660998936742544,0.00689011812210083,-0.014475882053375244,-0.0050256699323654175
0.04014686495065689,-0.0072601791471242905,0.01604919508099556,0.0066915154457092285,-0.016005754470825195,0.01145923137664795
-0.01930696703493595,-0.01695365272462368,0.02867298200726509,0.00045603513717651367,-0.01439887285232544,0.028989553451538086
-0.08227156847715378,-0.016001012176275253,0.025831764563918114,-0.003571450710296631,-0.006478309631347656,0.03832584619522095
-0.10937943309545517,-0.0002533942461013794,0.015566929243505001,-0.0018636584281921387,0.0022783875465393066,0.028510913252830505
-0.10015091300010681,0.034549281001091,0.008814576081931591,0.009213089942932129,0.014266788959503174,0.010916724801063538
-0.0567324124276638,0.042472802102565765,-0.002801282098516822,0.0177496075630188,0.012492597103118896,-0.007120668888092041
-0.015950612723827362,0.03563164174556732,-0.003077562665566802,0.021812498569488525,0.00037109851837158203,-0.015966951847076416
-0.002649133326485753,0.02561126835644245,0.03776268661022186,0.025288045406341553,-0.011989176273345947,-0.010457217693328857
-0.007328517735004425,0.015089954249560833,0.08601904660463333,0.023815453052520752,-0.018861114978790283,0.00018630921840667725
-0.03939966484904289,-0.005976865533739328,0.10507895052433014,0.010846197605133057,-0.008026719093322754,0.012567281723022461
-0.07952789217233658,-0.011195093393325806,0.09907927364110947,-0.007204532623291016,0.0011902451515197754,0.021755993366241455
-0.0958872139453888,-0.006057093385607004,0.08087588846683502,-0.02426046133041382,0.009171485900878906,0.01730409264564514
-0.08762162178754807,0.005236482247710228,0.06162085011601448,-0.03385508060455322,0.011548876762390137,0.00626218318939209
-0.08026137202978134,0.02458941377699375,0.03333704546093941,-0.041622281074523926,0.013978838920593262,5.56260347366333e-05
-0.07102265954017639,0.03083363175392151,0.0063599091954529285,-0.043943166732788086,0.014871180057525635,-0.008109912276268005
-0.04840052127838135,0.03722343593835831,-0.02450581081211567,-0.0393221378326416,0.015213072299957275,-0.0192376971244812
-0.00923785287886858,0.031905822455883026,-0.05341660603880882,-0.03131604194641113,0.016253173351287842,-0.030899271368980408
0.029267016798257828,0.02941947430372238,-0.058207977563142776,-0.01925790309906006,0.011116504669189453,-0.035999834537506104
0.035142917186021805,0.019608817994594574,-0.052798692137002945,-0.011889398097991943,0.003514587879180908,-0.03072333335876465
0.009640444070100784,0.013852541334927082,-0.04243629425764084,-0.006639599800109863,-0.0024840831756591797,-0.015703439712524414
-0.011284615844488144,-0.006489488296210766,-0.03261618688702583,-0.0029873251914978027,-0.0028972625732421875,-0.011096715927124023
-0.0030000698752701283,-0.034718435257673264,-0.05186087638139725,-0.002638578414916992,0.0011684894561767578,-0.018381252884864807
0.026499249041080475,-0.04338305816054344,-0.05505891144275665,-0.006630897521972656,-0.0003516674041748047,-0.023572802543640137
0.049139201641082764,-0.016813304275274277,-0.043994031846523285,-0.005278229713439941,-0.010100066661834717,-0.013608157634735107
0.05337446928024292,0.008425004780292511,-0.03246442228555679,-0.0033699870109558105,-0.011606991291046143,-0.0027229785919189453
0.04222985729575157,0.02145971730351448,-0.03358691558241844,-0.005768716335296631,-0.009734928607940674,0.0026805251836776733
0.04768594354391098,0.017706474289298058,-0.036963216960430145,-0.002584993839263916,-0.00866001844406128,-0.0003753155469894409
0.04253454506397247,0.009997566230595112,-0.024303574115037918,0.0017156600952148438,-0.0077016353607177734,-0.00319826602935791
0.02699732780456543,-0.01049839612096548,-0.01728564128279686,0.006296336650848389,-0.009979963302612305,-0.002681717276573181
-0.002295159036293626,-0.05119156837463379,-0.02895963005721569,0.007380485534667969,-0.005791008472442627,0.0042569637298583984
-0.010121149942278862,-0.070594921708107,-0.02510426752269268,0.007992088794708252,-0.006926238536834717,0.0019567161798477173
0.008861931040883064,-0.04459666088223457,-0.012686156667768955,0.011032819747924805,-0.010523319244384766,-0.002075672149658203
0.03315009921789169,-0.011098664253950119,-0.0017165050376206636,0.00931781530380249,-0.012563645839691162,0.0010166317224502563
0.02462063916027546,-0.012767063453793526,-0.003317577764391899,0.006797909736633301,-0.013308525085449219,0.00905705988407135
0.007886148989200592,-0.022517455741763115,-0.0012191177811473608,0.005726277828216553,-0.012396454811096191,0.013027608394622803
-0.0037819179706275463,-0.04144927114248276,0.009150421246886253,0.008058607578277588,-0.010961413383483887,0.011527061462402344
-0.01636248081922531,-0.0463215634226799,0.014581261202692986,0.006349384784698486,-0.009102106094360352,0.010118603706359863
-0.009329982101917267,-0.03999023512005806,0.004294249229133129,0.006084561347961426,-0.004114925861358643,0.009466230869293213
0.009149707853794098,-0.021008582785725594,0.0045042624697089195,0.007270634174346924,-0.0037789344787597656,0.006324112415313721
0.02182283252477646,-0.0013420307077467442,0.01433147769421339,0.009278416633605957,-0.006902813911437988,0.005648121237754822
0.013269800692796707,0.011903108097612858,0.024253517389297485,0.011214137077331543,-0.0062749385833740234,0.01229153573513031
-0.0030934603419154882,-0.0015919283032417297,0.028659718111157417,0.010108590126037598,-0.0032703280448913574,0.012159988284111023
-0.010067718103528023,-0.016222652047872543,0.027014754712581635,0.009402215480804443,-0.0022142529487609863,0.009074762463569641
-0.010541187599301338,-0.017388250678777695,0.03331444784998894,0.0059822797775268555,0.0011107325553894043,0.005361631512641907
-0.013071399182081223,-0.026355555281043053,0.03463336452841759,0.0039389729499816895,0.0010722875595092773,0.007547810673713684
-0.0257157813757658,-0.02430884912610054,0.03428234905004501,-0.005191385746002197,0.0030446648597717285,0.011196732521057129
-0.03566430136561394,-0.030234355479478836,0.02550947293639183,-0.007635295391082764,0.0042732954025268555,0.012344226241111755
-0.028212888166308403,-0.007989308796823025,0.016092248260974884,-0.012675285339355469,0.004554569721221924,0.009558424353599548
-0.007411270868033171,0.00406287657096982,0.001450662617571652,-0.010077714920043945,0.0038521289825439453,0.006271958351135254
-0.0008326470851898193,-0.004027885384857655,-0.01603224314749241,-0.00958949327468872,0.009427189826965332,-0.0006750226020812988
-0.0033934719394892454,-0.003327468177303672,-0.007805437780916691,-0.0036925077438354492,0.00304490327835083,-0.0007582902908325195
-0.019253071397542953,-0.01883794739842415,-0.007789050228893757,0.0010228157043457031,0.0027827024459838867,0.004125460982322693
-0.02539973519742489,-0.04556461051106453,-0.01002576295286417,-0.0028896331787109375,0.010084450244903564,-0.006939053535461426
-0.00010878732427954674,-0.03343459591269493,-0.004694451577961445,-0.00323486328125,0.010604560375213623,-0.010476961731910706
0.022562114521861076,0.0026778317987918854,0.003952423110604286,-0.005778253078460693,0.004637181758880615,-0.003607615828514099
0.010111306793987751,0.02625511772930622,0.013234847225248814,-0.009525001049041748,0.00010198354721069336,0.00873708724975586
-0.016966186463832855,0.036394085735082626,0.011417185887694359,-0.012335658073425293,-0.0019527077674865723,0.017630502581596375
-0.028959888964891434,0.026254652068018913,0.0016359662404283881,-0.011809945106506348,0.003401815891265869,0.011163964867591858
-0.02465842105448246,0.007450653240084648,-0.009191703051328659,-0.009596824645996094,0.005723059177398682,0.0032255053520202637
-0.02296348661184311,0.0076361121609807014,-0.02115982212126255,-0.009305477142333984,0.0039045214653015137,-0.002172723412513733
-0.00858303438872099,0.014310871250927448,-0.021976562216877937,-0.0035724639892578125,0.003025650978088379,-0.006271719932556152
0.009911892004311085,0.021510200574994087,-0.024646613746881485,0.002300083637237549,0.00025647878646850586,-0.010069191455841064
0.012672945857048035,0.025186356157064438,-0.016810812056064606,0.006359398365020752,-0.003159821033477783,-0.006650999188423157
0.001126621849834919,0.01307250652462244,-0.00735499057918787,0.011136114597320557,-0.00723111629486084,9.85562801361084e-05
-0.007741852663457394,-0.003952627070248127,9.356834925711155e-05,0.009716272354125977,-0.00949770212173462,0.000730171799659729
-0.00847440492361784,-0.01024628710001707,-0.0003200732171535492,0.006513655185699463,-0.0063506364822387695,1.5333294868469238e-05
-0.008023321628570557,0.006159813143312931,0.0069611333310604095,0.0021137595176696777,-0.006621122360229492,0.0015602856874465942
0.0008390899747610092,0.016931995749473572,-0.003420809982344508,-0.0004073977470397949,-0.005113005638122559,0.003198400139808655
0.012853870168328285,0.026583021506667137,-0.013972022570669651,-0.0035828351974487305,-0.0018025040626525879,0.00015503168106079102
0.020828746259212494,0.019739028066396713,-0.019301818683743477,-0.0017579197883605957,-0.006687462329864502,-0.00043414533138275146
0.016142690554261208,0.010533401742577553,-0.0307364072650671,-0.0002047419548034668,-0.006474494934082031,0.0009821802377700806
0.017206525430083275,0.015008152462542057,-0.01353808306157589,0.0046776533126831055,-0.010609984397888184,0.0015421360731124878
0.013210145756602287,0.035197775810956955,-0.0026478709187358618,0.00876230001449585,-0.013457179069519043,0.006913185119628906
0.006546019110828638,0.0398927740752697,0.01571398787200451,0.010025858879089355,-0.012139558792114258,0.005025014281272888
-0.011597314849495888,0.04291389137506485,0.03459138050675392,0.0103873610496521,-0.01107943058013916,0.005279377102851868
-0.025253230705857277,0.022361116483807564,0.020672807469964027,0.007829904556274414,-0.006626009941101074,0.0021668672561645508
-0.007287911139428616,0.005961480550467968,0.02265995368361473,0.0025548338890075684,-0.0030515193939208984,-0.01277238130569458
0.023674841970205307,0.00889454036951065,0.01563369855284691,-0.0024833083152770996,-0.007219195365905762,-0.017344608902931213
0.04398535192012787,0.01484806090593338,0.008043499663472176,-0.01166379451751709,-0.005016803741455078,-0.014738067984580994
0.04748884215950966,0.038514986634254456,0.00647125206887722,-0.011918723583221436,-0.006883561611175537,-0.004922986030578613
0.04332372918725014,0.06128576397895813,0.004268872085958719,-0.00964730978012085,-0.0026686787605285645,0.00207306444644928
0.03580590337514877,0.06684502959251404,-0.002729734405875206,0.0012913346290588379,0.0005560517311096191,0.0046979933977127075
0.019328564405441284,0.04949602857232094,0.004311801865696907,0.00822293758392334,-0.001015007495880127,-4.172325134277344e-05
-0.0005037873052060604,0.03179183229804039,0.029219672083854675,0.017589569091796875,-0.006277024745941162,-0.002863749861717224
2.6967376470565796e-05,-0.0019881539046764374,0.05312003567814827,0.01836150884628296,-0.004716813564300537,-0.014369547367095947
0.012405168265104294,-0.03240007534623146,0.06587778776884079,0.01170039176940918,-0.0023690462112426758,-0.016311630606651306
0.0002029729075729847,-0.031545717269182205,0.06544961780309677,-0.0010568499565124512,-0.0019207596778869629,0.0011202245950698853
-0.02211754024028778,-0.01360202208161354,0.07271864265203476,-0.01370769739151001,-0.0010594725608825684,0.015686631202697754
-0.03791982680559158,0.007084952667355537,0.051265839487314224,-0.022053182125091553,0.0048912763595581055,0.02268660068511963
-0.038468871265649796,0.009729363024234772,0.018364984542131424,-0.030501723289489746,0.014896512031555176,0.010085418820381165
-0.016917407512664795,0.013546680100262165,-0.004708021879196167,-0.028522729873657227,0.015186488628387451,-0.002946034073829651
0.011455263942480087,0.024521974846720695,-0.014282086864113808,-0.020992577075958252,0.013615846633911133,-0.014177098870277405
0.026537753641605377,0.0248625036329031,-0.01935446448624134,-0.010441720485687256,0.0104445219039917,-0.014993444085121155
0.027959054335951805,0.014393998309969902,-0.007651808671653271,-0.0022090673446655273,0.007735550403594971,-0.012599825859069824
0.009273281320929527,0.009011422283947468,0.009456388652324677,0.005368351936340332,0.0017855167388916016,-0.0036925077438354492
-0.013987330719828606,-0.009865800850093365,0.024722643196582794,0.007878303527832031,-0.001247406005859375,0.0019862502813339233
-0.025825388729572296,-0.029848897829651833,0.02184324897825718,8.690357208251953e-05,0.0024355649948120117,0.0009404569864273071
-0.019013220444321632,-0.040456850081682205,0.012119038961827755,-0.005596756935119629,0.005911707878112793,-0.0020958781242370605
-0.007862311787903309,-0.029106104746460915,0.004713139962404966,-0.014484882354736328,0.007332205772399902,0.0011826157569885254
-0.007225577719509602,-0.01644718647003174,-0.013735447078943253,-0.015491366386413574,0.00735098123550415,0.008173689246177673
-0.010111995041370392,-0.0019147703424096107,-0.02532041072845459,-0.011903762817382812,0.002776801586151123,0.01028352975845337
-0.02256239950656891,0.007943728938698769,-0.01648370362818241,-0.00636523962020874,-1.6033649444580078e-05,0.01259469985961914
-0.027805602177977562,0.0038521992973983288,-0.010661164298653603,6.854534149169922e-05,-0.006096601486206055,0.0052893757820129395
-0.031540222465991974,-0.012562463991343975,-0.005954063031822443,0.0030324459075927734,-0.0054787397384643555,0.0022268146276474
-0.03195424750447273,-0.012818556278944016,0.0018611082341521978,0.0041005611419677734,-0.005331456661224365,-0.0010400563478469849
-0.027081530541181564,0.004291235934942961,0.0018472052179276943,0.0014258623123168945,-0.005282402038574219,-0.0030449628829956055
-0.010190979577600956,0.021261729300022125,-0.010526798665523529,0.002865135669708252,0.00408703088760376,-0.00981198251247406
0.016959793865680695,0.02453322894871235,-0.03862898796796799,0.010279536247253418,0.020447254180908203,-0.020531296730041504
0.07163355499505997,0.031521402299404144,-0.09247685968875885,0.013267099857330322,0.040792107582092285,-0.03176373243331909
0.16834205389022827,0.037172719836235046,-0.1687086671590805,0.006025433540344238,0.039724111557006836,-0.03400546312332153
0.2872421145439148,0.06340436637401581,-0.22626449167728424,-0.0031754374504089355,0.008066117763519287,-0.018327295780181885
0.3068952262401581,0.13245782256126404,-0.21102073788642883,-0.005993545055389404,-0.04159265756607056,0.04252155125141144
0.24512669444084167,0.19111649692058563,-0.15481171011924744,0.01706939935684204,-0.0726812481880188,0.0769200325012207
0.10406967252492905,0.2452085316181183,-0.04546993598341942,0.04246819019317627,-0.08255445957183838,0.10461711883544922
-0.029543302953243256,0.21722377836704254,0.04196840152144432,0.060793936252593994,-0.06519573926925659,0.09983527660369873
-0.14127802848815918,0.13044440746307373,0.10882455855607986,0.06842494010925293,-0.043772995471954346,0.06672143936157227
-0.276601105928421,0.04234629124403,0.190231055021286,0.06549566984176636,-0.03704637289047241,0.041498079895973206
-0.3441247045993805,-0.032566700130701065,0.24809294939041138,0.039383769035339355,-0.030705928802490234,0.0029796361923217773
-0.2814505696296692,-0.0996895283460617,0.25224170088768005,0.012241899967193604,-0.0087851881980896,-0.049405455589294434
-0.15597057342529297,-0.13190355896949768,0.1970938742160797,-0.01999729871749878,0.009233295917510986,-0.08074736595153809
-0.0381590910255909,-0.09891878068447113,0.13656127452850342,-0.04941070079803467,0.012827455997467041,-0.07675302028656006
0.04350294545292854,-0.022845806553959846,0.09333358705043793,-0.060693442821502686,0.008296430110931396,-0.052487924695014954
0.07739409059286118,0.043616194278001785,0.05756261199712753,-0.05987793207168579,0.006556570529937744,-0.028931215405464172
0.06311924755573273,0.05460885539650917,0.02492372691631317,-0.05752915143966675,0.0086134672164917,-0.013981223106384277
0.03238369897007942,0.02480962686240673,0.0011537016835063696,-0.04794597625732422,0.01118624210357666,-0.012108445167541504
0.010952809825539589,-0.006687687709927559,0.001757811987772584,-0.030582904815673828,0.011130034923553467,-0.020200714468955994
0.022926900535821915,-0.05612444877624512,-0.011353620328009129,-0.014654159545898438,0.016376852989196777,-0.033711180090904236
0.0558839812874794,-0.10489167273044586,-0.01173823606222868,-0.006902158260345459,0.019238412380218506,-0.0427321195602417
0.038995642215013504,-0.19259080290794373,0.010097946971654892,0.011585712432861328,0.017897307872772217,-0.020353838801383972
-0.11422806978225708,-0.2751239836215973,0.03480057418346405,0.014160752296447754,0.008469045162200928,0.03868234157562256
-0.2688221335411072,-0.29755762219429016,0.0635407492518425,0.00487595796585083,-0.004146099090576172,0.07031923532485962
-0.2615361511707306,-0.23925833404064178,0.07542194426059723,-0.006665170192718506,-0.0041844844818115234,0.03730858862400055
-0.1378321498632431,-0.1488170474767685,0.041672561317682266,-0.01721775531768799,0.0060936808586120605,-0.003973722457885742
0.00021191546693444252,-0.06723294407129288,-0.024474162608385086,-0.03303617238998413,0.014656901359558105,-0.024740219116210938
0.10554967820644379,-0.01828731596469879,-0.07993664592504501,-0.03343009948730469,0.01283794641494751,-0.02712312340736389
0.16725242137908936,-0.008529613725841045,-0.09925517439842224,-0.01779419183731079,0.007088720798492432,-0.015865683555603027
0.14903408288955688,-0.013196882791817188,-0.09919025003910065,0.000310361385345459,0.0025835037231445312,0.01201331615447998
0.0987444519996643,0.012262566946446896,-0.09787876904010773,0.005352973937988281,-0.0005331039428710938,0.04014742374420166
0.10189765691757202,0.04538019374012947,-0.09664591401815414,0.01227259635925293,-0.0012955069541931152,0.03431929647922516
0.14307798445224762,0.05712016299366951,-0.10928599536418915,0.014513671398162842,0.0021147727966308594,0.01547326147556305
0.15927770733833313,0.04742477089166641,-0.10937527567148209,0.019206881523132324,-0.0008549094200134277,0.01427556574344635
0.1233268529176712,0.007725976407527924,-0.09427565336227417,0.024566173553466797,-0.00828617811203003,0.028332456946372986
0.058714237064123154,-0.019707996398210526,-0.05927298218011856,0.02824455499649048,-0.016953766345977783,0.04449582099914551
0.007037051487714052,-0.02017107978463173,-0.031827595084905624,0.026816070079803467,-0.021215498447418213,0.04907311499118805
-0.015837106853723526,-0.009036722593009472,-0.02188040316104889,0.02156621217727661,-0.015634894371032715,0.041935086250305176
-0.02610587514936924,-0.007202743086963892,-0.01518735010176897,0.014420509338378906,-0.013936042785644531,0.03393815457820892
-0.03670944646000862,-0.00400348287075758,-0.018411338329315186,0.00930720567703247,-0.010988295078277588,0.0238838791847229
-0.028180886059999466,-0.00735508743673563,-0.01216499600559473,0.008244752883911133,-0.010503530502319336,0.009161099791526794
-0.013019734062254429,-0.006040430162101984,-0.019414156675338745,0.004751324653625488,-0.009846746921539307,0.0015814155340194702
-0.002922497224062681,0.006940175779163837,-0.03199157491326332,0.0008059144020080566,-0.00580209493637085,-0.002214685082435608
0.027745231986045837,0.016716480255126953,-0.04329710453748703,0.003232419490814209,-0.005871593952178955,-0.007800757884979248
0.04704803600907326,0.02448967844247818,-0.03943512961268425,0.007330060005187988,-0.009855151176452637,-0.006712913513183594
0.026124851778149605,0.02476101741194725,-0.013718721456825733,0.012251079082489014,-0.02042222023010254,0.005183413624763489
-0.007472496014088392,0.024548329412937164,0.013639222830533981,0.01071244478225708,-0.024408996105194092,0.010589346289634705
-0.022761058062314987,0.01493577565997839,0.026817606762051582,0.007164895534515381,-0.01954704523086548,0.006389439105987549
-0.03079303912818432,0.010821264237165451,0.03490111604332924,0.0023636817932128906,-0.010440587997436523,0.00021921098232269287
-0.05526207759976387,-0.0064712511375546455,0.0382036529481411,0.001456141471862793,-0.0023007988929748535,-0.0033624619245529175
-0.06917110085487366,-0.02215433120727539,0.03223850950598717,-0.0014939308166503906,0.005346059799194336,-0.011362984776496887
-0.06598257273435593,-0.03760671243071556,0.03245214372873306,0.0024824142456054688,0.009323716163635254,-0.01732790470123291
-0.06379646062850952,-0.04891929030418396,0.03344014286994934,0.005433559417724609,0.008854210376739502,-0.018038079142570496
-0.0980381891131401,-0.06925439834594727,0.04944247379899025,0.00947350263595581,0.004133105278015137,-0.007001042366027832
-0.13446545600891113,-0.10736042261123657,0.08557926118373871,0.014370262622833252,-0.0030454397201538086,-0.003887459635734558
-0.17423135042190552,-0.1722961813211441,0.12428367882966995,0.013607144355773926,-0.0061258673667907715,-0.0008895397186279297
-0.2610331177711487,-0.24688489735126495,0.1470165252685547,0.0065346360206604,-0.0004138946533203125,0.017736315727233887
-0.3521179258823395,-0.2913431227207184,0.1595737338066101,-0.006548404693603516,-0.00029593706130981445,0.032715797424316406
-0.37455183267593384,-0.25981223583221436,0.15684209764003754,-0.024273395538330078,0.0008765459060668945,0.024319157004356384
-0.29560190439224243,-0.197130486369133,0.11349115520715714,-0.03913557529449463,0.010231435298919678,-0.00554734468460083
-0.1765884906053543,-0.12101045995950699,0.0414663627743721,-0.05021870136260986,0.021305203437805176,-0.0304366797208786
-0.05384835973381996,-0.049152012914419174,-0.026517555117607117,-0.05165737867355347,0.025712788105010986,-0.03940403461456299
0.027556931599974632,-0.01998099684715271,-0.06370721757411957,-0.0305328369140625,0.019538819789886475,-0.032965242862701416
0.019614234566688538,-0.011740884743630886,-0.07199782878160477,-0.008457362651824951,0.00910341739654541,-0.005252227187156677
-0.024221114814281464,-0.013494607992470264,-0.062083519995212555,0.005639076232910156,-0.0015102028846740723,0.018176332116127014
-0.03259013965725899,-0.005717764142900705,-0.04449836537241936,0.018460631370544434,-0.007186472415924072,0.018900737166404724
-0.025492411106824875,0.009521067142486572,-0.018795842304825783,0.02797156572341919,-0.010279476642608643,0.013012051582336426
-0.012325208634138107,0.055871523916721344,-0.008940283209085464,0.026558399200439453,-0.009521186351776123,0.012271523475646973
0.02507380023598671,0.07518573105335236,0.00016843830235302448,0.026306986808776855,-0.011403858661651611,0.0009142011404037476
0.01701134815812111,0.047482945024967194,0.01811816170811653,0.02294003963470459,-0.01054692268371582,0.0015920549631118774
-0.05641322582960129,-0.025327805429697037,0.01918104663491249,0.013918936252593994,-0.018698394298553467,0.017647147178649902
-0.1324826180934906,-0.08124858886003494,0.03226066380739212,0.008446753025054932,-0.020197570323944092,0.027640804648399353
-0.15604513883590698,-0.07548462599515915,0.04686636105179787,0.004873454570770264,-0.021261870861053467,0.016604900360107422
-0.10770126432180405,-0.03164128214120865,0.025257902219891548,-0.004542827606201172,-0.009829461574554443,-0.003934592008590698
-0.039943017065525055,0.0061389678157866,-0.013683976605534554,-0.009062767028808594,0.003801107406616211,-0.015065550804138184
-0.00019052810966968536,0.03515167906880379,-0.038326580077409744,-0.0066825151443481445,-0.003129303455352783,-0.01222914457321167
-0.006864409893751144,0.04462986811995506,-0.02680414542555809,0.006816208362579346,-0.014186382293701172,-0.0021499842405319214
-0.0236294437199831,0.027942925691604614,-0.002104819053784013,0.02074885368347168,-0.018568217754364014,-0.000746116042137146
-0.025109052658081055,-0.000508621335029602,0.01979939639568329,0.025770246982574463,-0.019282400608062744,-0.006379052996635437
-0.029529564082622528,-0.0183456689119339,0.03921467438340187,0.023176848888397217,-0.019870400428771973,-2.0384788513183594e-05
-0.049333713948726654,-0.019719569012522697,0.0431668795645237,0.01582568883895874,-0.01803523302078247,0.009455323219299316
-0.040064580738544464,-0.021642638370394707,0.044176749885082245,0.004231274127960205,-0.015095710754394531,0.005100712180137634
-0.012962069362401962,-0.0024100514128804207,0.037500347942113876,-0.0041168928146362305,-0.01077204942703247,-0.006559193134307861
0.020025793462991714,0.027263661846518517,0.03095795214176178,-0.010299503803253174,-0.00729215145111084,-0.011422738432884216
0.017916610464453697,0.03629743680357933,0.029748061671853065,-0.009035289287567139,-0.005690872669219971,-0.007901787757873535
-0.018284859135746956,0.018492573872208595,0.01871124655008316,-0.009360730648040771,-0.002890646457672119,0.0005523562431335449
-0.0338890478014946,0.008918514475226402,0.010563607327640057,-0.0049250125885009766,-0.0017322301864624023,-0.0017653852701187134
-0.0018589301034808159,0.007868345826864243,0.014932435005903244,0.0025442838668823242,-0.00042885541915893555,-0.019566401839256287
0.0350039005279541,0.014058043248951435,0.015947064384818077,0.003010094165802002,0.0001633763313293457,-0.028703749179840088
0.0619567334651947,0.013367287814617157,0.014520656317472458,-0.0005647540092468262,5.65648078918457e-05,-0.024514615535736084
0.07276596128940582,0.014828596264123917,0.02635505236685276,0.0005462765693664551,-0.0016772150993347168,-0.01339733600616455
0.047815218567848206,0.013794202357530594,0.03307151049375534,-0.002738654613494873,-0.002409696578979492,0.0038139671087265015
0.008872432634234428,0.0035340297035872936,0.0329287089407444,-0.005171656608581543,0.0013859272003173828,0.015417531132698059
-0.006073339842259884,0.0053808074444532394,0.03233349323272705,-0.01109236478805542,0.0044092535972595215,0.015308305621147156
0.0008266866207122803,0.007333024870604277,0.02586836740374565,-0.01204979419708252,0.005663692951202393,0.006477832794189453
0.012753751128911972,0.008124139159917831,0.010727605782449245,-0.014735519886016846,0.009185552597045898,-0.0020488351583480835
0.03312148153781891,0.011123617179691792,0.006902329158037901,-0.012697219848632812,0.008030116558074951,-0.0036567896604537964
0.04260794073343277,0.01117871142923832,0.00638104323297739,-0.012123703956604004,0.006168007850646973,-0.0045310258865356445
0.037914540618658066,0.019878603518009186,0.0063341702334582806,-0.010013222694396973,0.006195664405822754,0.004071474075317383
0.03265979886054993,0.01566038466989994,-0.00013931747525930405,-0.007794499397277832,0.008628010749816895,0.005121544003486633
0.028408318758010864,0.01204682420939207,-0.0032719040755182505,-0.004293978214263916,0.009451866149902344,0.005043879151344299
0.03419637680053711,0.01895124837756157,-0.009530456736683846,-0.004127800464630127,0.00909489393234253,0.004996776580810547
0.04693019390106201,0.029055891558527946,-0.016014935448765755,-0.0019240975379943848,0.010386347770690918,0.004556417465209961
0.04813673347234726,0.03743188828229904,-0.015748988837003708,-0.0004914402961730957,0.00904381275177002,0.008506283164024353
0.045343413949012756,0.03793678060173988,-0.013282053172588348,0.0025429725646972656,0.0044942498207092285,0.011108115315437317
0.036190733313560486,0.03559133782982826,-0.010741625912487507,0.005534827709197998,0.0016614794731140137,0.016973987221717834
0.012139653787016869,0.04513557255268097,-0.004709336906671524,0.004761755466461182,-0.0010374188423156738,0.022193893790245056
0.006307626608759165,0.0659339427947998,0.003509249072521925,0.0014681220054626465,-0.002499818801879883,0.01932986080646515
0.027745118364691734,0.08621825277805328,0.006798003800213337,0.0010455846786499023,-0.002611398696899414,0.008633136749267578
0.046647898852825165,0.10633102804422379,0.007100488059222698,-0.0032860636711120605,-0.006955862045288086,0.004800319671630859
0.04337339103221893,0.11650516837835312,0.024003321304917336,0.003058016300201416,-0.009084761142730713,0.005852878093719482
-0.0039387596771121025,0.09010563790798187,0.03324708342552185,0.009587228298187256,-0.0003617405891418457,0.009500741958618164
-0.038066692650318146,0.04431441053748131,0.02139747329056263,0.013688325881958008,0.011535823345184326,0.004373371601104736
-0.007568676024675369,-0.003949159290641546,0.010387519374489784,0.018459856510162354,0.015628397464752197,-0.01351022720336914
-0.01102829072624445,0.028549551963806152,0.027445705607533455,0.011889398097991943,0.004805803298950195,0.00021189451217651367
-0.05345086380839348,0.06313210725784302,0.04431052505970001,-0.0005728602409362793,-0.004215896129608154,0.02061694860458374
-0.07785821706056595,0.07719603180885315,0.043148696422576904,-0.009351611137390137,0.004393458366394043,0.016937270760536194
-0.08179926127195358,0.04599987342953682,0.017329510301351547,-0.01693880558013916,0.01553654670715332,-0.0008141249418258667
-0.07279037684202194,0.0232324730604887,-0.016924742609262466,-0.024353504180908203,0.019625961780548096,-0.013829335570335388
-0.06037740781903267,0.018805615603923798,-0.039543572813272476,-0.02637660503387451,0.014591991901397705,-0.016943320631980896
-0.045890457928180695,0.027103999629616737,-0.04871286824345589,-0.026067912578582764,0.007643997669219971,-0.020878806710243225
-0.031679730862379074,0.010756559669971466,-0.060138240456581116,-0.021773815155029297,0.00047910213470458984,-0.02399541437625885
-0.036564867943525314,-0.005550350062549114,-0.040325772017240524,-0.01565486192703247,-0.00758737325668335,-0.023749589920043945
-0.06231379508972168,-0.02522650919854641,-0.010002207942306995,-0.01104724407196045,-0.009774088859558105,-0.01896822452545166
-0.09013023972511292,-0.05339481309056282,-0.0015788800083100796,-0.008625447750091553,0.0010069608688354492,-0.019369840621948242
-0.09259341657161713,-0.06757606565952301,-0.025159750133752823,-0.011236011981964111,0.016549766063690186,-0.026456579566001892
-0.033358167856931686,-0.06640493124723434,-0.07446391135454178,-0.021023035049438477,0.02941197156906128,-0.03943103551864624
0.056553978472948074,-0.027451997622847557,-0.1330759972333908,-0.02262246608734131,0.031266093254089355,-0.04324565827846527
0.13483282923698425,0.02059081383049488,-0.17421288788318634,-0.019937634468078613,0.019404292106628418,-0.02992023527622223
0.1601744145154953,0.06613336503505707,-0.17059648036956787,-0.002040088176727295,-0.0027417540550231934,-0.0018288642168045044
0.11500534415245056,0.07898236811161041,-0.14325623214244843,0.010469615459442139,-0.023222148418426514,0.031100496649742126
0.042988017201423645,0.07188824564218521,-0.10624673962593079,0.02135711908340454,-0.035768330097198486,0.04983086884021759
-0.02193494327366352,0.04332245886325836,-0.0654233917593956,0.02831798791885376,-0.041065335273742676,0.04924614727497101
-0.07509058713912964,0.04117971286177635,-0.023742150515317917,0.027157068252563477,-0.0386849045753479,0.03991973400115967
-0.10204648971557617,0.041007328778505325,-0.005909411236643791,0.023325443267822266,-0.02825617790222168,0.0217217355966568
-0.0886913388967514,0.025108832865953445,-0.002319786697626114,0.01565873622894287,-0.016529083251953125,-0.004157885909080505
-0.0669679343700409,0.017359301447868347,0.018384426832199097,0.012489736080169678,-0.015633344650268555,-0.02070985734462738
-0.07482009381055832,0.020557116717100143,0.06502345204353333,0.01825845241546631,-0.016894161701202393,-0.01702427864074707
-0.09226681292057037,0.021859165281057358,0.09438193589448929,0.010077595710754395,-0.015942275524139404,-0.010612726211547852
-0.0889045000076294,0.017566105350852013,0.12249244749546051,0.012248814105987549,-0.01688915491104126,-0.011647805571556091
-0.11359846591949463,-0.011718766763806343,0.09375529736280441,-0.004805803298950195,-0.019506096839904785,-0.008708104491233826
-0.11585117876529694,-0.061639152467250824,0.05717505142092705,-0.01098477840423584,-0.01255035400390625,-0.013670936226844788
-0.08218299597501755,-0.07540465146303177,0.05545857548713684,-0.009778082370758057,-0.012439846992492676,-0.02863156795501709
-0.04928775504231453,-0.05017789825797081,0.06821387261152267,-0.004701077938079834,-0.010677874088287354,-0.029574617743492126
-0.05283152312040329,-0.026215683668851852,0.06393854320049286,-0.006689548492431641,-0.0038608312606811523,-0.010899707674980164
-0.05219784379005432,-0.03388258442282677,0.05506330728530884,-0.006598174571990967,0.003357112407684326,-0.008614182472229004
-0.026718683540821075,-0.05946049094200134,0.0376780740916729,-0.007189452648162842,0.011468768119812012,-0.02475021779537201
0.016353335231542587,-0.11210422962903976,0.012458269484341145,-0.009745478630065918,0.023937702178955078,-0.0338699072599411
0.060345422476530075,-0.14092567563056946,-0.007866009138524532,-0.014698326587677002,0.01975536346435547,-0.02984154224395752
0.08532221615314484,-0.12140527367591858,-0.006809751503169537,-0.014175474643707275,0.010036230087280273,-0.008569538593292236
0.08876839280128479,-0.100345678627491,0.0038045113906264305,-0.01665586233139038,0.003427445888519287,0.015369430184364319
0.060012638568878174,-0.09889430552721024,0.011842741630971432,-0.013527989387512207,0.003344118595123291,0.036582306027412415
-0.01095180120319128,-0.10036386549472809,0.016999583691358566,-0.01689743995666504,0.0024266839027404785,0.056513383984565735
-0.0643385797739029,-0.08110765367746353,0.008681362494826317,-0.016473114490509033,0.008758962154388428,0.05746030807495117
-0.051802292466163635,-0.03658861666917801,0.004834529012441635,-0.010561883449554443,0.012458980083465576,0.04013870656490326
-0.023335836827754974,-0.008863784372806549,0.002697038697078824,0.0026338696479797363,0.012627720832824707,0.026037469506263733
-0.0377550907433033,-0.007252679206430912,0.015316307544708252,0.013431906700134277,0.007592737674713135,0.026862040162086487
-0.08233118057250977,-0.019612299278378487,0.04295395314693451,0.02221858501434326,0.0001888275146484375,0.03617267310619354
-0.10178130865097046,-0.07733897864818573,0.08015884459018707,0.03202611207962036,-0.002441585063934326,0.03293667733669281
-0.13442857563495636,-0.12292224913835526,0.10796968638896942,0.026147663593292236,-0.006324887275695801,0.03992640972137451
-0.21019884943962097,-0.1269896924495697,0.13498471677303314,0.01004856824874878,-0.007844388484954834,0.06423687934875488
-0.26107701659202576,-0.11983245611190796,0.14809274673461914,-0.001605212688446045,-0.004027128219604492,0.06635318696498871
-0.28196069598197937,-0.10528900474309921,0.16516686975955963,-0.005323052406311035,0.009086430072784424,0.049407124519348145
-0.29525548219680786,-0.16435016691684723,0.22545988857746124,0.009359121322631836,0.019553780555725098,0.026331543922424316
-0.43730440735816956,-0.40858450531959534,0.34741929173469543,0.04929518699645996,-0.006707131862640381,0.03792639076709747
-0.6510568857192993,-0.6782812476158142,0.5117511749267578,0.10012418031692505,-0.020443975925445557,0.07334469258785248
-0.9828590154647827,-0.9586160778999329,0.7432805895805359,0.1162450909614563,-0.05380290746688843,0.08873593807220459
-1.387279987335205,-1.268282175064087,0.9550884962081909,0.13475537300109863,-0.0289384126663208,0.12866497039794922
-1.7236111164093018,-1.6527215242385864,1.122335433959961,0.11642658710479736,-0.008318066596984863,0.1118851900100708
-1.8678134679794312,-1.9990155696868896,1.250859260559082,0.09520256519317627,0.028790146112442017,0.07369209825992584
-1.910556435585022,-2.3209898471832275,1.3559643030166626,0.07828468084335327,0.03624209761619568,0.054622113704681396
-1.89114511013031,-2.2964746952056885,1.3766539096832275,0.046939730644226074,0.026549994945526123,0.08243751525878906
-1.7634978294372559,-1.829163908958435,1.312906265258789,-0.01889580488204956,0.009228497743606567,0.12168571352958679
-1.6429530382156372,-1.4589124917984009,1.1524651050567627,-0.042230188846588135,-0.008557438850402832,0.10847580432891846
-1.6156905889511108,-1.3412094116210938,1.0911478996276855,0.019693434238433838,-0.018054991960525513,0.07137057185173035
-1.3998644351959229,-1.268974781036377,1.204638123512268,0.06530046463012695,-0.030887484550476074,-0.03857982158660889
-1.1553922891616821,-1.207750678062439,1.3233824968338013,0.08619874715805054,-0.01587626338005066,-0.09132301807403564
-1.0195066928863525,-1.1767578125,1.2966736555099487,0.04541015625,0.011138111352920532,-0.08366331458091736
-0.9842014908790588,-1.201491117477417,1.1832211017608643,0.0016810894012451172,0.03038737177848816,-0.044371604919433594
-0.9108458757400513,-1.2414798736572266,1.0952755212783813,-0.013746082782745361,0.03917849063873291,-0.03384089469909668
-0.7622483968734741,-1.2282510995864868,1.0296070575714111,-0.0118330717086792,0.05392751097679138,-0.036084651947021484
-0.635627269744873,-1.1732324361801147,0.945697546005249,-0.04095655679702759,0.044508904218673706,-0.032815247774124146
-0.6114771962165833,-1.1130778789520264,0.8481270670890808,-0.07955163717269897,0.043702632188797,-0.004773229360580444
-0.5994632840156555,-0.9967221617698669,0.7140475511550903,-0.09810590744018555,0.05435284972190857,0.03339272737503052
-0.4735381305217743,-0.8258967995643616,0.583842396736145,-0.11527639627456665,0.05167651176452637,0.01487240195274353
-0.3211536407470703,-0.7184461951255798,0.5120261907577515,-0.09228795766830444,0.05136317014694214,-0.01567801833152771
-0.2923383116722107,-0.6320631504058838,0.4604625999927521,-0.07274234294891357,0.04873165488243103,0.00572580099105835
-0.3605409264564514,-0.5847932696342468,0.40975987911224365,-0.07749360799789429,0.04977944493293762,0.04155224561691284
-0.39793089032173157,-0.5315456390380859,0.34188422560691833,-0.08468878269195557,0.053485095500946045,0.03789377212524414
-0.3287513852119446,-0.3765057623386383,0.21689631044864655,-0.10719406604766846,0.07092359662055969,0.012338995933532715
-0.14560748636722565,-0.1657591164112091,0.08025186508893967,-0.13383078575134277,0.08297136425971985,-0.024812817573547363
0.08990364521741867,-0.0044407956302165985,0.005369142629206181,-0.12079828977584839,0.09842994809150696,-0.05412554740905762
0.23279760777950287,-0.12348222732543945,-0.007419663481414318,-0.06670129299163818,0.08471885323524475,-0.07920533418655396
0.0754006952047348,-0.33020827174186707,-0.023499581962823868,-0.034598469734191895,0.06998667120933533,-0.013616800308227539
-0.15460094809532166,-0.5528736114501953,0.020762505009770393,-0.0038156509399414062,0.037264496088027954,0.038423120975494385
-0.24636638164520264,-0.6120409965515137,0.08410089462995529,0.015397608280181885,0.02015465497970581,0.03532853722572327
-0.23468048870563507,-0.5738869905471802,0.16155517101287842,0.017544567584991455,0.011133015155792236,0.01591545343399048
-0.2933604419231415,-0.6354084610939026,0.23219257593154907,0.029578804969787598,0.00875002145767212,0.024635672569274902
-0.38695472478866577,-0.7117490172386169,0.23954999446868896,0.012189149856567383,0.010865479707717896,0.0358654260635376
-0.4017808437347412,-0.680203914642334,0.2113277167081833,-0.0027501583099365234,0.01454627513885498,0.024168193340301514
-0.31444138288497925,-0.5392181277275085,0.20784543454647064,-0.011808514595031738,0.0073586106300354,0.00035649538040161133
-0.26541566848754883,-0.44380319118499756,0.2078906148672104,-0.0040558576583862305,-0.0032065510749816895,-0.004710853099822998
-0.28194814920425415,-0.3955550193786621,0.20643465220928192,-0.00492405891418457,-0.0038673579692840576,0.013371706008911133
-0.3038729727268219,-0.39584091305732727,0.1941143274307251,-0.0021889805793762207,-0.0006166398525238037,0.01734846830368042
-0.26762086153030396,-0.3674964904785156,0.1430058777332306,-0.011740446090698242,0.004926115274429321,0.0025713443756103516
-0.2301785945892334,-0.26992082595825195,0.09098338335752487,-0.027599632740020752,0.0072362422943115234,0.010146379470825195
-0.21492250263690948,-0.25300395488739014,0.12484205514192581,-0.0017318129539489746,-0.0033820271492004395,0.01684582233428955
-0.3095487654209137,-0.33361995220184326,0.160738006234169,0.02499210834503174,-0.021309733390808105,0.028901398181915283
-0.3865635097026825,-0.356011301279068,0.18081727623939514,0.013580083847045898,-0.0209006667137146,0.043594300746917725
-0.3805500566959381,-0.32507452368736267,0.18275877833366394,0.019880294799804688,-0.018903285264968872,0.024910449981689453
-0.36458078026771545,-0.24828819930553436,0.11506398022174835,-0.0017982721328735352,-0.014223277568817139,0.013982176780700684
-0.4538891315460205,-0.28948265314102173,0.08259305357933044,-0.009379923343658447,-0.026428312063217163,0.01744997501373291
-0.6639903783798218,-0.39997661113739014,0.0904751867055893,0.020723462104797363,-0.04224011301994324,0.04658782482147217
-0.6801376342773438,-0.34974968433380127,0.10605461150407791,0.033402323722839355,-0.039346903562545776,0.012571990489959717
-0.5352480411529541,-0.14386539161205292,0.0933961570262909,0.021031856536865234,-0.027551591396331787,-0.036304473876953125
-0.388138085603714,0.012030817568302155,0.09869921952486038,0.020212411880493164,-0.019438087940216064,-0.04805576801300049
-0.28189805150032043,0.0335102379322052,0.1263357251882553,0.02217888832092285,-0.017806142568588257,-0.04924118518829346
-0.26951298117637634,-0.057724181562662125,0.1443009376525879,0.019502878189086914,-0.01236000657081604,-0.039208173751831055
-0.27739498019218445,-0.23147530853748322,0.16601501405239105,0.025591611862182617,-0.00369340181350708,-0.029076874256134033
-0.2427803874015808,-0.23213037848472595,0.12435178458690643,0.01045680046081543,-0.0023816823959350586,-0.02363795042037964
-0.16013333201408386,-0.0813409835100174,0.09753429144620895,-0.022127270698547363,0.0003654360771179199,-0.014130949974060059
-0.0807267501950264,0.06684700399637222,0.08909089118242264,-0.01606816053390503,0.0028133392333984375,-0.007398486137390137
-0.02727566286921501,0.167274609208107,0.028036074712872505,-0.03170853853225708,0.01053270697593689,-0.007530510425567627
0.030671555548906326,0.2823360860347748,-0.04617283120751381,-0.04124891757965088,0.024026840925216675,-0.001790761947631836
0.08969201147556305,0.4129219651222229,-0.11797919869422913,-0.04532504081726074,0.027758240699768066,-0.0034256577491760254
0.054676227271556854,0.5199810862541199,-0.21408993005752563,-0.04819411039352417,0.03146415948867798,0.019688665866851807
-0.0368492491543293,0.6826961040496826,-0.36065295338630676,-0.061357855796813965,0.03465577960014343,0.05348747968673706
-0.033236756920814514,1.0377445220947266,-0.6078647971153259,-0.09949129819869995,0.03723543882369995,0.062155961990356445
0.11164767295122147,1.5733730792999268,-0.944496750831604,-0.14838457107543945,0.04171976447105408,0.04909336566925049
0.23835986852645874,1.9477819204330444,-1.2426180839538574,-0.1649247407913208,0.02806335687637329,0.03615075349807739
0.20258083939552307,1.9938069581985474,-1.4633533954620361,-0.12497341632843018,0.025032103061676025,0.05090141296386719
0.05940648913383484,1.7999894618988037,-1.5573819875717163,-0.04745370149612427,0.027506083250045776,0.06728783249855042
-0.008323177695274353,1.6212778091430664,-1.4686894416809082,0.024934709072113037,0.030066609382629395,0.03653073310852051
0.12664464116096497,1.587341070175171,-1.1867096424102783,0.09116852283477783,0.02700057625770569,-0.007060378789901733
0.47296833992004395,1.6708189249038696,-0.8560106158256531,0.11760103702545166,0.012415796518325806,-0.07267621159553528
0.542208194732666,1.3874768018722534,-0.6115169525146484,0.11075544357299805,-0.022334247827529907,-0.08723264932632446
0.14207173883914948,0.7687668800354004,-0.4656870365142822,0.10140854120254517,-0.016040056943893433,0.013671815395355225
-0.3530252277851105,0.14612969756126404,-0.3517223000526428,0.09437596797943115,-0.02181011438369751,0.07453310489654541
-0.5423262119293213,-0.14841486513614655,-0.24135933816432953,0.07582211494445801,-0.024516642093658447,0.03252136707305908
-0.38183197379112244,-0.014829025603830814,-0.16495533287525177,0.05359596014022827,-0.013951122760772705,-0.032771944999694824
-0.02531295269727707,0.31824883818626404,-0.16659677028656006,0.016734004020690918,-0.006476998329162598,-0.08164626359939575
0.15582095086574554,0.4456648528575897,-0.2296593189239502,0.002301037311553955,-0.008109360933303833,-0.08347323536872864
0.10266555845737457,0.36028268933296204,-0.25382891297340393,0.003721952438354492,-0.02000594139099121,-0.03182345628738403
-0.03797730803489685,0.19860856235027313,-0.23512417078018188,0.020531654357910156,-0.03165465593338013,-0.0029513537883758545
-0.11272727698087692,0.06592494249343872,-0.2110178917646408,0.03309917449951172,-0.02708721160888672,-0.013429701328277588
-0.070566326379776,0.06383869796991348,-0.193237766623497,0.033966779708862305,-0.013674914836883545,-0.034396231174468994
0.10274824500083923,0.25536322593688965,-0.20064671337604523,0.014211654663085938,-0.005925595760345459,-0.05534827709197998
0.4074938893318176,0.6265466213226318,-0.24295005202293396,-0.021800458431243896,-0.00789111852645874,-0.07626461982727051
0.7880329489707947,1.1087476015090942,-0.3157929480075836,-0.05832803249359131,-0.009562790393829346,-0.0872792899608612
1.1122140884399414,1.5162345170974731,-0.4026130139827728,-0.0734054446220398,-0.002781093120574951,-0.0881531685590744
1.2621830701828003,1.6040147542953491,-0.46975743770599365,-0.06818985939025879,-0.0023910999298095703,-0.08046776056289673
1.2104175090789795,1.473352313041687,-0.5231630206108093,-0.02900707721710205,0.010069608688354492,-0.03135538101196289
1.1540956497192383,1.3536958694458008,-0.5545856952667236,-0.01853722333908081,0.004623055458068848,-0.01718948781490326
1.2400623559951782,1.4103275537490845,-0.592633843421936,-0.022762954235076904,0.0003879666328430176,-0.02932247519493103
1.4873415231704712,1.6541610956192017,-0.6169265508651733,-0.04021167755126953,0.0020766258239746094,-0.053603172302246094
1.781112551689148,1.9568238258361816,-0.6678800582885742,-0.04847663640975952,0.006869971752166748,-0.06516455113887787
1.9833370447158813,2.1298036575317383,-0.74090576171875,-0.044214606285095215,0.020192205905914307,-0.05186672508716583
2.019965410232544,2.132861375808716,-0.7776435613632202,-0.026591956615447998,0.017466247081756592,-0.021443665027618408
1.8550721406936646,1.9000403881072998,-0.7494423985481262,-0.0002511739730834961,-0.00023996829986572266,0.014771580696105957
1.458917260169983,1.3990370035171509,-0.6346572041511536,0.04419952630996704,-0.03192991018295288,0.05698515474796295
0.8342157602310181,0.5658391118049622,-0.4399991035461426,0.09228712320327759,-0.07009434700012207,0.09674124419689178
0.022068142890930176,-0.3840416669845581,-0.1729460060596466,0.1418135166168213,-0.08445698022842407,0.1426600217819214
-0.653043806552887,-1.1327706575393677,0.12238705903291702,0.15972906351089478,-0.08613574504852295,0.15232062339782715
-0.963019609451294,-1.4497411251068115,0.3493955135345459,0.1312021017074585,-0.06818372011184692,0.10011661052703857
-0.9487650394439697,-1.413082480430603,0.44913116097450256,0.08665871620178223,-0.023140907287597656,0.0520399808883667
-0.7056025862693787,-1.0861774682998657,0.4155529737472534,0.027891874313354492,0.009423434734344482,0.006161928176879883
-0.3666073679924011,-0.6157597899436951,0.3279619812965393,-0.014596998691558838,0.02544534206390381,-0.0156259685754776
-0.0717604011297226,-0.153617262840271,0.1954052597284317,-0.04098689556121826,0.032951533794403076,-0.01255643367767334
0.1520950347185135,0.21895454823970795,0.062372028827667236,-0.06094694137573242,0.0386776328086853,-0.00813150405883789
0.238880455493927,0.32859352231025696,-0.03835345804691315,-0.04798567295074463,0.0322384238243103,0.0017258524894714355
0.21045537292957306,0.2485961765050888,-0.10506238788366318,-0.027140021324157715,0.024148285388946533,0.021710947155952454
0.12492311745882034,0.1007569208741188,-0.13827934861183167,-0.01497042179107666,0.008527755737304688,0.03533601760864258
0.05493539199233055,0.007459655404090881,-0.1410767287015915,-0.01216346025466919,-0.008532345294952393,0.045761838555336
0.03501991182565689,0.013428136706352234,-0.14564096927642822,-0.009312033653259277,-0.016028940677642822,0.04628683626651764
0.05996067821979523,0.1199791207909584,-0.15855304896831512,-0.009755492210388184,-0.016057372093200684,0.041280150413513184
0.12041381746530533,0.27185288071632385,-0.18692763149738312,-0.011223793029785156,-0.015158116817474365,0.03323139250278473
0.2113901674747467,0.4283672571182251,-0.22644591331481934,-0.01638895273208618,-0.011793553829193115,0.013809099793434143
0.3165856599807739,0.5725855827331543,-0.26229795813560486,-0.01591283082962036,-0.008153915405273438,-0.005139842629432678
0.40425506234169006,0.6374251842498779,-0.2895788848400116,-0.004883170127868652,-0.01139378547668457,-0.01706157624721527
0.4257814884185791,0.6403805017471313,-0.29906797409057617,0.003671705722808838,-0.014017760753631592,-0.015183791518211365
0.37841641902923584,0.5563548803329468,-0.31615012884140015,0.01703202724456787,-0.020168781280517578,-0.0065048933029174805
0.33759742975234985,0.4509136378765106,-0.30412113666534424,0.026253938674926758,-0.01553434133529663,-0.014131665229797363
0.3297763764858246,0.33908170461654663,-0.27615177631378174,0.04192543029785156,-0.021672487258911133,-0.02151966094970703
0.2815229892730713,0.2508283257484436,-0.24500180780887604,0.04388713836669922,-0.025595545768737793,-0.011950984597206116
0.21326644718647003,0.2034003585577011,-0.17263732850551605,0.04215288162231445,-0.04050886631011963,0.004398360848426819
0.15146905183792114,0.18198804557323456,-0.09268555045127869,0.049115896224975586,-0.046518921852111816,0.0077143460512161255
0.10600388050079346,0.16133344173431396,-0.024375226348638535,0.04685717821121216,-0.03870677947998047,0.005135178565979004
0.07924580574035645,0.12376329302787781,0.01228715106844902,0.0390172004699707,-0.03176748752593994,-0.0007046610116958618
0.0671883076429367,0.07620173692703247,0.0181841179728508,0.020731806755065918,-0.024879872798919678,-0.006869420409202576
0.07196374237537384,0.04731849953532219,0.016378244385123253,0.010091900825500488,-0.02508068084716797,-0.010960519313812256
0.07217272371053696,0.029163504019379616,0.02208215743303299,-0.002093493938446045,-0.02865445613861084,-0.006347477436065674
0.08223637193441391,0.016388511285185814,0.01343668345361948,-0.008808016777038574,-0.02270793914794922,-0.006379619240760803
0.1012585312128067,0.02508959174156189,-0.006526638753712177,-0.01227790117263794,-0.017750859260559082,-0.0026112496852874756
0.11752893030643463,0.05184869095683098,-0.02152401953935623,-0.010547280311584473,-0.014567852020263672,0.002282261848449707
0.12758895754814148,0.09611652046442032,-0.03131340444087982,-0.008906185626983643,-0.019138813018798828,0.00783132016658783
0.13388647139072418,0.14209362864494324,-0.04717150703072548,-0.006020307540893555,-0.01940619945526123,0.00765228271484375
0.15568701922893524,0.18616795539855957,-0.037544555962085724,0.004828453063964844,-0.01828444004058838,-0.0006802082061767578
0.1783279925584793,0.22297793626785278,-0.020555272698402405,0.014145314693450928,-0.016955137252807617,-0.007692217826843262
0.1835182160139084,0.23549354076385498,-0.005403653718531132,0.01762765645980835,-0.016415536403656006,-0.008802637457847595
0.1613341122865677,0.22053280472755432,0.018202146515250206,0.020155906677246094,-0.019244790077209473,-0.004602015018463135
0.1365482062101364,0.19751200079917908,0.04953495040535927,0.02115243673324585,-0.024388790130615234,-0.006696984171867371
0.125808447599411,0.1726546585559845,0.09459768980741501,0.020991981029510498,-0.023855984210968018,-0.011167168617248535
0.1038171648979187,0.13003727793693542,0.13032929599285126,0.019037842750549316,-0.02146780490875244,-0.012316763401031494
0.05264303833246231,0.08947554230690002,0.14288797974586487,0.020013809204101562,-0.010783970355987549,-0.0024881213903427124
-0.0016634962521493435,0.048303719609975815,0.14278386533260345,0.01357179880142212,-0.0008932352066040039,0.0010222792625427246
-0.017426172271370888,0.027603615075349808,0.14389251172542572,0.006094098091125488,0.008053481578826904,-0.011452078819274902
-0.00827309675514698,0.03318613022565842,0.14642344415187836,0.0016883015632629395,0.012142419815063477,-0.022790327668190002
0.01745671220123768,0.03969379514455795,0.1488097757101059,-0.004884600639343262,0.014491915702819824,-0.030990079045295715
0.041083380579948425,0.017499657347798347,0.1412087231874466,-0.011299312114715576,0.016625404357910156,-0.031937554478645325
0.041900645941495895,-0.009567911736667156,0.128592386841774,-0.01956033706665039,0.01821237802505493,-0.0238676518201828
0.04180344194173813,-0.012409054674208164,0.11151941120624542,-0.027052879333496094,0.01677483320236206,-0.014651402831077576
0.060164619237184525,-0.007265152409672737,0.09411422163248062,-0.028615117073059082,0.020485401153564453,-0.008419156074523926
0.073763407766819,0.015476035885512829,0.07486647367477417,-0.030708730220794678,0.021792888641357422,-0.0023569315671920776
0.07717724144458771,0.02742803655564785,0.03650013357400894,-0.03584510087966919,0.02520763874053955,0.004293918609619141
0.07489199936389923,0.026354704052209854,0.0030150490347296,-0.03490185737609863,0.02562505006790161,0.00590147078037262
0.0742025226354599,0.020731138065457344,-0.017167018726468086,-0.02397739887237549,0.02754729986190796,0.008105382323265076
0.06613694131374359,0.0184277705848217,-0.019570479169487953,-0.015977561473846436,0.021910130977630615,0.009586453437805176
0.057319946587085724,0.03887099400162697,-0.016607221215963364,-0.009979784488677979,0.018834292888641357,0.01293957233428955
0.05617690086364746,0.04604771360754967,-0.010248292237520218,-0.0041852593421936035,0.01793617010116577,0.012220248579978943
0.050008390098810196,0.05105963349342346,-0.009887010790407658,-0.0015031099319458008,0.015619874000549316,0.013385772705078125
0.04640667140483856,0.0247057918459177,-0.019163744524121284,-0.006301581859588623,0.016639232635498047,0.011122062802314758
0.027852347120642662,0.006610487587749958,-0.007968026213347912,-0.010251343250274658,0.011597931385040283,0.012014031410217285
-0.009996204636991024,0.0003111986443400383,-0.00026396289467811584,-0.01489180326461792,0.011722743511199951,0.020186901092529297
-0.023366857320070267,0.012158726342022419,-0.00952333863824606,-0.019334733486175537,0.015822112560272217,0.01730276644229889
-0.02808304876089096,0.0202040933072567,-0.04643154889345169,-0.021685004234313965,0.019386887550354004,0.014153242111206055
-0.008809022605419159,0.0400627925992012,-0.06733288615942001,-0.02669084072113037,0.01815873384475708,0.0028858035802841187
0.02323990687727928,0.06920956820249557,-0.0706908106803894,-0.01893794536590576,0.0090789794921875,-0.005776822566986084
0.018579429015517235,0.04370748624205589,-0.09424179792404175,-0.01596212387084961,0.008721649646759033,-0.003951579332351685
0.006498183123767376,0.023054175078868866,-0.092892587184906,-0.013917624950408936,0.002276599407196045,-0.004019007086753845
-0.0020159431733191013,0.025406545028090477,-0.07492929697036743,-0.002952754497528076,-0.00667494535446167,-0.001125916838645935
-0.02156340517103672,0.032405827194452286,-0.050796180963516235,0.0015630722045898438,-0.012936949729919434,0.00391678512096405
-0.061830051243305206,-0.010881230235099792,-0.036681219935417175,0.004086971282958984,-0.02009350061416626,0.005075037479400635
-0.10683828592300415,-0.0578998364508152,-0.017648307606577873,0.00792628526687622,-0.02136540412902832,0.002169206738471985
