rotation_x,rotation_y,rotation_z,acceleration_x,acceleration_y,acceleration_z
-0.07401534914970398,-0.031034478917717934,-0.011538665741682053,0.02211807668209076,-0.018998324871063232,-0.008715331554412842
-0.10079984366893768,-0.03188246861100197,-0.02604960836470127,-0.010511517524719238,0.006344497203826904,0.01067817211151123
-0.04452010616660118,-0.025375977158546448,-0.011937394738197327,-0.004117101430892944,-0.0007764697074890137,-0.017894208431243896
0.04747863858938217,0.01805633306503296,0.001323336735367775,0.004950346425175667,-0.007898330688476562,-0.025804102420806885
-0.00416644848883152,0.0028323386795818806,-0.01878226548433304,-0.010627985000610352,-0.0005344152450561523,0.0068585872650146484
-0.01592892035841942,0.005520784296095371,-0.01661766692996025,0.003611817955970764,-0.015918850898742676,0.001630544662475586
-0.02272164635360241,-0.014051240868866444,-0.016042742878198624,-0.002372143790125847,-0.010870277881622314,0.009000420570373535
-0.04296918958425522,-0.002026692498475313,-0.012430413626134396,-0.0018553584814071655,-0.00459444522857666,0.01792144775390625
0.0042741745710372925,0.0002280334010720253,0.0025869389064610004,0.006507948040962219,-0.0026627779006958008,-0.02689528465270996
-0.01806499809026718,0.04584198445081711,0.013604292646050453,0.003481658175587654,-0.002295374870300293,-0.011323928833007812
-0.024337362498044968,-0.023042622953653336,0.03686640411615372,0.018634989857673645,-0.005024433135986328,-0.013997793197631836
0.004113629925996065,-0.013237351551651955,-0.005575297866016626,-0.01334516704082489,-0.003018498420715332,-0.03322792053222656
-0.04222022369503975,-0.023471815511584282,-0.021236468106508255,-0.009903103113174438,0.007785797119140625,0.023612797260284424
-0.023720065131783485,0.013555563986301422,-0.0034364592283964157,-0.0019921213388442993,0.0017490386962890625,0.0018208026885986328
0.025381967425346375,0.03476764261722565,-0.005608267150819302,-0.00896531343460083,0.0055849552154541016,-0.027077198028564453
-0.011967822909355164,0.020817479118704796,-0.015356088057160378,0.006924048066139221,-0.00616908073425293,-0.012177586555480957
-0.05037275701761246,-0.03882330656051636,-0.036444034427404404,-0.003926604986190796,-0.002447664737701416,0.020870327949523926
-0.004334648605436087,-0.0169576033949852,0.0023857434280216694,0.008804112672805786,-0.004169285297393799,4.827976226806641e-06
0.0169075895100832,-0.009333854541182518,0.03639063984155655,0.01714909076690674,-0.006608068943023682,-0.01803898811340332
-0.047842711210250854,0.033131662756204605,0.01988138072192669,-0.0029216259717941284,0.008655369281768799,0.01769876480102539
-0.02668391913175583,-0.004514776170253754,-0.006685101427137852,-0.010804310441017151,-0.0009621381759643555,-0.0148276686668396
0.01856105588376522,-0.016901936382055283,-0.019925007596611977,-0.008747205138206482,-0.0025925040245056152,-0.018290400505065918
-0.022739887237548828,0.06343007832765579,-0.031432781368494034,-0.007049500942230225,-0.0001633167266845703,0.03145653009414673
-0.047038234770298004,0.00023592915385961533,0.01916825957596302,0.022239431738853455,-0.02598428726196289,-0.013842105865478516
0.002272588200867176,0.05103626102209091,0.023233573883771896,-0.0057825446128845215,-0.0031737089157104492,-0.02202892303466797
0.008151005953550339,-0.041062358766794205,0.018423117697238922,-0.0017831772565841675,0.0012818574905395508,-0.023570120334625244
0.023135347291827202,0.008920637890696526,0.004404866136610508,-0.0035783350467681885,0.006181061267852783,-0.019043564796447754
0.01885382831096649,-0.006145459599792957,-0.012380844913423061,-0.0006008744239807129,-0.006257951259613037,-0.014197766780853271
0.010256610810756683,0.00644277036190033,0.010306091047823429,0.007784321904182434,-0.001374959945678711,0.004206359386444092
-0.012796798720955849,0.034083351492881775,0.02419957146048546,-0.0003226548433303833,-0.002671480178833008,0.016116857528686523
-0.010820245370268822,0.025924939662218094,0.018606312572956085,0.00032944977283477783,0.002552032470703125,0.01366037130355835
-0.015825102105736732,-0.027140099555253983,0.007799914106726646,0.009594470262527466,-0.008016347885131836,-0.006816267967224121
-0.00045386888086795807,-0.02820349857211113,-0.011533303186297417,-0.0049552321434021,0.005287528038024902,-0.016829371452331543
0.023354213684797287,0.0013886531814932823,9.13119874894619e-05,-0.0006108563393354416,-0.0023779869079589844,-0.01942676305770874
-0.0026873955503106117,0.03423289954662323,0.013822173699736595,-0.0010986030101776123,0.007740616798400879,0.00013566017150878906
-0.01815829612314701,0.035279806703329086,0.004332427866756916,-0.009524747729301453,-0.0041931867599487305,0.008892297744750977
-0.0025586760602891445,-0.022972580045461655,0.0056481510400772095,0.004307940602302551,-0.005223214626312256,-0.005932152271270752
-0.0009157494641840458,-0.024414371699094772,0.0030701220966875553,0.007090836763381958,-0.009212315082550049,-0.0029088258743286133
-0.017997553572058678,0.01731518656015396,0.012072494253516197,-0.0005083829164505005,0.0012578964233398438,-0.003822803497314453
0.002878922503441572,0.017986208200454712,0.023704301565885544,0.0016223490238189697,0.0036746859550476074,-0.016136586666107178
0.015408540144562721,0.002052102005109191,0.014028480276465416,-0.008712692186236382,0.0022188425064086914,-0.0032511353492736816
-0.022245071828365326,-0.020371347665786743,0.013573575764894485,0.004594177007675171,-0.008418560028076172,0.004249691963195801
-0.025659112259745598,-0.021740850061178207,0.0009663337841629982,-0.003057582303881645,0.0017001032829284668,-0.00722426176071167
0.03240572288632393,-0.008278494700789452,0.008128853514790535,0.004457652568817139,0.00020653009414672852,-0.03587496280670166
0.026070572435855865,-0.005552268121391535,0.006074053235352039,-0.0026907026767730713,-0.0031738877296447754,-0.011478781700134277
-0.01525920256972313,0.005146955605596304,0.0018827272579073906,-0.00780869834125042,-0.0038808584213256836,0.007716476917266846
-0.025481168180704117,-0.005678439978510141,0.00452759861946106,-0.0010049939155578613,-0.0021705031394958496,0.008967757225036621
0.010074693709611893,-0.01437334157526493,0.006809718441218138,0.0019059181213378906,-0.0009447336196899414,-0.01381009817123413
0.006249640136957169,0.003436638507992029,-0.0004643545253202319,0.0016479641199111938,-0.004090547561645508,0.0023200511932373047
-0.02021712064743042,0.03534210845828056,-0.004034055396914482,-0.008195145055651665,-0.007731914520263672,0.005026042461395264
-0.033305488526821136,0.014849015511572361,0.005769525654613972,-0.0058951228857040405,0.0008994936943054199,-0.013108968734741211
0.011082723736763,-0.03283192962408066,0.004531292710453272,-0.0029362738132476807,0.0016411542892456055,-0.02171480655670166
0.038311660289764404,-0.0075029716826975346,0.008972414769232273,-0.0004230290651321411,0.000118255615234375,-0.015186667442321777
0.0065762996673583984,0.007879795506596565,0.01107572577893734,0.00787380337715149,-0.0034366250038146973,0.008186578750610352
-0.033780064433813095,0.030675262212753296,0.00887840986251831,-0.006306616589426994,-0.008369207382202148,0.0175473690032959
-0.027330178767442703,0.00473168957978487,0.012460588477551937,-0.007295101881027222,0.0029784440994262695,-0.0018110275268554688
0.023571904748678207,-0.022838374599814415,0.003766875946894288,-0.0019049644470214844,-0.0015037059783935547,-0.03091716766357422
0.0028382642194628716,-0.021652575582265854,-0.010098977014422417,-2.0384788513183594e-05,-0.0037972331047058105,-0.0042610764503479
-0.00392643129453063,9.55960713326931e-05,-0.012262263335287571,-0.007550448179244995,-0.001355290412902832,0.00025594234466552734
-0.012530016712844372,0.028340907767415047,-0.003707421012222767,-0.007817192003130913,-0.002209961414337158,0.004185497760772705
-0.03158087283372879,0.030917439609766006,-0.007411561440676451,-0.004045395180583,0.0018664002418518066,0.003052830696105957
0.004519052337855101,-0.000440000556409359,-0.015175380744040012,0.0066418517380952835,-0.00021845102310180664,-0.022141695022583008
0.01445477269589901,-0.012825874611735344,-0.018268970772624016,0.005106495693325996,-0.003717362880706787,-0.0081099271774292
-0.003082563867792487,-0.004595533013343811,-0.013756254687905312,-0.003590703010559082,0.0016391277313232422,-0.006578385829925537
0.015249595046043396,-0.01678447052836418,0.0007646053563803434,-0.0009504854679107666,-0.004164934158325195,-0.01823371648788452
0.012619965709745884,-0.021518368273973465,5.190819501876831e-05,-0.006529880687594414,-0.0031884312629699707,-0.005177617073059082
0.007253231946378946,-0.033085159957408905,-3.037671558558941e-05,0.0016786903142929077,-0.004995524883270264,-0.012817144393920898
-0.0038154656067490578,0.007008126005530357,-0.005958785302937031,-0.0009514838457107544,-0.0065877437591552734,-0.007292807102203369
0.008001312613487244,0.0035184589214622974,-0.0012852116487920284,0.001330047845840454,-0.0011274218559265137,-0.014694273471832275
0.014178292825818062,0.004448891617357731,0.012615093030035496,0.007908374071121216,-4.178285598754883e-05,-0.009645402431488037
0.028487810865044594,0.017559070140123367,0.0033046407625079155,-0.006110114976763725,-0.000817716121673584,-0.0007082819938659668
-0.003115209750831127,0.015559866093099117,-0.009302988648414612,0.0029235482215881348,-0.00402754545211792,0.01045757532119751
-0.03246572986245155,0.0068430593237280846,-0.024420177564024925,-0.0027042627334594727,-0.007129371166229248,0.012353122234344482
0.0041752164252102375,0.009466070681810379,-0.0006909514777362347,0.016983704641461372,0.0008067488670349121,-0.02497732639312744
0.017379745841026306,0.018504712730646133,0.004831256344914436,-0.00474780797958374,0.005146682262420654,-0.01072704792022705
-0.006079907529056072,-0.02043134905397892,-0.010090800933539867,-0.0023479163646698,0.002630472183227539,0.006859302520751953
-0.01585259847342968,-0.008417957462370396,-0.0113673759624362,-3.8295984268188477e-05,-0.005972862243652344,-0.0009194016456604004
-0.020123176276683807,0.006562248803675175,-0.0034793103113770485,0.0010728705674409866,0.00046640634536743164,-0.0013592243194580078
0.017292216420173645,0.028340468183159828,0.0054205250926315784,-0.00104600191116333,-0.0030715465545654297,-0.011458516120910645
-0.0016646748408675194,0.03222751244902611,0.009440850466489792,0.002447962760925293,-7.05718994140625e-05,-0.005649387836456299
-0.019420724362134933,0.014198051765561104,-0.0024550803937017918,-0.004235178232192993,-0.001882016658782959,0.004416227340698242
-0.01979188062250614,-0.025713177397847176,0.0028219332452863455,0.0014175325632095337,-0.0070403218269348145,-0.002397596836090088
-0.0016938145272433758,-0.005773729179054499,0.004098620731383562,-0.00334918312728405,0.0026577115058898926,-0.011523902416229248
0.013411259278655052,0.01930815726518631,0.005544326268136501,-0.004147842526435852,-0.007009029388427734,-0.014884114265441895
-0.010903047397732735,0.02112734317779541,0.014710878022015095,0.008885085582733154,-0.002127707004547119,-0.005922853946685791
-0.026008473709225655,-0.009547213092446327,0.009177744388580322,-0.004924638196825981,-0.0024799704551696777,0.0035361647605895996
0.009601917117834091,-0.006522000767290592,0.006425107829272747,0.004598334431648254,-0.0058397650718688965,-0.005565941333770752
0.004108481574803591,-0.019841955974698067,-0.0027475161477923393,-0.0049349963665008545,-0.0024483203887939453,-0.011285781860351562
0.023811478167772293,-0.00933190155774355,0.004379001446068287,0.005735382437705994,-0.0018777251243591309,-0.011905431747436523
-0.02175704948604107,0.01922176033258438,0.012524185702204704,-0.001353725790977478,-0.004006743431091309,-0.003792285919189453
0.012216231785714626,0.010347684845328331,0.005994219332933426,-0.007759390398859978,0.002202451229095459,-0.005929291248321533
0.012554212473332882,0.01949046365916729,-0.009106602519750595,-0.008745923638343811,-0.008620023727416992,-0.002363264560699463
0.009068530052900314,0.01502786111086607,-0.017416760325431824,-0.0013269633054733276,-0.004854738712310791,0.0028028488159179688
-0.038120198994874954,0.0009938180446624756,-0.018742727115750313,-0.0011880546808242798,-0.006906628608703613,0.003101944923400879
0.015205830335617065,-0.01620282232761383,-0.00739313755184412,-0.002353191375732422,0.0017214417457580566,-0.03389006853103638
0.03849637508392334,0.0019483419600874186,5.4219504818320274e-05,-0.004637971520423889,0.0012930631637573242,-0.02485579252243042
0.022355040535330772,-0.008446305990219116,0.0032962423283606768,-0.0013797413557767868,-0.0027840137481689453,0.0042632222175598145
0.010137123987078667,0.000755819259211421,-0.010066594928503036,-0.004902839660644531,-0.011025607585906982,0.006043910980224609
-0.0156991109251976,-0.023255567997694016,-0.008155439049005508,0.0043922364711761475,-0.007672488689422607,0.007324337959289551
0.011784421280026436,0.022627457976341248,-0.017302775755524635,-0.013197332620620728,-0.004335761070251465,-0.022894561290740967
0.00987777579575777,-0.024046538397669792,0.0012642901856452227,0.007061811164021492,-0.0010277032852172852,-0.011910736560821533
0.027486953884363174,-0.030993159860372543,-0.0031225085258483887,-0.014479992911219597,-0.002798616886138916,-0.008020997047424316
0.02436923421919346,-0.021180294454097748,0.0027789967134594917,0.00741933286190033,-0.006884634494781494,0.0046880245208740234
-0.020509246736764908,-0.0034355511888861656,-0.020380571484565735,0.004138963297009468,-0.008010447025299072,0.018146395683288574
0.043758049607276917,-0.00658226665109396,-0.017872700467705727,0.004307866096496582,-0.0002893805503845215,-0.032427310943603516
0.03733520954847336,-0.00988873653113842,-0.0008475651266053319,0.005398407578468323,0.004262745380401611,-0.00710684061050415
0.005988562945276499,0.0009260561782866716,-0.002548295073211193,-0.007223889231681824,-0.004583835601806641,0.0010966062545776367
0.013594682328402996,-0.01985948532819748,-0.0045324573293328285,0.004008203744888306,-0.007617771625518799,-0.004530370235443115
0.017395658418536186,-0.014063587412238121,-0.01677588000893593,0.0013932734727859497,-0.006382584571838379,-0.001595616340637207
0.04283035546541214,0.005513875745236874,0.0005059449467808008,0.017681779339909554,-0.001516878604888916,-0.016511499881744385
0.022938426584005356,0.009788605384528637,0.007512160576879978,0.0054960548877716064,0.0029682517051696777,-0.0028414130210876465
-2.9358547180891037e-05,0.016296394169330597,0.001768788555637002,0.005737125873565674,-0.0052610039710998535,-0.007555186748504639
-0.000825224444270134,0.018945883959531784,-0.003779642516747117,0.001975342631340027,-0.0013022422790527344,-0.007886052131652832
0.04498525336384773,0.011142043396830559,0.0026253920514136553,0.0036303550004959106,-0.004324555397033691,-0.01461327075958252
0.04347817227244377,0.0030452786013484,0.004187131300568581,0.010305091738700867,-0.0011035799980163574,0.0036527514457702637
0.007342291995882988,-0.019163355231285095,0.008060282096266747,0.00420127809047699,-0.0010820627212524414,0.015526413917541504
0.010162601247429848,-0.022723371163010597,0.00868342723697424,0.0010351985692977905,-0.0006028413772583008,-0.0014493465423583984
0.02018005959689617,0.016690833494067192,0.008259277790784836,-0.009021446108818054,0.0032495856285095215,-0.007835984230041504
0.008532924577593803,0.021249443292617798,0.0022380861919373274,-0.010521411895751953,-0.0010035037994384766,-0.003674745559692383
-0.00013963738456368446,0.023778431117534637,-0.0052058082073926926,-0.001165345311164856,-0.008429944515228271,-0.0028963685035705566
-0.00942448154091835,-0.008730832487344742,-0.0027909090276807547,0.0040307193994522095,-0.006900906562805176,-0.0022281408309936523
0.017080938443541527,-0.008142611011862755,0.000966477207839489,-0.012034803628921509,0.0010349750518798828,-0.011115193367004395
0.022174321115016937,-0.011751226149499416,0.017742488533258438,0.007349982857704163,0.0023422837257385254,-0.008481085300445557
-0.007813825272023678,0.0008719998877495527,0.007531917653977871,-0.008634224534034729,-0.0006288886070251465,0.0061928629875183105
0.005689422134310007,-0.02114134654402733,0.005570830311626196,0.005777731537818909,-0.005927979946136475,-0.0034210681915283203
0.022316202521324158,-0.008938049897551537,0.003129937220364809,-0.0020311176776885986,-0.004930734634399414,-0.002766728401184082
0.009557109326124191,0.011605637148022652,0.0058705247938632965,-0.0030114948749542236,-0.002054572105407715,0.001012265682220459
-0.002605769783258438,0.006466143764555454,-4.6076951548457146e-05,-0.00612756609916687,-0.0042684078216552734,-0.00022017955780029297
-0.007917355746030807,-0.027330687269568443,-0.0076741487719118595,-0.002696692943572998,-0.003081083297729492,-0.0008336305618286133
0.013233291916549206,-0.011624193750321865,-0.0085383839905262,-0.003488212823867798,-0.0023695826530456543,-0.005044758319854736
0.007174891885370016,0.013456273823976517,-0.0007256204262375832,0.0001410841941833496,-0.003979384899139404,-0.006232619285583496
-0.004032579250633717,0.014544680714607239,-0.00045514607336372137,-0.002746148034930229,-0.0018705129623413086,-0.005033969879150391
0.0009161722846329212,0.0033584844786673784,0.0008982608560472727,0.00030031800270080566,-0.003605484962463379,-0.008380532264709473
-0.01181364618241787,-0.005014948546886444,-0.004734164569526911,-0.005680052563548088,-0.0032331347465515137,0.002749502658843994
0.019617022946476936,-0.008817862719297409,-0.0008278379682451487,0.00493653304874897,-0.0038118958473205566,-0.008936107158660889
0.026620514690876007,-0.005345650017261505,-0.011246676556766033,0.0001397598534822464,-0.00795900821685791,-0.0012280941009521484
0.009907802566885948,-0.00946885161101818,-0.015234841033816338,0.0043675899505615234,-0.012439072132110596,-0.0002167224884033203
-0.009426258504390717,0.011404016986489296,-0.00679122656583786,6.85323029756546e-05,-0.005466461181640625,-0.004993140697479248
0.005722290836274624,0.01353440247476101,0.005749989300966263,0.0011264104396104813,-0.00363081693649292,-0.023746371269226074
0.006707083899527788,-0.01996218040585518,0.0016166225541383028,-0.004923686385154724,-0.0043070316314697266,-0.003162205219268799
0.027240831404924393,-0.020836757495999336,0.001511043170467019,0.003938958048820496,-0.007783412933349609,-0.0006049275398254395
0.026806846261024475,0.0022978708148002625,0.0030592738185077906,0.002256140112876892,-0.007445216178894043,-0.0044481754302978516
0.0010366365313529968,0.020923588424921036,0.013101097196340561,0.007603481411933899,-0.0012259483337402344,0.00824737548828125
-0.005649917759001255,0.012935557402670383,0.01967615634202957,0.0010896027088165283,-0.0014023780822753906,0.0005917549133300781
-0.024336587637662888,0.009701227769255638,0.022898796945810318,0.01068917103111744,-0.008823692798614502,0.004219114780426025
-0.0232863686978817,0.00211931555531919,0.009128226898610592,0.0081605464220047,-0.007077455520629883,-0.0020781755447387695
0.03224879503250122,-0.0021757851354777813,0.0012008566409349442,0.005257027223706245,-0.003146231174468994,-0.02848219871520996
0.06226494908332825,0.005400408990681171,0.003736871760338545,-0.0030459314584732056,-0.0020726919174194336,-0.01800447702407837
0.030335402116179466,0.03986484929919243,0.015195193700492382,-0.006891785189509392,-0.0017794966697692871,-0.0007836222648620605
0.010552599094808102,0.007015721872448921,0.018965616822242737,-0.009565785527229309,-0.0006088614463806152,0.00953376293182373
0.015249460935592651,-0.017660576850175858,0.011047638952732086,-0.005716383457183838,-0.008062601089477539,0.0056098103523254395
0.004735145717859268,-0.018621914088726044,0.001878037815913558,-0.011335298418998718,-0.0025516748428344727,0.004706621170043945
-0.0010498813353478909,0.013177087530493736,0.006423769984394312,-0.0017738640308380127,-0.0009615421295166016,-0.0057160258293151855
0.003852508030831814,0.01250113733112812,0.009079919196665287,-0.0005756914615631104,0.003901243209838867,-0.022217214107513428
-0.004058390855789185,0.002954606432467699,0.0007194206118583679,0.0031916648149490356,0.0004602670669555664,-0.003377676010131836
-0.002348397159948945,0.020801469683647156,0.003740600310266018,0.00033188052475452423,-0.0047830939292907715,-3.6776065826416016e-05
0.0037091406993567944,0.03360997140407562,-0.002958273980766535,0.0014303624629974365,-0.004735171794891357,0.003002643585205078
-0.009488974697887897,0.002888759598135948,-0.0044751157984137535,0.0025754570960998535,-0.006967008113861084,0.014744400978088379
0.017559753730893135,-0.009090524166822433,-0.010568706318736076,-0.005085155367851257,-0.0037487149238586426,-0.009070217609405518
0.011643118225038052,-0.007644365541636944,-0.009293124079704285,-0.0029952526092529297,-0.004433393478393555,-0.01873648166656494
-0.013569602742791176,0.0069756461307406425,-0.01659223809838295,-0.01176103949546814,-0.0019583702087402344,-0.006640374660491943
0.023379404097795486,0.007377506233751774,-0.022673582658171654,-0.005607202649116516,-0.006470024585723877,-0.01687866449356079
0.03773967921733856,-0.009771743789315224,-0.017671337351202965,-0.0056657493114471436,-0.004721701145172119,-0.010364115238189697
0.0022466429509222507,0.009362438693642616,-0.02014964260160923,-0.005464568734169006,-0.00555950403213501,0.010931968688964844
-0.01376805454492569,0.0048387013375759125,-0.008653659373521805,0.004564881324768066,-0.00711137056350708,-0.0024824142456054688
-0.015439143404364586,-0.027774542570114136,0.004051834344863892,0.0021243542432785034,-0.0017064213752746582,0.005817532539367676
0.005520068574696779,-0.040696799755096436,0.0030017090030014515,-0.003065153956413269,0.0008796453475952148,-0.005178868770599365
0.01799926348030567,-0.01949840784072876,-0.006648514419794083,-0.0055849552154541016,-0.0013619661331176758,-0.011372387409210205
-0.02020125277340412,-0.011722400784492493,-0.012946252711117268,0.0013015568256378174,0.001299440860748291,0.01265186071395874
-0.04726187512278557,-0.012146546505391598,-0.005923530086874962,0.006443053483963013,-0.0020841360092163086,0.010806620121002197
-0.02040116675198078,-0.014239929616451263,0.0002973470836877823,0.005037173628807068,-0.0017507076263427734,-0.00489354133605957
0.015955442562699318,0.010606702417135239,-0.008215180598199368,-0.008485332131385803,0.0011426210403442383,-0.016638875007629395
0.007970109581947327,0.01766848936676979,-0.011559296399354935,0.0013884305953979492,-0.0023834705352783203,-0.012821316719055176
-0.010629474185407162,0.030472299084067345,-0.016776956617832184,0.0012186318635940552,-0.006441473960876465,-0.006132245063781738
-0.01030874066054821,0.02037329599261284,-0.007569650188088417,0.0038688331842422485,-0.005030930042266846,-0.009960353374481201
0.005326366983354092,-0.011181309819221497,0.006242426112294197,-0.001198992133140564,-0.001895308494567871,-0.003114640712738037
0.0021444903686642647,-0.027309680357575417,0.008843716233968735,0.0017675776034593582,-0.005885183811187744,0.0047667622566223145
5.529262125492096e-06,0.01414855569601059,0.0020130006596446037,-0.003358481451869011,-0.004356324672698975,0.00499957799911499
-0.004472378175705671,0.00595086207613349,0.000599804101511836,0.0019263476133346558,-0.002531886100769043,0.00022345781326293945
-0.02453335002064705,7.537147030234337e-05,-0.006839247886091471,-0.001021355390548706,-0.0020951032638549805,0.002156853675842285
-0.006861943285912275,-0.008129527792334557,-0.0020169937051832676,0.0017781276255846024,-0.005969107151031494,-0.013457834720611572
-0.00758639071136713,-0.011566827073693275,0.009035271592438221,0.00464080274105072,0.002735137939453125,-0.0074787139892578125
-0.0001589423045516014,-0.02233877032995224,0.006888422183692455,0.004256904125213623,0.0005141496658325195,-0.0033456087112426758
0.01655447855591774,-0.0058967433869838715,0.0031846612691879272,0.0017711091786623001,-0.004874885082244873,-0.0030242204666137695
-0.02565598301589489,0.016499854624271393,-0.011781401000916958,-0.00946691446006298,-0.004192054271697998,0.02638310194015503
-0.07652927935123444,0.04359056055545807,-0.013061918318271637,-0.0013044774532318115,-0.010949909687042236,0.027194738388061523
-0.07476216554641724,0.02208613231778145,-0.004547331482172012,0.0069963037967681885,0.0008977055549621582,0.0010150671005249023
-0.010726502165198326,-0.005447365343570709,-0.003958383575081825,0.003179877996444702,-0.0006799101829528809,-0.03334265947341919
0.030828841030597687,-0.004979954566806555,-0.008529390208423138,-0.0015731751918792725,-0.00419384241104126,-0.041326165199279785
0.007903551682829857,0.013917260803282261,-0.008590705692768097,-0.0022374670952558517,-0.010050952434539795,-0.02169644832611084
-0.011026885360479355,0.015122137032449245,-0.0002827799180522561,-0.0030760616064071655,-0.011008739471435547,-0.011252999305725098
0.008801104500889778,0.019202005118131638,-0.0019715726375579834,-0.01147557608783245,-0.0059639811515808105,-0.012263000011444092
0.029878469184041023,-0.010394630953669548,0.0042622326873242855,9.334273636341095e-05,-0.004792988300323486,-0.019541442394256592
0.03274700418114662,-0.007811000570654869,-0.0036009359173476696,-0.0019665341824293137,-0.004979372024536133,-0.009990513324737549
0.01982841081917286,-0.016296790912747383,0.007405481766909361,0.0062972307205200195,-0.003094911575317383,-0.001923680305480957
0.008168159052729607,0.005828112829476595,0.014544511213898659,-0.0013781636953353882,0.0014279484748840332,0.0072928667068481445
0.012197501957416534,-0.0006270259618759155,0.021159792318940163,-0.006207093596458435,0.004364192485809326,0.008107602596282959
0.004854654893279076,0.008553266525268555,0.004682507831603289,-0.005815593525767326,-0.0011484622955322266,0.010452628135681152
-0.017526905983686447,0.019669655710458755,-0.019298631697893143,-0.003250688314437866,-0.0036287903785705566,0.005359351634979248
-0.008385428227484226,0.018890880048274994,-0.015070407651364803,0.006935492157936096,-0.0016616582870483398,-0.007286548614501953
0.0019825901836156845,0.003764100605621934,-0.005346832796931267,0.0013917703181505203,0.0035259127616882324,-0.012441098690032959
0.029285162687301636,0.02674958109855652,0.0063030412420630455,-0.000245019793510437,0.004327178001403809,-0.025185048580169678
-0.006554549094289541,-0.005139442160725594,0.000626708846539259,-0.0026715099811553955,-0.003871917724609375,0.0017348527908325195
-0.014029532670974731,0.00377299590036273,-0.015446765348315239,-0.003991261124610901,-0.00705718994140625,0.010401427745819092
-0.0002719750627875328,-0.0005271299742162228,-0.015624984167516232,0.001991868019104004,-0.015444397926330566,-0.007601797580718994
0.0031512309797108173,0.001252348767593503,-0.00030905415769666433,0.0038572996854782104,-0.004468023777008057,-0.0056282877922058105
0.00932694599032402,0.0024279302451759577,0.007240669336169958,-0.0034471750259399414,-0.00881648063659668,-0.012946069240570068
0.017033623531460762,-0.0010213046334683895,0.0025079362094402313,-0.005786716938018799,-1.5139579772949219e-05,-0.00994265079498291
0.01667957752943039,-0.020947717130184174,0.007141847163438797,0.004979312419891357,-0.003947257995605469,-0.01014167070388794
0.006867649499326944,-0.015046779066324234,7.213721983134747e-05,-0.0023532211780548096,-0.003130018711090088,0.005098223686218262
-0.0009838594123721123,0.008649811148643494,0.005522735882550478,0.003914088010787964,-0.0032318830490112305,-0.004445850849151611
0.007732221856713295,0.02269075997173786,0.0014312835410237312,-0.006361840292811394,0.0029433369636535645,-0.006863772869110107
0.0014638523571193218,0.005879361182451248,-0.0066052330657839775,-0.0029085110872983932,0.000592350959777832,-0.0012943148612976074
0.002362689934670925,-0.0004996992647647858,-0.0090573625639081,0.00022730231285095215,-0.0006308555603027344,0.0028619766235351562
-0.024938859045505524,-0.03060833364725113,-0.010242857038974762,0.009851783514022827,-0.008333802223205566,0.012569010257720947
-0.01546482089906931,-0.006828843150287867,-0.010859400033950806,-0.006082296371459961,0.0004998445510864258,-0.002194523811340332
0.004035377409309149,0.02270033396780491,0.0026724475901573896,0.009984031319618225,0.00023680925369262695,-0.016126275062561035
-0.009767120704054832,0.030290665104985237,-0.0020120050758123398,-0.007134079933166504,-0.0027774572372436523,-0.004744112491607666
-0.013289084658026695,0.019850250333547592,-0.0076490119099617004,0.0009596496820449829,-0.00312882661819458,-0.009375154972076416
0.004246898461133242,-0.009998833760619164,-0.009488293901085854,0.001144498586654663,-0.003801405429840088,-0.007781624794006348
0.011212818324565887,-0.0354907251894474,-0.005999006796628237,0.007439404726028442,-0.004942655563354492,-0.007529854774475098
-0.0009987959638237953,-0.02634364180266857,0.0086419228464365,0.0025375187397003174,-0.004114985466003418,-0.0016004443168640137
0.006330912932753563,0.01397404633462429,0.01763431541621685,-0.008051395416259766,-0.0030527114868164062,-0.0026980042457580566
-0.018218372017145157,0.029091086238622665,0.014769733883440495,0.0015538185834884644,-0.005106449127197266,-0.0029876232147216797
-0.014159628190100193,-0.007583628408610821,-0.0029981909319758415,0.0007065385580062866,-0.0006825923919677734,-0.009713292121887207
0.01851595938205719,-0.011122145690023899,-0.00518448743969202,0.0010433346033096313,-0.0026273727416992188,-0.009610891342163086
0.015828853473067284,-0.0026140455156564713,-0.005454567261040211,-0.004073962569236755,-0.0025838613510131836,0.00688481330871582
-0.002966339234262705,-0.006180050782859325,0.0004156848881393671,0.0037949401885271072,0.00020563602447509766,0.003653109073638916
0.00791189819574356,0.005248155444860458,0.0007615366484969854,0.009427117183804512,-0.0004845857620239258,-0.009403765201568604
0.00026833638548851013,0.004646764136850834,-0.007350359112024307,-0.0007061362266540527,-0.0024799704551696777,-0.007554411888122559
-0.0017735522706061602,0.0026351711712777615,-0.0038124239072203636,-0.0008360445499420166,-0.001799464225769043,-0.0001849532127380371
-0.0037758066318929195,-0.006310490425676107,-0.0032013729214668274,0.0019345581531524658,-0.01003408432006836,-0.0001150369644165039
0.00734697375446558,0.013797512277960777,0.007742163259536028,-0.0033067017793655396,-0.006042897701263428,-0.007406413555145264
-0.0001247231848537922,0.013029682449996471,0.021233322098851204,0.005660802125930786,-0.0023424625396728516,-0.01403796672821045
0.0053697992116212845,-0.014474480412900448,0.015063315629959106,-0.00146465003490448,-0.0011793971061706543,-0.01586735248565674
0.023353084921836853,-0.00684387655928731,0.0032628949265927076,-0.003071025013923645,-0.00109100341796875,-0.014865279197692871
0.02606307528913021,-0.014763444662094116,0.008355062454938889,0.0029057860374450684,0.002347886562347412,-0.0010164380073547363
0.019472233951091766,0.02291606366634369,0.016245650127530098,-0.0028382539749145508,-0.00316011905670166,0.004250466823577881
-0.0077583203092217445,0.012597428634762764,0.008567282930016518,-0.00517675094306469,-0.002277076244354248,0.01316756010055542
-0.0276201069355011,-0.012051217257976532,-0.011650172993540764,-0.003286197781562805,-0.003596663475036621,0.0052637457847595215
-0.005105700809508562,-0.01284586638212204,-0.033112917095422745,-0.010023221373558044,0.0018927454948425293,-0.016895830631256104
0.034455955028533936,-0.021407462656497955,-0.013601575046777725,0.007960127666592598,-0.0024068355560302734,-0.015253961086273193
-0.010332884266972542,0.028102127835154533,0.0025483963545411825,-0.004323840141296387,0.0023464560508728027,0.011080503463745117
-0.0181166622787714,0.032273441553115845,0.008905410766601562,-0.008227735757827759,0.0007710456848144531,-0.006054341793060303
-0.00735345296561718,0.0027382762636989355,-0.0036419848911464214,0.0008806437253952026,-0.00784313678741455,-0.01713705062866211
-0.002707746112719178,-0.025649622082710266,-0.016681542620062828,-0.0004811137914657593,-0.002029240131378174,-0.0031473636627197266
-0.026370732113718987,-0.02795698679983616,0.0013134365435689688,0.010319024324417114,-0.004496335983276367,0.007934212684631348
-0.030247915536165237,-0.007659372873604298,0.012244575656950474,-0.004088044166564941,0.0005061030387878418,0.00023245811462402344
-0.015893390402197838,-0.010615246370434761,0.022098498418927193,0.008625790476799011,-0.0036817193031311035,-0.013890624046325684
-0.018095046281814575,-6.145192310214043e-05,-0.0003755614161491394,-0.0048316121101379395,-0.008374810218811035,-0.011648774147033691
-0.03939187899231911,0.006066825240850449,2.3063039407134056e-05,0.003159552812576294,-0.006230056285858154,0.0021907687187194824
-0.013056058436632156,0.019251039251685143,0.012452526949346066,-0.0013044476509094238,-5.221366882324219e-05,-0.014655232429504395
0.011659985408186913,0.008950074203312397,0.014235923998057842,-0.0002178400754928589,-0.0029429197311401367,-0.014675498008728027
-0.0067317602224648,-0.0173807255923748,0.000991633627563715,0.003168269991874695,-0.006152510643005371,-0.004091978073120117
-0.015758855268359184,-0.031083855777978897,-0.004380307160317898,-0.0013287346810102463,-0.007088959217071533,-0.0005369782447814941
-0.004522801376879215,-0.030780000612139702,0.000974487978965044,-0.0011934172362089157,0.00029414892196655273,-0.012743115425109863
0.0024207280948758125,-0.0034557986073195934,0.00934584904462099,-0.0016556810587644577,0.003999531269073486,-0.008934617042541504
0.004609490279108286,-0.0051173497922718525,0.010844381526112556,0.005499811843037605,-0.0008097290992736816,-0.003935754299163818
-0.013484867289662361,0.0023953011259436607,-0.00549230957403779,0.0009736567735671997,-0.0030874013900756836,0.009096980094909668
-0.009055945090949535,0.011740574613213539,-0.011917851865291595,-0.0015286654233932495,0.0009965896606445312,0.004922389984130859
-0.0018438382539898157,0.006138082593679428,0.0018626749515533447,0.0073973387479782104,0.0047858357429504395,-0.006848037242889404
-0.015288807451725006,-0.0034327860921621323,0.017502887174487114,0.007714405655860901,0.003089606761932373,-0.0004628300666809082
-0.0192742720246315,0.010402154177427292,0.024030087515711784,0.007029443979263306,-0.004978358745574951,0.004345297813415527
-0.028229128569364548,-0.0013915281742811203,0.023352617397904396,0.00512637197971344,-0.006047248840332031,0.003438889980316162
-0.026728637516498566,-0.01481450255960226,0.006411166395992041,-0.005559338256716728,-0.006588399410247803,-0.009901225566864014
0.0041717784479260445,-0.003977451007813215,-0.0009825230808928609,-0.0053369104862213135,-0.005263149738311768,-0.03782153129577637
-0.0034436420537531376,-0.005124805960804224,0.009899492375552654,-0.004232004284858704,-0.0033104419708251953,-0.02059394121170044
0.00310027739033103,-0.009259363636374474,0.019457576796412468,-0.0041358619928359985,-0.004131674766540527,-0.015955209732055664
0.014599073678255081,0.010161934420466423,0.014343823306262493,-0.009031400084495544,-0.006107032299041748,0.004481136798858643
-0.0036157285794615746,0.006092531140893698,-0.01104062981903553,0.0009381920099258423,-0.00924009084701538,0.001662611961364746
0.014882659539580345,-0.021536730229854584,-0.00548534095287323,0.009705305099487305,-0.005743503570556641,-0.012736678123474121
0.028088757768273354,-0.004680517129600048,0.003401384921744466,-0.0014424771070480347,-0.0013940930366516113,-0.002714812755584717
0.019340410828590393,-0.011526252143085003,0.017752328887581825,-0.005700811743736267,0.00032842159271240234,-0.006422281265258789
0.011850690469145775,-0.024139875546097755,0.008685332722961903,-0.005122512578964233,-0.005749225616455078,-0.002263367176055908
0.0023017963394522667,-0.009933872148394585,-0.0020922354888170958,-0.00531361997127533,-0.003642737865447998,-0.012198209762573242
0.0063538397662341595,-0.0090279970318079,-0.009036547504365444,-0.004168212413787842,0.0017116665840148926,-0.015344381332397461
0.0015196227468550205,0.005315063521265984,-0.011703461408615112,-0.0011110752820968628,0.00011682510375976562,-0.0014109611511230469
-0.015740279108285904,0.0016237434465438128,0.0021397380623966455,0.0026590675115585327,0.0056702494621276855,0.008617281913757324
0.0075291781686246395,-0.0019067423418164253,0.009603057987987995,0.0024600327014923096,0.0008918046951293945,0.006403565406799316
-0.0075718993321061134,0.005761094391345978,0.005885479040443897,-0.002958133816719055,-0.0028333067893981934,0.007765769958496094
-0.01828879304230213,-0.005930949933826923,-0.012488845735788345,-0.0038314759731292725,-0.0025829076766967773,-0.0015337467193603516
-0.022006940096616745,0.0005511888302862644,-0.023587360978126526,0.0032248366624116898,-0.006456315517425537,-0.008902788162231445
-0.007831711322069168,-0.002079689409583807,-0.011830669827759266,0.0017494410276412964,-0.0006864070892333984,-0.012766242027282715
0.008431235328316689,0.02865716442465782,-0.0017956598894670606,-0.0032414644956588745,-0.005834460258483887,-0.0132942795753479
-0.008762219920754433,0.027950379997491837,-0.009051394648849964,-0.009408622980117798,-0.008884131908416748,-0.0015048384666442871
-0.013277610763907433,0.004498020280152559,-0.016378086060285568,-0.0019214879721403122,-0.009695231914520264,-0.011849522590637207
0.011370055377483368,-0.02087145484983921,-0.014203155413269997,0.006389424204826355,-0.008893787860870361,-0.013673901557922363
0.03581006079912186,0.007305345963686705,0.0021886462345719337,0.003532201051712036,-0.006327152252197266,-0.01492851972579956
0.003396530169993639,0.044021472334861755,0.011783265508711338,0.005011796951293945,-0.0062896013259887695,0.007817745208740234
0.012519876472651958,0.020112881436944008,0.00707167387008667,-0.0022887736558914185,-0.0005178451538085938,-0.0056642889976501465
0.02252066880464554,-0.016505839303135872,-0.000823244103230536,0.0027347207069396973,-0.0025767087936401367,-0.01334846019744873
0.014474615454673767,-0.027574535459280014,-0.012403127737343311,-0.0008267313241958618,-0.003910422325134277,-0.0066890716552734375
0.007257359568029642,-0.025860264897346497,-0.0041121989488601685,0.005073457956314087,0.0008091926574707031,-0.007315993309020996
-0.003501634579151869,0.004406813532114029,0.0034399705473333597,-0.011138930916786194,0.004620790481567383,-0.003825843334197998
-0.013414962217211723,0.027683421969413757,0.012648023664951324,0.002005249261856079,0.0021695494651794434,-0.0029458999633789062
0.012248566374182701,0.026752598583698273,-0.005044061690568924,-0.006337655708193779,-0.0007260441780090332,-0.00030094385147094727
0.004187933634966612,-0.015040230005979538,-0.015126331709325314,0.005654307082295418,-0.007510006427764893,0.009010016918182373
-0.005704978480935097,-0.01517573930323124,-0.018300406634807587,-0.005323886871337891,-0.00069427490234375,0.006568789482116699
-0.012521561235189438,-0.020225485786795616,0.01082992646843195,0.012547895312309265,-0.0014064311981201172,-0.009019136428833008
0.0029504522681236267,-0.015118518844246864,0.013582570478320122,-0.004020584747195244,0.004294753074645996,-0.016350150108337402
0.01257611345499754,-0.017030984163284302,-0.00904734805226326,-0.005232453346252441,0.00038570165634155273,-0.013177216053009033
0.008335694670677185,-0.01353696919977665,-0.01527466718107462,0.0023116469383239746,-0.0011948347091674805,-0.003967165946960449
-0.010269813239574432,-0.02744011953473091,-0.010784410871565342,0.0060102809220552444,-0.0026233792304992676,0.008931457996368408
-0.01897173747420311,-0.004001508932560682,0.003122205613180995,0.0035491585731506348,-0.0028089284896850586,0.004105806350708008
-0.025668587535619736,-0.0019897213205695152,0.0016309870406985283,-0.010053707286715508,-0.00032716989517211914,-0.005472660064697266
0.0022072279825806618,-0.01570110209286213,-0.005781888030469418,-0.008051857352256775,0.0023055076599121094,-0.004342198371887207
0.006476010661572218,-0.013769700191915035,-0.03439129889011383,0.0004976242780685425,-0.006927013397216797,-0.012383818626403809
-0.03147083893418312,-0.062130607664585114,-0.02271660417318344,0.010708093643188477,-0.00914907455444336,0.014730215072631836
-0.012370271608233452,-0.02210056781768799,-0.0005543824518099427,-0.008843526244163513,0.001032710075378418,0.0030811429023742676
-0.07866840064525604,-0.04267287999391556,0.01934736967086792,-8.04215669631958e-05,-0.0002853870391845703,0.010524511337280273
-0.054670482873916626,-0.032943300902843475,-0.011316820979118347,-0.025141224265098572,0.007315635681152344,-0.008154809474945068
-0.007667194120585918,-0.02552768588066101,-0.019797028973698616,0.01400446891784668,-0.010671854019165039,-0.03296983242034912
-0.0013908562250435352,-0.012076131999492645,-0.02296135202050209,0.0020812302827835083,-0.0004417896270751953,-0.014017105102539062
0.0037130462005734444,-0.0004193810746073723,-0.001413395395502448,0.004529522731900215,-0.0016717314720153809,-0.008826613426208496
-0.0071830544620752335,-0.024324283003807068,0.01206744834780693,0.00035059452056884766,-0.0057756900787353516,0.005649209022521973
-0.023677363991737366,-0.024819955229759216,0.013889413326978683,0.002531781792640686,-0.01122748851776123,-0.004415273666381836
-0.017906760796904564,-0.02213449403643608,-0.0012996107107028365,-0.004869833588600159,-0.009216368198394775,-0.003836691379547119
0.025341130793094635,-0.025872718542814255,0.005149936303496361,0.0019283443689346313,-0.0032573938369750977,-0.027823805809020996
0.025714773684740067,-0.010446358472108841,0.009769455529749393,-0.00035178661346435547,-0.0021352171897888184,-0.02343207597732544
0.007418701890856028,0.016828468069434166,0.011606431566178799,-0.003102002665400505,0.00336533784866333,-0.012879550457000732
0.0038020405918359756,0.018780019134283066,-0.0015280342195183039,-0.00036434829235076904,-0.0030936598777770996,-0.007500767707824707
0.01962852105498314,-0.014362122863531113,-0.011661897413432598,0.0019288808107376099,-0.0019322037696838379,0.0011677742004394531
0.004082897212356329,-0.02071734145283699,-0.006345467641949654,0.008714869618415833,-0.0030906200408935547,0.013608992099761963
-0.009947814047336578,-0.011496223509311676,-0.00016880757175385952,0.001538904383778572,0.0007036328315734863,0.009370267391204834
0.00011664675548672676,0.007781101856380701,0.009840006940066814,0.003500312566757202,0.0026214122772216797,-0.009250164031982422
-0.016927294433116913,0.024449914693832397,-0.004493684973567724,-0.011408209800720215,-0.002777576446533203,-0.0024431347846984863
-0.0022814185358583927,0.008056486025452614,-0.008024340495467186,-0.0025576800107955933,-0.0023967623710632324,-0.014617919921875
0.017222419381141663,0.00019939709454774857,-0.007368633057922125,-0.002320392057299614,-0.0025330781936645508,-0.012105166912078857
0.00690373545512557,0.015686742961406708,0.010289190337061882,0.005335211753845215,-0.006398260593414307,-0.003703892230987549
0.004146254155784845,0.01787256821990013,0.01699202135205269,0.0012241173535585403,-0.007553994655609131,0.001963675022125244
-0.005141162313520908,0.0014368947595357895,0.014300200156867504,-0.006930455565452576,-0.0006681680679321289,0.0014955997467041016
0.011261798441410065,0.0007604460697621107,0.005080631002783775,-0.013220012187957764,-0.0005502700805664062,-0.012798666954040527
0.002276050392538309,0.021988095715641975,-0.0008467277511954308,-0.002140253782272339,-0.002107560634613037,-0.0025440454483032227
-0.01827285811305046,0.02126355841755867,-0.00496283546090126,-0.0008493661880493164,-0.0034657716751098633,0.0038299560546875
-0.006462537217885256,0.01278400607407093,-0.0023149142507463694,0.004257604479789734,-0.000725865364074707,-0.008051872253417969
0.010398048907518387,-0.00973394513130188,-0.006249942351132631,-0.002974584698677063,0.002018749713897705,-0.014786839485168457
0.013480966910719872,-0.004111103713512421,-0.0001522953389212489,-0.002409026026725769,0.0014955997467041016,-0.0049659013748168945
-0.01723668724298477,0.04232923686504364,-0.014074623584747314,-0.010385781526565552,-0.005814790725708008,0.006024360656738281
-0.028187071904540062,0.02035924792289734,-0.015162717550992966,-0.0032639801502227783,-0.0014766454696655273,-0.0004469752311706543
0.009767809882760048,0.008806036785244942,-0.014685675501823425,-0.0009790211915969849,-0.004447877407073975,-0.015162825584411621
0.015707790851593018,-0.012047654017806053,-0.0007216070080175996,0.008577018976211548,-0.00339663028717041,-0.008770942687988281
0.001196315512061119,0.009696800261735916,0.00036551873199641705,-0.0019339770078659058,-0.0031835436820983887,0.0027620792388916016
0.005177030339837074,0.011433690786361694,0.001470685238018632,-0.0011558085680007935,-0.0038140416145324707,-0.007108747959136963
-0.01109219714999199,-0.010523985140025616,-0.009780664928257465,-0.006908401846885681,-0.0023249387741088867,-0.006557583808898926
-0.002650222275406122,-0.0396517738699913,-0.007993572391569614,-0.0005703102797269821,-0.005628824234008789,-0.010344207286834717
0.01884925551712513,-0.01599658839404583,0.00806416105479002,-0.0022358447313308716,0.0007004737854003906,-0.014730870723724365
0.00848165899515152,0.015340304933488369,0.010780875571072102,-0.003566531464457512,-0.0020095109939575195,-0.0026084184646606445
-0.01005023717880249,0.023027917370200157,-0.007623463869094849,-0.005426496267318726,-0.00304335355758667,0.005812644958496094
-0.012690029107034206,0.0025616043712943792,-0.026403330266475677,-0.0068759918212890625,-0.0036569833755493164,0.00803917646408081
-0.012502320110797882,-0.015775686129927635,-0.014402942731976509,-0.0008250176906585693,0.00014668703079223633,0.006693899631500244
-0.021837254986166954,-0.0025353403761982918,-0.002783274045214057,-0.0026426613330841064,-0.0021149516105651855,0.0021343231201171875
-0.01502641849219799,0.0012162195052951574,-0.0034449556842446327,0.010831551626324654,0.00044220685958862305,-0.016205310821533203
0.01606816239655018,0.0008296903688460588,-0.023093802854418755,-0.002269357442855835,-0.003323078155517578,-0.0309140682220459
0.018307549878954887,-0.03851737827062607,-0.02118755877017975,0.005387827754020691,-0.0025025606155395508,-0.009517669677734375
0.014351531863212585,0.009334078058600426,-0.006846853997558355,-0.0010516047477722168,-0.0030965805053710938,0.007600545883178711
-0.016534700989723206,-7.961457595229149e-05,0.006772573105990887,0.0010569393634796143,-0.001384139060974121,0.0034466981887817383
-0.016061875969171524,0.002594104502350092,0.005544185638427734,-0.0033072233200073242,0.0006676912307739258,-0.004319965839385986
0.014617759734392166,-0.006289411336183548,-0.008357750251889229,-0.002397865056991577,-0.0011993646621704102,-0.02214670181274414
-0.00463090231642127,-0.021140869706869125,-0.0066019645892083645,0.006012290716171265,0.0034680962562561035,-0.0007947683334350586
-0.011980962008237839,-0.002813296392560005,-0.00746249919757247,-0.0007941871881484985,0.00849372148513794,0.003870666027069092
-0.0007941308431327343,0.008599311113357544,-0.0027389281895011663,0.004682287573814392,0.008046090602874756,-0.0024727582931518555
-0.014613363891839981,0.013926954939961433,-0.010175296105444431,0.0030314773321151733,-0.0027227401733398438,0.0046272873878479
-0.049474120140075684,0.011734990403056145,-0.00583862978965044,0.006457924842834473,-0.0027176737785339355,0.010454297065734863
-0.03265441581606865,0.013689666986465454,-0.006613851059228182,-0.002897977828979492,0.00047969818115234375,-0.003265082836151123
0.004490626510232687,-0.0041740513406693935,-0.002869776450097561,0.0007750242948532104,-0.0035098791122436523,-0.023597538471221924
-0.017606889829039574,0.01220107264816761,-0.013036228716373444,-8.752942085266113e-05,-0.007368147373199463,-0.008056282997131348
-0.007645557634532452,0.005123862996697426,-0.013248605653643608,0.0022685378789901733,-0.009517073631286621,-0.01346290111541748
-0.003934198524802923,0.009836276061832905,0.0030761330854147673,0.0031305700540542603,-0.00745999813079834,-0.006923079490661621
0.006794812623411417,-0.0012333453632891178,0.010207496583461761,-0.006259366869926453,-0.007206439971923828,-0.0028836727142333984
0.014210673049092293,-0.008281614631414413,0.0024128612130880356,-0.0003997236490249634,-0.009013533592224121,-0.005643129348754883
0.009144408628344536,-0.017590846866369247,-0.006262550596147776,-0.0004445314407348633,-0.013063609600067139,-0.018124938011169434
-0.0013646907173097134,-0.011655690148472786,-0.011180809698998928,-0.0018616467714309692,-0.007233560085296631,-0.009915173053741455
-0.0021529418881982565,0.007098160684108734,0.00848305132240057,0.009466990828514099,0.0006201267242431641,-0.015955209732055664
0.02366558276116848,0.02040136605501175,0.013885033316910267,-0.009537041187286377,0.005011856555938721,-0.007221341133117676
0.01357744075357914,0.007343639619648457,0.011236832477152348,0.0006989259272813797,0.0009688138961791992,0.000722050666809082
-0.008107569999992847,-0.008924143388867378,-0.007126581855118275,-0.004530742764472961,-0.0005099177360534668,0.011287927627563477
-0.003843628568574786,-0.03632078319787979,-0.01410427875816822,0.004366740584373474,-0.0010093450546264648,0.00022292137145996094
0.0035402076318860054,0.0021768820006400347,-0.005777040962129831,0.0016635358333587646,0.0009483695030212402,0.0014833807945251465
-0.019733622670173645,0.00925051886588335,0.008104591630399227,0.00240209698677063,0.003297269344329834,0.007677137851715088
-0.004408306907862425,0.002074034186080098,0.0010630004107952118,-0.005342736840248108,0.0006636381149291992,-0.008044004440307617
-0.007424537092447281,-0.0047975280322134495,-0.006901133805513382,-0.0013964027166366577,-0.002241075038909912,-0.012959182262420654
-0.007496505975723267,0.0006346155423671007,-0.010098230093717575,0.003367707133293152,-0.0038143396377563477,-0.012850701808929443
-0.009040188044309616,0.009548628702759743,-0.012658931314945221,0.0006739795207977295,-0.008188486099243164,-0.0035868287086486816
-0.007453832775354385,0.0016747093759477139,0.009352074936032295,0.0028330236673355103,-0.0021837353706359863,-0.002512335777282715
0.01941486820578575,0.017804939299821854,0.02567397430539131,-0.0077533721923828125,-0.0036676526069641113,-0.018443167209625244
-0.018686490133404732,-0.0072459876537323,0.008313944563269615,-0.0028873085975646973,-0.002152085304260254,-0.0011019706726074219
-0.008984881453216076,-0.010048724710941315,-0.009476070292294025,0.001875089481472969,-0.007705867290496826,-0.013833820819854736
0.0017341184429824352,0.01183884497731924,-0.018186399713158607,-0.005020767450332642,-0.0025916099548339844,-0.0027271509170532227
-0.0047291964292526245,0.010432152077555656,0.001516174990683794,-0.002614036202430725,0.0023227334022521973,0.006349325180053711
-0.006252081133425236,0.016468193382024765,0.017823221161961555,-0.003481641411781311,-0.0009629726409912109,0.004777312278747559
0.005662302952259779,0.001744185108691454,0.006094609387218952,-0.0026502739638090134,0.0016631484031677246,-0.01391446590423584
0.04101896286010742,-0.011428076773881912,-0.01146174781024456,-0.0022358130663633347,-0.00226670503616333,-0.03451329469680786
0.010485420003533363,0.0016268894542008638,-0.027386484667658806,-0.00974436104297638,-0.000982522964477539,-0.0029584169387817383
-0.0037826383486390114,-0.00923825241625309,-0.004428598564118147,0.0006092209368944168,-0.004500269889831543,0.006920456886291504
0.0015628770925104618,0.038910578936338425,-0.000953735550865531,-0.013334719464182854,-0.0019331574440002441,0.004699766635894775
-0.009105857461690903,-0.007469708099961281,0.005377522204071283,0.004041820764541626,-0.0049092769622802734,-0.008464694023132324
0.005822692532092333,-0.016531001776456833,0.00492133991792798,0.0028150975704193115,-0.002747476100921631,-0.019283294677734375
0.010505260899662971,-0.01693975366652012,-0.004474678076803684,0.004098325967788696,-0.0033103227615356445,-0.01574122905731201
0.008527093566954136,-0.014035472646355629,-0.004033516626805067,-0.00027636997401714325,9.119510650634766e-06,-0.014815270900726318
0.010012909770011902,0.010805461555719376,-0.0036464412696659565,-0.0017939191311597824,-0.0003173947334289551,-0.005872189998626709
0.014072280377149582,0.028603199869394302,0.008382169529795647,0.0031819939613342285,-0.0014826655387878418,-0.002471446990966797
0.000924983061850071,0.008437760174274445,-0.0030483100563287735,0.0046326518058776855,-0.005173742771148682,0.012269914150238037
0.030619695782661438,-0.008968552574515343,-0.005182014778256416,0.0038332343101501465,-6.783008575439453e-05,-0.004363059997558594
0.017800813540816307,-9.502377361059189e-05,-0.007704600691795349,0.0006443727761507034,-0.003148794174194336,-0.00027823448181152344
-0.0012964033521711826,-0.001676761545240879,-0.009093230590224266,-0.00015747547149658203,0.0017780661582946777,0.0022965669631958008
-0.0025885242503136396,0.017503194510936737,-0.010075791738927364,-0.007434830069541931,0.0004590749740600586,-0.006306886672973633
0.01684032380580902,0.022325169295072556,-0.0006759945536032319,-0.0045252591371536255,-0.0014351606369018555,-0.01761096715927124
0.003512912429869175,0.013940030708909035,-0.0009100851602852345,-0.001470683142542839,-0.00565105676651001,-0.00028842687606811523
-0.0067946333438158035,-0.004718773998320103,-0.008649981580674648,0.002718912437558174,-0.011329293251037598,0.0036025643348693848
-0.016012588515877724,-0.014230646193027496,-0.01729632169008255,0.0003598928451538086,-0.005448520183563232,0.005213141441345215
-0.004375528544187546,-0.01728256605565548,0.005278688855469227,0.0016624480485916138,0.00044786930084228516,-0.014925062656402588
0.012129301205277443,0.015722990036010742,0.028232544660568237,0.0018637049943208694,-0.00010818243026733398,-0.019755661487579346
0.017512483522295952,0.014487449079751968,0.019018787890672684,0.0022701770067214966,-0.006890416145324707,-0.010804712772369385
0.013241039589047432,-0.008414937183260918,-0.005676170811057091,-0.003330931067466736,-0.009536504745483398,-0.004429996013641357
0.022142965346574783,-0.004111979156732559,-0.00378346536308527,0.005374118685722351,-0.00604015588760376,-0.0007905960083007812
-0.014909107238054276,0.022547222673892975,0.006283740513026714,0.00234849750995636,-0.004749417304992676,0.01129162311553955
-0.0037150601856410503,0.03689655289053917,0.008317512460052967,-0.002703040838241577,-0.0009100437164306641,0.0005196928977966309
0.01282096840441227,0.0005114199593663216,0.015149645507335663,0.004869269207119942,-0.0038437843322753906,-0.00997704267501831
0.010021764785051346,0.003361672628670931,-0.004041746724396944,-0.00647108256816864,-0.0026367902755737305,-0.01053088903427124
0.01654755137860775,0.0003657960332930088,0.0026920828968286514,0.005074935033917427,-0.0012004971504211426,-0.00784224271774292
0.015251215547323227,0.005948883481323719,0.0010210457257926464,0.0007042884826660156,-0.005746185779571533,-0.002068459987640381
-0.010648493655025959,9.32915136218071e-05,0.0034679339732974768,-0.0022787749767303467,-0.004915356636047363,0.008913576602935791
-0.004298538435250521,-0.015783105045557022,0.007516597397625446,-0.004159942269325256,-0.0015687346458435059,-0.009799063205718994
0.01772214099764824,-0.006424314342439175,0.004474437329918146,-0.0014033317565917969,-0.004757940769195557,-0.015895426273345947
-0.007665018551051617,-0.004488576669245958,0.000749403377994895,-0.004173263907432556,-0.004435300827026367,0.0030397772789001465
0.016495265066623688,-0.004846024326980114,0.004991169087588787,-0.0020391345024108887,-0.0012453794479370117,-0.0100250244140625
0.027156831696629524,0.0032498729415237904,0.010117651894688606,0.0008675772696733475,-0.004187524318695068,-0.006568968296051025
-0.01058182306587696,0.010126519948244095,0.002194241853430867,-0.0075388699769973755,0.00018703937530517578,0.009883403778076172
-0.013318421319127083,0.007956771180033684,6.375950761139393e-05,0.0031561125069856644,-0.005183756351470947,-0.005249440670013428
-0.005106410477310419,0.015886668115854263,-0.00549623416736722,0.006007015705108643,-0.00197446346282959,-0.005564987659454346
0.012583769857883453,-0.019498765468597412,-0.0009510029340162873,0.0028957296162843704,0.0004056692123413086,-0.0026643872261047363
0.015062907710671425,-0.004970155656337738,0.0016927169635891914,0.0002110600471496582,-0.004331052303314209,-4.684925079345703e-05
-0.006398768164217472,-0.002627825830131769,0.00416905153542757,-0.001557542011141777,-0.009462177753448486,-0.006134390830993652
-0.00404711440205574,-0.005678210873156786,0.003135062986984849,-0.0011963099241256714,-0.006309628486633301,-0.013550817966461182
0.03280987963080406,-0.008434619754552841,0.005512104369699955,0.0005794763565063477,-0.005580604076385498,-0.03421741724014282
0.021227259188890457,-0.016820646822452545,0.012391315773129463,-3.714859485626221e-05,-0.00332486629486084,-0.015244126319885254
0.015929143875837326,0.007814032025635242,-0.003426498733460903,-0.004820585250854492,-0.0061269402503967285,-0.008918702602386475
0.03742622584104538,0.007730588316917419,-0.003264636266976595,-0.00043927133083343506,-0.005802512168884277,-0.015369296073913574
0.051993317902088165,0.005888359155505896,0.00339503469876945,-0.0011949390172958374,-0.0025910139083862305,-0.0032584071159362793
0.040999721735715866,0.00016076955944299698,0.011325348168611526,-0.0006154011934995651,-0.000707089900970459,-0.0034677982330322266
0.023758217692375183,0.009378165006637573,0.0019489380065351725,-0.0012158304452896118,-0.0037364959716796875,0.01014477014541626
-0.0007923515513539314,-0.013477737084031105,-0.010865694843232632,0.0018632709980010986,-0.005740761756896973,0.013637542724609375
0.033862363547086716,0.00038260500878095627,-0.00651545962318778,-0.0006453543901443481,-0.002716243267059326,-0.0055484771728515625
0.010383134707808495,0.009569978341460228,-0.00304429535754025,-0.003963276743888855,-0.0018143653869628906,0.007534205913543701
-0.02826310507953167,0.018977990373969078,-0.001976247178390622,-0.0025479942560195923,-0.004966914653778076,0.010125219821929932
-0.016161812469363213,0.020642932504415512,0.0017040478996932507,0.0013803988695144653,-0.003943800926208496,-0.00627976655960083
0.013147851452231407,0.004383211489766836,0.002382453763857484,-0.002377733588218689,-0.004494309425354004,-0.009532809257507324
0.038930777460336685,0.006878522224724293,-0.0040663438849151134,-0.003266260027885437,-0.005211830139160156,-0.01970517635345459
0.021408822387456894,0.007605168968439102,-0.01274890173226595,-0.001004531979560852,-0.007391214370727539,-0.016107618808746338
0.013173062354326248,0.010931652039289474,-0.006350077223032713,-0.000592648983001709,-0.009438157081604004,-0.013170838356018066
0.005392103921622038,-0.0052787428721785545,0.007394496817141771,0.0026055146008729935,-0.00344008207321167,-0.0037960410118103027
0.03314867615699768,-0.01325506716966629,0.00012893439270555973,-0.0032071173191070557,-0.00281447172164917,-0.002380847930908203
0.029506031423807144,-0.01745370589196682,-0.007771812379360199,-0.0001372694969177246,-0.005317330360412598,0.006628870964050293
0.005505842622369528,0.01808043196797371,-0.007952332496643066,0.0015864372253417969,-0.003183722496032715,0.006548285484313965
-0.01708916760981083,0.0213533453643322,-0.01060648076236248,-0.0009991955012083054,0.00015014410018920898,0.00494760274887085
0.01177312433719635,-0.013217420317232609,0.004709918983280659,0.0045053064823150635,0.003920853137969971,-0.013070821762084961
0.02876034379005432,-0.009424825198948383,0.004313001409173012,-0.0005605369806289673,0.004221498966217041,-0.006489872932434082
0.00893162190914154,-0.004085655324161053,-0.0016477587632834911,0.004042642191052437,-0.0029526352882385254,-0.0010848641395568848
-0.014888843521475792,0.003242046805098653,-0.007423038594424725,0.0038013756275177,-0.0054433345794677734,0.007964372634887695
-0.0057233101688325405,-0.001638219691812992,0.0014675837010145187,0.006841197609901428,-0.0017413496971130371,0.009036898612976074
0.006997281219810247,-0.009379206225275993,0.00962784979492426,-0.0017700772732496262,0.0018380284309387207,0.0028960108757019043
-0.00029877759516239166,0.03141649812459946,0.013355252332985401,-0.002104327082633972,-0.0027616024017333984,-0.0032843351364135742
-0.025866549462080002,0.01637841947376728,-0.0148855559527874,-0.006402850151062012,-0.0063735246658325195,0.0017853975296020508
-0.004299713298678398,0.0016011456027626991,-0.009618639945983887,0.011334404349327087,-0.00917130708694458,-0.013136744499206543
-0.000904562883079052,-0.004933532793074846,-0.0033708717674016953,-0.0031588226556777954,0.0013352632522583008,-0.00945514440536499
0.017382122576236725,0.003218942554667592,0.012362577021121979,-0.0018150489777326584,-0.00016230344772338867,-0.01545405387878418
-0.017550673335790634,0.01874537207186222,0.0035830067936331034,-0.00024168193340301514,-0.007206082344055176,0.006626009941101074
-0.02590811811387539,-0.011427494697272778,-0.004343477077782154,0.011115878820419312,-0.0066762566566467285,0.004781901836395264
0.03371766209602356,-0.00037244614213705063,-0.008599741384387016,0.0006256103515625,-0.005674839019775391,-0.02245950698852539
0.030688272789120674,0.009667569771409035,0.002397171687334776,0.00467255711555481,-0.00033676624298095703,-0.0034347176551818848
-0.0025376968551427126,0.02782202884554863,0.008946656249463558,-0.0032571256160736084,-0.009093284606933594,0.004991590976715088
-0.02881910838186741,0.009940745308995247,0.009276987984776497,-0.0006145238876342773,-0.009555459022521973,0.0006481409072875977
-0.011120937764644623,0.0022874700371176004,-0.002044809516519308,-0.0010068397969007492,-0.010214924812316895,-0.016755878925323486
0.020735418424010277,0.00323338876478374,-0.0017250857781618834,-0.0008165985345840454,-0.005115032196044922,-0.02120506763458252
0.03497942164540291,0.01649618148803711,0.01257683802396059,0.0075435638427734375,-0.006194591522216797,-0.013861536979675293
-0.00675068236887455,0.01201629638671875,0.008276786655187607,-0.0020478516817092896,-0.008319437503814697,0.007881999015808105
0.018529877066612244,0.01421172171831131,0.003125812392681837,-0.0076539963483810425,-0.00647425651550293,-0.009259939193725586
0.04106392711400986,-0.003406742587685585,0.007650886662304401,-0.0012542903423309326,-0.006039679050445557,-0.012098550796508789
0.019216397777199745,0.011066680774092674,0.005979851819574833,-0.006035163998603821,-0.006643176078796387,-0.0026320219039916992
0.010852203704416752,0.013550853356719017,0.009275705553591251,0.000497894361615181,-0.007014751434326172,0.0002955794334411621
0.016469411551952362,0.015589987859129906,0.006930114701390266,-0.00017967820167541504,-0.006343424320220947,-0.005044221878051758
0.017992917448282242,0.004730692133307457,0.00609180610626936,-0.0037065446376800537,-0.002969801425933838,-0.007952451705932617
0.03283311426639557,-0.01051435898989439,-0.00020032550673931837,-0.005503147840499878,-0.004803657531738281,-0.010164022445678711
0.02306794747710228,0.013309846632182598,-0.0071344031020998955,-0.00589461624622345,-0.0012308955192565918,0.00290071964263916
-0.015374223701655865,0.009443823248147964,-0.017769142985343933,-0.0015890300273895264,-0.004411160945892334,0.005940794944763184
-0.00793157983571291,-0.014113448560237885,-0.0041517107747495174,0.005781352519989014,0.003164052963256836,0.005558907985687256
0.032618198543787,0.000416354276239872,0.007821183651685715,0.005528777837753296,-0.0034578442573547363,-0.010394692420959473
0.02363509126007557,0.011225342750549316,0.011610408313572407,0.007668646052479744,-0.0009443759918212891,0.0017712712287902832
-0.021542618051171303,0.006637167651206255,-0.0049917446449398994,0.00043660402297973633,-0.005628705024719238,0.0016565918922424316
-0.009462829679250717,0.012083480134606361,-0.0148838572204113,0.0034579336643218994,-0.004229903221130371,-0.017967164516448975
0.021137798205018044,0.0069393254816532135,-0.013035040348768234,-0.0034084320068359375,-0.0004565119743347168,-0.02453094720840454
0.04164993762969971,0.024875575676560402,0.004492384847253561,0.004352644085884094,-0.000890195369720459,-0.013279318809509277
0.027820982038974762,0.02399846352636814,-0.0007536285556852818,-0.0014514010399580002,-0.007199466228485107,0.0009489655494689941
0.017515258863568306,-0.014505520462989807,-0.007098904810845852,-0.0008936971426010132,-0.00689166784286499,0.01045924425125122
0.026765063405036926,-0.031479109078645706,-0.006260348483920097,-0.004644244909286499,-0.00740206241607666,-0.007694602012634277
0.009405309334397316,-0.018417999148368835,-0.007514991797506809,-0.00551043264567852,-0.0013501644134521484,0.0010061860084533691
0.013914819806814194,0.011541992425918579,-0.012194523587822914,-0.008418262004852295,-0.003842592239379883,-0.006393015384674072
0.015217880718410015,0.010244620032608509,-0.01738833449780941,-0.001327304169535637,-0.0033833980560302734,0.007154524326324463
0.004789829719811678,0.007552220951765776,-0.0063044410198926926,0.004502760246396065,-0.00403672456741333,0.004717886447906494
-0.0053979805670678616,-0.0026872800663113594,0.0005433482583612204,0.003331094980239868,-0.0024379491806030273,-0.0027583837509155273
0.019633935764431953,-0.012492842972278595,0.0046398695558309555,8.417665958404541e-05,-0.0030018091201782227,-0.010166943073272705
0.028067102655768394,-0.022783830761909485,0.001927439821884036,0.003661423921585083,-0.004388034343719482,-0.007135331630706787
0.008487695828080177,-0.013970987871289253,-0.0013921910431236029,0.0041612982749938965,-0.004989743232727051,0.0022722482681274414
-0.0016769689973443747,-0.02518901228904724,0.005720336455851793,0.0006180703639984131,0.0005388855934143066,0.0004793405532836914
-0.004158768802881241,-0.003916214220225811,0.0006603305228054523,-0.005590587854385376,-0.004744052886962891,0.006320655345916748
-0.027736907824873924,0.007077003363519907,-0.007850981317460537,0.00014674849808216095,-0.004240095615386963,0.020012080669403076
-0.00610462948679924,0.015092428773641586,-0.011986561119556427,0.002485036849975586,-0.0022460222244262695,-0.00910717248916626
-0.004225657321512699,0.006175453774631023,-0.014595124870538712,0.005789520218968391,0.0013182759284973145,-0.015172183513641357
-0.004048957023769617,-0.003662672359496355,-0.0085736233741045,-3.555417060852051e-05,0.0013509392738342285,-0.010294973850250244
0.015916142612695694,-0.0015576984733343124,-0.004939154721796513,-0.0028739552944898605,-0.003387451171875,-0.006696045398712158
0.0013340902514755726,-0.017539339140057564,-0.011297770775854588,-0.0021743029356002808,-0.004474520683288574,0.007880151271820068
-0.009317178279161453,-0.0026300279423594475,-0.009702391922473907,0.0021851807832717896,-0.008543074131011963,0.0026894211769104004
-0.02811652049422264,0.012313511222600937,0.0032017433550208807,0.0027220547199249268,-0.005519390106201172,-0.004875898361206055
-0.014741484075784683,0.007016228046268225,0.010743064805865288,0.0009748190641403198,-0.001360476016998291,-0.013705730438232422
0.012202652171254158,0.003951643127948046,0.014430713839828968,0.004561081528663635,-0.003189563751220703,-0.018952488899230957
0.009625397622585297,0.012746108695864677,-0.0045139482244849205,-3.032386302947998e-05,-0.00545501708984375,-0.004892706871032715
-0.013556908816099167,0.0231558196246624,-0.014639190398156643,0.003070145845413208,-0.008796334266662598,0.0079803466796875
0.012126615270972252,0.014089051634073257,0.002358101774007082,0.007069127634167671,-0.0048555731773376465,-0.001830756664276123
0.010155856609344482,0.013919120654463768,0.009408718906342983,-0.0007862746715545654,-0.0030300021171569824,-0.0002506375312805176
-0.0014962039422243834,0.011965902522206306,0.005576025228947401,-0.001792624592781067,-0.0032911300659179688,-0.005134522914886475
-0.006495489738881588,0.01337418146431446,-0.005302188917994499,-0.0032495111227035522,-0.006847023963928223,-0.011709451675415039
0.0036558574065566063,0.0027915756218135357,-0.018895523622632027,-0.006727933883666992,-0.005313515663146973,-0.012864351272583008
0.02237512916326523,-0.008119657635688782,-0.0076268333941698074,-0.002746284008026123,-0.002825796604156494,-0.014788925647735596
0.017444059252738953,0.004674803465604782,-0.000771602033637464,-0.004680737853050232,-0.007019698619842529,0.0011615157127380371
0.0002762395888566971,0.020729366689920425,-0.002046281937509775,-0.007823735475540161,-0.008297741413116455,0.004494130611419678
-0.007654545363038778,0.0009394271764904261,-0.006493446882814169,-0.003944605588912964,-0.00508195161819458,-0.004371464252471924
0.00426030857488513,-0.005370210390537977,-0.007713652215898037,0.0011205673217773438,-0.0046500563621521,-0.011722862720489502
0.011844704858958721,-3.8629863411188126e-05,0.003411009442061186,0.0038061290979385376,-0.003592550754547119,-0.0030782222747802734
0.0012163338251411915,0.004798319656401873,0.00039948616176843643,-0.004632055759429932,7.736682891845703e-05,0.006743669509887695
0.0031573139131069183,-0.007554273121058941,0.01177503727376461,0.005746752023696899,0.0003978610038757324,-0.005929827690124512
0.004178900737315416,-0.012434270232915878,0.006999113596975803,-0.005495011806488037,-0.0003994107246398926,-0.00017368793487548828
-0.005648916121572256,-0.02613554522395134,0.001567287603393197,0.007578611373901367,0.0001322627067565918,-4.929304122924805e-05
-0.0014976488891988993,-0.003327646292746067,-0.011396308429539204,-0.003419429063796997,-0.001286625862121582,-0.0012794733047485352
-0.010316595435142517,0.0043481807224452496,-0.01627742126584053,0.0017134547233581543,-0.0021529197692871094,-0.005620002746582031
0.0046924022026360035,0.01334819570183754,-0.015418964438140392,-0.003874346613883972,0.00015419721603393555,-0.012611746788024902
-0.010133236646652222,0.0055944169871509075,-0.0058464473113417625,-0.0008797328919172287,-0.005341708660125732,0.010709881782531738
-0.020780175924301147,0.0021957559511065483,-0.005356232635676861,0.0031742919236421585,-0.008567214012145996,0.013310372829437256
-0.011872503906488419,0.0083738062530756,-0.01022727694362402,0.0032629072666168213,-0.008336365222930908,-0.0010588765144348145
0.010111868381500244,-0.01776118017733097,0.0015759498346596956,0.0037400424480438232,-0.00423198938369751,-0.02010369300842285
-0.001983232330530882,0.018610134720802307,0.011064236052334309,-0.0026404093950986862,0.0010834932327270508,-0.013125717639923096
-0.018860680982470512,-0.011379772797226906,0.01429344154894352,0.004302501678466797,-0.002173185348510742,-0.007629275321960449
0.011736040934920311,-0.019388645887374878,0.00682794488966465,0.001957505941390991,-0.002877354621887207,-0.008428335189819336
0.0037407460622489452,-0.002966908272355795,-0.0005368023412302136,-0.003362804651260376,-0.004070401191711426,0.007657289505004883
-0.033734280616045,0.008219962008297443,0.0037426038179546595,-0.001778826117515564,-0.003140747547149658,0.025235652923583984
-0.033499058336019516,0.010537374764680862,0.004921365529298782,-0.0035696327686309814,-0.0007803440093994141,-0.0010776519775390625
-0.0036977077834308147,-0.010952601209282875,0.00978710688650608,0.010177060961723328,0.002401113510131836,-0.01546168327331543
0.010113311931490898,-0.006547876168042421,-0.009557734243571758,-0.003924340009689331,-0.0032332539558410645,-0.013507843017578125
-0.01092122308909893,0.006854206323623657,-0.0007584079867228866,0.005108103156089783,0.0005546212196350098,-0.001975536346435547
-0.016922101378440857,0.011983003467321396,0.003366804914548993,-0.003396660089492798,-0.003471195697784424,0.0012526512145996094
-0.014772729948163033,-0.011796290054917336,0.006671740673482418,-0.0009360741823911667,-0.00504457950592041,0.0024905800819396973
