rotation_x,rotation_y,rotation_z,acceleration_x,acceleration_y,acceleration_z
-0.11589537560939789,-0.34622398018836975,-0.11809390783309937,-0.003018304705619812,-0.00550156831741333,0.08848291635513306
-0.3258686363697052,-0.3952663242816925,-0.136027991771698,-0.027275189757347107,-0.0018674135208129883,0.04723954200744629
-0.20655414462089539,-0.1897466480731964,-0.1326063722372055,-0.022835955023765564,0.0031265616416931152,-0.035881757736206055
-0.11610279977321625,-0.19278575479984283,-0.09604572504758835,0.003178894519805908,0.011224627494812012,0.013705253601074219
-0.19894705712795258,-0.36577358841896057,-0.053460534662008286,0.004106476902961731,-0.006843864917755127,0.04210108518600464
-0.1976330727338791,-0.3026764690876007,-0.12185284495353699,-0.015741169452667236,-0.004584133625030518,-0.017884910106658936
-0.11957947164773941,-0.22295424342155457,-0.15043573081493378,-0.008827820420265198,0.0025340914726257324,-0.03480851650238037
-0.08287656307220459,-0.24279016256332397,-0.11461015790700912,0.010099001228809357,0.005750298500061035,-0.018948614597320557
-0.06868432462215424,-0.17315888404846191,-0.09874456375837326,0.005293138325214386,-0.0036020874977111816,-0.01637136936187744
-0.07952035218477249,-0.16037744283676147,-0.0908462256193161,0.005844175815582275,0.005395114421844482,-0.007304370403289795
-0.050190519541502,-0.12981745600700378,-0.05902011692523956,0.004189006984233856,-0.002351999282836914,-0.013332605361938477
-0.040558911859989166,-0.08197009563446045,-0.05263977870345116,-0.0030076727271080017,0.00022023916244506836,-0.007528781890869141
-0.05081874877214432,-0.10149703174829483,-0.03892713040113449,0.00028380751609802246,-0.003863394260406494,-0.007504105567932129
-0.00947384163737297,-0.05159436911344528,-0.035036634653806686,-0.004770956933498383,-0.00018531084060668945,-0.013565361499786377
-0.010063041932880878,-0.019627368077635765,-0.0284109003841877,-0.006705716252326965,-0.0016364455223083496,-0.0062337517738342285
-0.011918328702449799,-0.013260633684694767,-0.025789164006710052,-0.0020102709531784058,0.0017301440238952637,0.0001977086067199707
-0.017266714945435524,-0.007145719137042761,-0.027958426624536514,0.00019073672592639923,0.0012257099151611328,0.005342304706573486
-0.03074824810028076,-0.04559357091784477,-0.01486555952578783,0.006763674318790436,0.003620624542236328,0.0032329559326171875
-0.009523683227598667,-0.007723614107817411,-0.012452647089958191,-0.0027267634868621826,0.0056171417236328125,-0.012563943862915039
-0.014460690319538116,-0.003865255042910576,0.014006508514285088,0.005611248314380646,0.007669270038604736,0.0036128759384155273
-0.02710459940135479,-0.018836310133337975,0.036708418279886246,-0.003914050757884979,0.001737833023071289,0.001865088939666748
-0.0020998374093323946,0.0007831534021534026,0.0017131774220615625,-0.015370190143585205,-0.0013833045959472656,-6.115436553955078e-05
-0.025402938947081566,-0.01877387799322605,0.001248460728675127,-0.0031788181513547897,-0.004911243915557861,0.01028454303741455
-0.02900928445160389,0.006103392690420151,-7.06682913005352e-05,0.0005440115928649902,-0.003174304962158203,0.010036587715148926
-0.039511922746896744,-0.04321945831179619,-0.00464565260335803,-0.0011496767401695251,-0.009068310260772705,0.0031585693359375
-0.007355968002229929,-0.034625690430402756,-0.006935078650712967,0.00649503618478775,0.0044585466384887695,-0.018028676509857178
0.0010732905939221382,-0.024262743070721626,0.03763691335916519,0.011366784572601318,0.005187332630157471,-0.012072205543518066
0.002174222841858864,0.009059964679181576,0.04101119935512543,-0.006375350058078766,0.0066419243812561035,-0.005574703216552734
-3.334064967930317e-05,0.01884046569466591,0.017079178243875504,-0.007411837577819824,-0.002091526985168457,0.00299757719039917
-0.009816364385187626,0.028418144211173058,-0.0015576547011733055,-0.0008869022130966187,-0.002408266067504883,0.01058971881866455
-0.03471476212143898,0.008025451563298702,0.02788696438074112,0.008922174572944641,0.0031507015228271484,0.018210887908935547
-0.028313176706433296,-0.03036116622388363,0.008157016709446907,-0.005189552903175354,-0.002970755100250244,0.008242487907409668
-0.01218500081449747,-0.02270158939063549,-0.009286087937653065,-0.0027547627687454224,-0.0020598769187927246,-0.004377126693725586
-0.026858869940042496,-0.029877036809921265,-0.00508592976257205,8.937902748584747e-05,0.0062049031257629395,0.0015181899070739746
-0.0454922616481781,-0.012595640495419502,0.04429906979203224,0.00808890163898468,0.001980900764465332,-0.0013092756271362305
-0.036476410925388336,0.0009046207997016609,0.014286376535892487,-0.006901515647768974,-0.0015447735786437988,-0.004925549030303955
-0.017178893089294434,-0.0020770456176251173,-0.010487647727131844,0.0008673295378684998,-0.004406392574310303,-0.011605978012084961
-0.0165732279419899,0.005345039069652557,0.01466519944369793,0.005441427230834961,0.00013744831085205078,-0.007122635841369629
-0.009732919745147228,-0.022431131452322006,0.04244095832109451,-9.457767009735107e-05,-0.0024994611740112305,-0.014890193939208984
0.023171303793787956,0.029471438378095627,0.02548387460410595,-0.015787474811077118,-0.006174325942993164,-0.020184218883514404
0.016433801501989365,0.03655244782567024,0.001293493201956153,-0.013830689713358879,-0.00628429651260376,0.0003884434700012207
0.02361493743956089,0.029172608628869057,-0.01451052911579609,-0.010306186974048615,-0.002984762191772461,0.005948483943939209
0.006520953960716724,0.007898768410086632,-0.024865848943591118,-0.0054501742124557495,-0.0024628043174743652,0.017267942428588867
-0.00628240080550313,0.029702728614211082,-0.022292351350188255,0.001713000237941742,0.001823723316192627,0.01274961233139038
-0.005033356137573719,-0.03813657537102699,-0.007551807910203934,0.004218362271785736,0.00510251522064209,0.005971193313598633
0.016846632584929466,-0.02206476405262947,-0.006240705493837595,0.0029190778732299805,0.006926119327545166,-0.018987059593200684
0.018596436828374863,0.043406642973423004,0.009426346980035305,-0.0014528557658195496,0.01013791561126709,-0.018487155437469482
0.027075467631220818,0.037517450749874115,0.022446095943450928,-0.002008885145187378,0.005265772342681885,-0.0060994625091552734
0.022368410602211952,0.035070598125457764,-0.00467656971886754,-0.0043908581137657166,0.00020760297775268555,0.013034164905548096
-0.018744200468063354,0.013271334581077099,-0.01488349586725235,-0.0013719499111175537,-0.004609525203704834,0.02048557996749878
-0.010383449494838715,0.011639809235930443,-0.02663102000951767,-0.002789512276649475,-0.0034680962562561035,-0.0004993677139282227
-0.0025286474265158176,0.03342442587018013,-0.013843828812241554,0.011002622544765472,-0.0023756027221679688,0.0020433664321899414
-0.018522335216403008,-0.006210825871676207,0.029012802988290787,0.020961575210094452,0.00040727853775024414,0.00998067855834961
0.008060341700911522,-0.02980727329850197,0.04348474368453026,-0.002258492633700371,-0.005988359451293945,-0.017457962036132812
0.0294493418186903,0.025396382436156273,0.023732075467705727,-0.008224986493587494,-0.0021581649780273438,-0.022305309772491455
0.02171909250319004,0.04773656278848648,0.050589997321367264,-0.007397890090942383,-2.7060508728027344e-05,-0.0022490620613098145
0.021318454295396805,0.0593336783349514,0.005134130362421274,-0.011948280036449432,-0.008658766746520996,0.010856032371520996
-0.007991153746843338,0.0003926568606402725,-0.002600192092359066,0.008193418383598328,-0.0037623047828674316,0.02534109354019165
-0.0012116325087845325,-0.0029212762601673603,0.034066472202539444,0.015281826257705688,0.003798365592956543,0.011234283447265625
-0.02451629564166069,-0.015502497553825378,0.0438566654920578,0.00575043261051178,-0.000118255615234375,0.0014006495475769043
0.014176152646541595,0.03001832589507103,0.05067196488380432,0.008196929469704628,0.00016045570373535156,-0.020886600017547607
0.014091325923800468,0.020200666040182114,0.07246555387973785,0.008253946900367737,-0.0010301470756530762,-0.0025787949562072754
0.025238795205950737,0.013639270327985287,0.06579457968473434,-0.0006668642163276672,-0.006619811058044434,-0.0130196213722229
0.047560323029756546,0.018048735335469246,0.06590568274259567,-0.007055923342704773,-0.0021579861640930176,-0.015309691429138184
0.04749531298875809,0.023924004286527634,0.07501432299613953,-0.002745680510997772,0.001739501953125,0.0021077990531921387
0.023998167365789413,-0.02182719297707081,0.0815422311425209,-0.0038247089833021164,0.005202054977416992,0.01831752061843872
0.019415980204939842,-0.007916413247585297,0.04801022261381149,-0.01369539462029934,0.002110302448272705,0.0037410855293273926
-0.0013665708247572184,0.02542031928896904,0.043203338980674744,-0.0034013092517852783,0.00902622938156128,0.022326529026031494
-0.03602132573723793,-0.04177895188331604,0.06538006663322449,0.005424037575721741,-0.0033729076385498047,0.007983744144439697
0.019809607416391373,-0.0037798925768584013,0.042172279208898544,-0.006157999858260155,-0.003931522369384766,-0.025732457637786865
0.0418272390961647,0.0007719640852883458,0.054391540586948395,-0.002343788743019104,0.0014482736587524414,-0.006562709808349609
0.017324863001704216,0.014945341274142265,0.04250813275575638,-0.007707960903644562,-0.008476316928863525,-0.0032625794410705566
0.03087558224797249,0.010787967592477798,0.005421958863735199,-0.006936240941286087,-0.006603896617889404,-0.005099952220916748
0.043170638382434845,-0.0024817329831421375,0.012144723907113075,-0.0003578290343284607,0.006592810153961182,0.004180014133453369
0.016028884798288345,0.01467246375977993,0.010894814506173134,0.0020506680011749268,0.004467427730560303,0.006346285343170166
0.011551029980182648,0.009626856073737144,0.017488297075033188,0.0038595348596572876,0.004577517509460449,0.00021088123321533203
0.029065629467368126,-0.009391296654939651,0.021016038954257965,-0.0029081739485263824,0.003487110137939453,-0.004613518714904785
0.03069670870900154,0.03251514956355095,0.004257624037563801,-0.006003078073263168,0.0020053982734680176,-0.0010521411895751953
0.0018636076711118221,-0.012544712983071804,0.03688063845038414,0.0068884193897247314,0.004459083080291748,0.024993956089019775
-0.002936186268925667,-0.026800522580742836,0.013830653391778469,-0.017711184918880463,-0.003967761993408203,0.0024899840354919434
-0.006658812519162893,0.01901557855308056,-0.03251828998327255,-0.009096339344978333,-0.004354536533355713,0.006700336933135986
-0.02572174184024334,-0.03607306256890297,0.0008192169480025768,0.006692878901958466,-0.0008183121681213379,0.011769592761993408
0.0033826364669948816,-0.06035487726330757,0.023492246866226196,0.005859799683094025,5.9545040130615234e-05,-0.01127481460571289
0.024342473596334457,-0.014471306465566158,0.01388447917997837,-0.00941762700676918,0.0016241669654846191,-0.021046817302703857
0.018914340063929558,-0.002666902495548129,0.013034631498157978,-0.002901025116443634,-0.005471169948577881,-0.014857292175292969
0.06336022168397903,-0.027783352881669998,-0.004367613699287176,-0.012193530797958374,0.002785921096801758,-0.01889437437057495
0.023998916149139404,0.036107879132032394,-0.021045781672000885,-0.004885032773017883,0.00266343355178833,0.010165929794311523
-0.001843276433646679,0.010992802679538727,0.008132698014378548,0.009291872382164001,0.005083739757537842,0.027442336082458496
0.017099156975746155,-0.048165902495384216,-0.008472077548503876,-0.011017978191375732,-0.0007531642913818359,0.018735945224761963
-0.007200499530881643,-0.021793903782963753,-0.06513029336929321,-0.01620231568813324,-0.001514732837677002,0.016381025314331055
-0.01643449440598488,0.020893661305308342,-0.0601767897605896,0.008318185806274414,-7.849931716918945e-05,0.01026010513305664
-0.035336658358573914,0.002543312730267644,-0.019007425755262375,0.022254347801208496,0.0014850497245788574,0.012630641460418701
-0.013223200105130672,-0.02392306923866272,-0.024957429617643356,0.006639406085014343,-0.0015541911125183105,-0.011844515800476074
0.018280373886227608,0.023491766303777695,-0.03963112086057663,-0.00035697221755981445,-0.0018422603607177734,-0.02413886785507202
0.0021815411746501923,0.03436833247542381,0.005611013155430555,0.006678082048892975,0.004079043865203857,-0.0011858940124511719
0.008706778287887573,0.026305852457880974,0.014142833650112152,-0.0075033605098724365,-0.006991267204284668,0.0034633874893188477
0.015851153060793877,0.0019384054467082024,-0.017949853092432022,-0.013317801058292389,-0.009649813175201416,0.017509937286376953
-0.010540330782532692,-0.039366740733385086,-0.02027878910303116,-0.005075030028820038,-0.012660562992095947,0.01755303144454956
0.0014151918003335595,-0.030198419466614723,-0.03271779045462608,-0.007197670638561249,-0.00579833984375,-0.011781513690948486
0.01365048997104168,0.004334298428148031,-0.020855635404586792,0.0034918561577796936,0.0026553869247436523,-0.006100654602050781
-0.010529223829507828,0.0006445292965508997,-0.013751677237451077,0.007429309189319611,-0.004625856876373291,-0.006531715393066406
0.027972854673862457,0.007718654815107584,-0.00637859757989645,0.011982854455709457,0.0025690793991088867,-0.006280303001403809
0.026134416460990906,-0.027611229568719864,-0.00373709574341774,0.005059458315372467,0.002933323383331299,-0.0011010169982910156
0.03135320544242859,0.03287460654973984,-0.0056638047099113464,0.009676758199930191,0.00400853157043457,-0.005146026611328125
-0.0021857183892279863,-0.0033283194061368704,0.013203771784901619,0.010132472962141037,-9.28044319152832e-05,0.005808830261230469
0.01248912513256073,0.008121983148157597,-0.004858405329287052,-0.0012998729944229126,0.0032335519790649414,-0.009147465229034424
0.021183688193559647,0.02796393632888794,-0.001943458802998066,0.006824299693107605,0.003834366798400879,-0.0005164742469787598
0.007334242574870586,0.01482493244111538,0.01760742999613285,0.010656073689460754,0.0019590258598327637,0.0045928955078125
0.015369266271591187,0.0317140594124794,-0.008532565087080002,-0.011011719703674316,-0.0018319487571716309,-0.00031560659408569336
-0.0023162844590842724,0.03072327934205532,-0.01280471682548523,-0.0010244771838188171,0.002629518508911133,0.008949875831604004
-0.0015778152737766504,0.015334654599428177,0.00460069440305233,-0.0016990602016448975,0.003619968891143799,0.002553582191467285
0.006499255076050758,0.029568558558821678,-0.0007345601916313171,-0.0014561861753463745,0.003703892230987549,0.010271072387695312
-0.03524971380829811,-0.03454751521348953,0.016184533014893532,-0.004235684871673584,-1.9609928131103516e-05,0.015889227390289307
0.00939213577657938,0.008064191788434982,-0.0004460802301764488,-0.0102003812789917,0.004730939865112305,-0.007759571075439453
-0.02971366047859192,0.021361209452152252,-0.016185805201530457,-0.009348569437861443,-0.0024824142456054688,0.015587329864501953
-0.026972349733114243,-0.017119891941547394,-0.018377408385276794,0.003492914140224457,-0.0029990673065185547,-0.001572251319885254
-0.012327006086707115,6.847275653854012e-05,-0.011310448870062828,0.00564064085483551,0.0020104050636291504,0.0031716227531433105
-0.060493845492601395,-0.0334952287375927,-0.023160386830568314,0.00010076910257339478,-0.0009365677833557129,-0.004483222961425781
0.016949091106653214,0.04002726078033447,-0.02234223671257496,0.003055283799767494,0.005405068397521973,-0.03834909200668335
-0.011994238011538982,0.03712250664830208,0.024357354268431664,0.010568149387836456,0.003182530403137207,0.013816773891448975
-0.021483900025486946,0.01918419636785984,-0.011723856441676617,-0.0037197768688201904,-0.012265026569366455,0.003368973731994629
0.005249877460300922,-0.005894412286579609,-0.018169475719332695,0.006048470735549927,-0.002574443817138672,0.008476555347442627
-0.01447252742946148,-0.07522650063037872,0.01821013353765011,0.010512761771678925,0.0008123517036437988,-0.0011439919471740723
0.01682198978960514,0.002956894924864173,0.02324676141142845,-0.00548001192510128,0.008164823055267334,-0.03232783079147339
0.0035186847671866417,0.01870741881430149,0.03593971207737923,-0.007951535284519196,0.001521468162536621,-0.003828108310699463
0.009714743122458458,-0.020708980038762093,0.0014860136434435844,-0.01048211008310318,-0.0017061233520507812,0.008603692054748535
0.019013406708836555,-0.03477519005537033,-0.0019211466424167156,-0.010376786813139915,0.0006104707717895508,0.00698477029800415
-0.007766778580844402,-0.0033451698254793882,-0.007154612336307764,-0.01126040518283844,-0.0033184289932250977,0.012327849864959717
-0.019905269145965576,-0.01616675779223442,-0.021689144894480705,-0.014561161398887634,-0.005718350410461426,0.018165111541748047
-0.033425066620111465,-0.03321929648518562,-0.06700552254915237,-0.015073083341121674,-0.007186233997344971,0.013847708702087402
-0.034844279289245605,-0.012988540343940258,-0.06828563660383224,0.008174100890755653,0.00526660680770874,0.00042313337326049805
-0.026585808023810387,-0.003985353745520115,-0.016338583081960678,0.02508828043937683,0.010318875312805176,-0.0043354034423828125
-0.02118346467614174,-0.01306862011551857,0.0013657575473189354,0.010819606482982635,0.001114964485168457,-0.004427909851074219
-0.006669525522738695,-0.0092041976749897,-0.022411419078707695,0.004690224304795265,-0.003960311412811279,-0.020234405994415283
0.025225281715393066,0.023315824568271637,0.002694231690838933,0.004270300269126892,0.008209466934204102,-0.01010197401046753
-0.018623124808073044,0.004593640100210905,0.010808587074279785,-0.0017758682370185852,-0.0010297894477844238,0.01463174819946289
0.0032291989773511887,0.0025774515233933926,-0.033383969217538834,-0.009172506630420685,-0.0023096203804016113,-0.0010472536087036133
-0.00733075849711895,0.0012598223984241486,-0.01964874193072319,0.001293472945690155,0.004864811897277832,0.020264148712158203
-0.04503832012414932,-0.03233614191412926,-0.02720082364976406,7.316470146179199e-06,-0.002485930919647217,0.003319978713989258
0.014043556526303291,0.010851752012968063,-0.030099935829639435,-0.0016910061240196228,0.007810115814208984,-0.015015661716461182
-0.020925799384713173,-0.03169271722435951,-0.018845386803150177,-0.01356314867734909,0.003840148448944092,0.000901639461517334
-0.0007629187311977148,0.01099381037056446,-0.03842175379395485,-0.024689963087439537,0.005503952503204346,-0.02001047134399414
0.04358792304992676,-0.02895800769329071,-0.0021238718181848526,-0.03657720237970352,0.005543231964111328,0.0041811466217041016
-0.042540211230516434,-0.05664950981736183,-0.07136339694261551,-0.07724249362945557,-0.018208026885986328,0.04396665096282959
-0.06901220977306366,-0.08445152640342712,-0.2202751189470291,-0.06436337530612946,-0.029042363166809082,0.014280200004577637
-0.03142237290740013,-0.10397506505250931,-0.22378391027450562,-0.023245615884661674,0.00125962495803833,0.017641544342041016
-0.10023745149374008,-0.13694550096988678,-0.19199678301811218,0.005248323082923889,0.0015821456909179688,0.036450326442718506
-0.10347968339920044,-0.13676296174526215,-0.2187921553850174,0.005688808858394623,-0.004000842571258545,-0.0018739700317382812
-0.06759527325630188,-0.18956045806407928,-0.21987099945545197,0.028039216995239258,0.013666212558746338,-0.01166003942489624
-0.0476604700088501,-0.13548223674297333,-0.14216575026512146,0.03554532676935196,0.022444963455200195,-0.033432066440582275
-0.029553908854722977,-0.10929457098245621,-0.06432205438613892,0.029777508229017258,0.019159555435180664,-0.024006366729736328
-0.005344473756849766,-0.10573065280914307,-0.058333054184913635,-0.0015620365738868713,0.001332700252532959,0.00864344835281372
-0.08411902189254761,-0.17283163964748383,-0.1412172168493271,-0.0075139254331588745,-0.012133002281188965,0.04136669635772705
-0.07534552365541458,-0.162925586104393,-0.16159886121749878,0.004816733300685883,0.0016093850135803223,-0.0028137564659118652
-0.08476570248603821,-0.13645203411579132,-0.10367020964622498,0.04087270796298981,0.004015862941741943,-0.0032867789268493652
-0.10375287383794785,-0.1481238752603531,-0.07578293979167938,0.03463118523359299,-0.0005288124084472656,-0.019053995609283447
-0.0508749783039093,-0.06505196541547775,-0.12180644273757935,0.031139835715293884,-0.009731888771057129,-0.051785945892333984
-0.013674704357981682,-0.052443813532590866,-0.04704565554857254,0.07301013171672821,0.0051114559173583984,-0.03352189064025879
0.005516421049833298,-0.06711119413375854,0.05268377438187599,0.059914201498031616,0.00471729040145874,-0.038359999656677246
0.06335972249507904,0.042586714029312134,0.026959296315908432,0.025487340986728668,-0.006826937198638916,-0.0449332594871521
0.07494855672121048,0.005267623346298933,0.0614408403635025,0.03456265479326248,0.0017108917236328125,-0.003981351852416992
0.08575057238340378,-0.00761561281979084,0.09240257740020752,0.016186203807592392,0.00042957067489624023,-0.012071073055267334
0.08546586334705353,0.0901971384882927,0.08009084314107895,-0.0017792358994483948,0.0024344325065612793,-0.002913951873779297
0.05858588591217995,0.02032271958887577,0.12186139076948166,0.004431333392858505,0.0017917752265930176,0.026364386081695557
0.07052698731422424,0.030044566839933395,0.08897079527378082,-0.02113223820924759,-0.004508256912231445,0.015551149845123291
0.029290970414876938,0.01058164518326521,0.054834604263305664,-0.013226769864559174,-0.006312429904937744,0.021922171115875244
0.03302928805351257,0.007706529460847378,0.07194077223539352,-0.013944923877716064,0.0035771727561950684,-5.0127506256103516e-05
0.04886912181973457,0.016023484990000725,0.07439123094081879,-0.005266301333904266,-0.00825589895248413,-0.016312479972839355
0.05326351150870323,0.03272092342376709,0.08353839069604874,-0.018017858266830444,-0.0026552677154541016,0.007669270038604736
0.023692306131124496,-0.012799957767128944,0.0500028021633625,-0.029478833079338074,-0.016600608825683594,0.01060551404953003
0.06602320820093155,-0.00927130039781332,0.015818318352103233,-0.028543926775455475,-0.009251832962036133,-0.01677793264389038
0.07432761788368225,0.026163307949900627,0.02946234494447708,-0.02213320881128311,0.0010181069374084473,0.00963282585144043
0.02859831415116787,0.005760451778769493,0.013505451381206512,-0.020050160586833954,-0.011810660362243652,0.020479261875152588
0.05291591212153435,-0.046232979744672775,-0.02268960326910019,-0.010484978556632996,-0.000467836856842041,0.018882930278778076
0.04300001636147499,-0.07286104559898376,0.000837742118164897,0.002631165087223053,0.00986933708190918,0.01015549898147583
0.02605316787958145,0.002786265918985009,0.00487828953191638,0.0030726268887519836,0.010951638221740723,-0.003834843635559082
0.0194406695663929,0.009898317977786064,-0.0072906105779111385,0.007230140268802643,0.011738896369934082,-0.005300045013427734
0.03382164612412453,0.027957433834671974,0.01079198531806469,0.019623801112174988,0.01171201467514038,0.006327688694000244
-0.02221142314374447,-0.012803315185010433,0.03345755487680435,0.019083566963672638,0.004566967487335205,0.018398046493530273
-0.004487408325076103,-0.006594629026949406,0.011939335614442825,-0.005620189011096954,0.0010749101638793945,-0.012787699699401855
0.03531217202544212,0.022062120959162712,0.019544614478945732,0.0013105645775794983,0.006387770175933838,-0.019051194190979004
0.03237426280975342,0.02044430375099182,0.07440359890460968,-0.0004709959030151367,0.008055508136749268,0.009167850017547607
0.0006555595900863409,-0.030037451535463333,0.04715230315923691,-0.02666393667459488,-0.008761882781982422,0.016782701015472412
0.0040550678968429565,-0.01877438835799694,-0.030685212463140488,-0.03543264418840408,-0.004877865314483643,0.008901655673980713
-0.005204254295676947,-0.051594533026218414,-0.013197680935263634,-0.011123672127723694,0.00616687536239624,0.02346646785736084
0.015584934502840042,-0.18229812383651733,0.03049301728606224,-0.015399396419525146,0.012069106101989746,0.022997617721557617
0.028813153505325317,-0.18596003949642181,-0.04603087529540062,-0.023171763867139816,-0.0068187713623046875,0.007883965969085693
-0.08244221657514572,0.01368209719657898,-0.06770489364862442,-0.012148138135671616,0.0035521984100341797,0.007287561893463135
-0.06447461247444153,-0.05386912822723389,-0.014095371589064598,0.015724454075098038,0.009521424770355225,0.0026773810386657715
0.0006657866761088371,-0.12484332919120789,-0.02133973315358162,0.007955580949783325,-0.003680408000946045,-0.012948334217071533
-0.05033944919705391,-0.0219584871083498,-0.05844283103942871,0.0017662867903709412,-0.0024408698081970215,-0.006392836570739746
-0.05506923049688339,-0.02130318433046341,-0.03423360735177994,0.013523474335670471,0.0022009611129760742,-0.012597918510437012
0.004821916110813618,-0.03676380589604378,-0.035444896668195724,0.007818356156349182,-0.0008701682090759277,-0.017691969871520996
-0.01519435178488493,0.008412745781242847,-0.020114295184612274,0.0075564198195934296,0.003430306911468506,0.007986247539520264
-0.04909433051943779,-0.0204343069344759,-0.013256448321044445,0.0034314393997192383,-0.004838883876800537,0.018585562705993652
-0.01875201053917408,-0.04334140568971634,-0.0695456713438034,-0.01435951516032219,-0.012257754802703857,-0.0015326142311096191
-0.015539046376943588,0.003876104950904846,-0.06793563812971115,-0.0018106438219547272,0.004470467567443848,-0.0031064748764038086
-0.05462820455431938,0.004603615030646324,-0.016055429354310036,0.01499679684638977,-0.0015635490417480469,0.020440518856048584
-0.04361039772629738,-0.04645368084311485,-0.05700324475765228,-0.007801223546266556,-0.013207495212554932,-0.008183717727661133
0.01617157831788063,-0.015551501885056496,-0.06838014721870422,-8.5391104221344e-05,0.002779722213745117,-0.025887906551361084
0.008112727664411068,0.021135438233613968,-0.020356882363557816,0.009149134159088135,0.008310496807098389,-0.007751166820526123
-0.0052980659529566765,-0.0006010815850459039,-0.015500840730965137,-0.00038874149322509766,-0.0029761195182800293,-0.002681553363800049
0.02101587876677513,-0.0031744730658829212,-0.05352187529206276,-0.007248993963003159,-0.0008041858673095703,-0.0057915449142456055
0.006453379988670349,0.013239926658570766,-0.010722573846578598,0.013515587896108627,0.007612287998199463,0.016920268535614014
-0.02231842838227749,-0.04420064389705658,0.013902617618441582,0.003010433167219162,-0.0014727115631103516,0.028403639793395996
-0.02359595336019993,-0.043638020753860474,-0.05344097316265106,-0.01861802116036415,-0.009275257587432861,-0.0019388794898986816
-0.006917663849890232,0.007105759810656309,-0.06992720812559128,-0.002197790890932083,0.0025796890258789062,-0.01613795757293701
-0.0006339966785162687,0.02313041500747204,-0.007443152368068695,0.01787717267870903,0.007173359394073486,-0.009031355381011963
-0.0034164139069616795,0.006738138850778341,0.0159352608025074,0.011311165988445282,-0.003724336624145508,0.00519871711730957
-0.00892142578959465,-0.007328573148697615,-0.0124247707426548,-0.00012260302901268005,-0.007904350757598877,0.006013274192810059
-0.009013352915644646,0.0033801281824707985,-0.02836790308356285,0.006212729960680008,-0.006140768527984619,-0.004114270210266113
0.01879800856113434,-0.00826207548379898,0.01976562663912773,0.015030097216367722,0.004540622234344482,-0.016232848167419434
0.03438814356923103,0.05156863480806351,0.03196556121110916,0.004337206482887268,-0.0021720528602600098,-0.004437863826751709
-0.034203119575977325,0.03021637164056301,-0.012073913589119911,7.423758506774902e-05,-0.01943671703338623,0.017978787422180176
0.017703402787446976,-0.007711770478636026,-0.06250835955142975,0.00897035002708435,-6.568431854248047e-05,-0.021371185779571533
0.06578795611858368,0.07858409732580185,-0.00640652934089303,0.0253736674785614,0.027840077877044678,-0.023297011852264404
0.0023728343658149242,0.15485352277755737,0.06954608112573624,0.0275571271777153,0.013288915157318115,0.022803425788879395
-0.04092220589518547,0.04587332159280777,0.024694811552762985,0.0027586854994297028,-0.004979074001312256,0.03049647808074951
0.009221035987138748,0.0186162032186985,-0.001018043141812086,-0.00379311665892601,0.009559988975524902,-0.010739684104919434
-0.002147706225514412,0.1180291548371315,0.07201536744832993,0.010087907314300537,0.024609744548797607,-0.0005563497543334961
-0.04004695266485214,0.07192081958055496,0.12837311625480652,0.0018378496170043945,0.0021618008613586426,0.014774739742279053
0.008903475478291512,0.006416047923266888,0.06910201162099838,-0.025948554277420044,-0.012707531452178955,0.0002129673957824707
-0.01497061736881733,0.02751922607421875,0.03247635439038277,-0.02893911302089691,-0.008569777011871338,0.0013017654418945312
-0.016893606632947922,0.058270569890737534,0.0478372685611248,-0.017923802137374878,-0.0028463006019592285,0.002634406089782715
-0.01718667522072792,-0.005133941303938627,0.04382530227303505,-0.015340812504291534,-0.011200010776519775,0.008129417896270752
-0.004336224403232336,0.011098671704530716,-0.0029051550664007664,-0.03045017272233963,-0.011839628219604492,-0.005573630332946777
-0.015098064206540585,0.014173450879752636,-0.015532501973211765,-0.01155661791563034,-0.0068236589431762695,-0.0004202127456665039
-0.005269060842692852,0.008601386100053787,-0.00836431048810482,-0.006343550980091095,0.0029434561729431152,0.0033617019653320312
-0.012723204679787159,0.015101008117198944,-0.030160006135702133,-0.0020611733198165894,-0.0030784010887145996,-0.0005849003791809082
-0.007616652641445398,0.014791691675782204,-0.020224636420607567,0.011265046894550323,0.005415141582489014,-0.002473890781402588
-0.0063153766095638275,-0.0029824143275618553,0.01333576999604702,0.012285314500331879,0.0018188953399658203,-0.0009690523147583008
-0.0009750938042998314,0.008695828728377819,-0.011161070317029953,0.0012010857462882996,-0.0005155205726623535,-0.008083462715148926
0.014086649753153324,0.027773188427090645,0.0072981854900717735,0.005475915968418121,0.00703120231628418,-0.008103132247924805
-0.004342237021774054,0.034236885607242584,0.022679241374135017,0.005086548626422882,0.0013546347618103027,0.010596513748168945
-0.014374484308063984,-0.011849361471831799,-0.006181877106428146,-0.005391240119934082,-0.003906428813934326,0.0017616748809814453
0.023157717660069466,0.01942611113190651,-0.024556919932365417,-0.00885012000799179,0.0072460174560546875,-0.006464719772338867
-0.015734082087874413,0.0403674952685833,-0.008019846864044666,0.003032475709915161,0.0008425712585449219,0.0091019868850708
-0.02100522257387638,0.03154871240258217,-0.01466058287769556,-0.0025724098086357117,-0.0030081868171691895,0.007772266864776611
-0.008701510727405548,-0.008499417454004288,-0.07364986836910248,-0.014836601912975311,-0.000796198844909668,-0.003687441349029541
0.0012543885968625546,0.043886441737413406,-0.053589966148138046,0.008571445941925049,0.013120293617248535,-0.016117453575134277
-0.020469889044761658,0.07697614282369614,0.025056082755327225,0.01624467223882675,0.015316545963287354,0.012790262699127197
-0.023558372631669044,-0.012399479746818542,0.008028690703213215,-0.0014462471008300781,-0.005613505840301514,0.011762022972106934
0.014321669936180115,0.013028412126004696,-0.03781162202358246,-0.0061754584312438965,0.0018144845962524414,-0.006357729434967041
-0.04709450528025627,0.007568804547190666,0.02481592446565628,0.014733530580997467,0.006223440170288086,0.014243543148040771
-0.024770233780145645,-0.0053862896747887135,0.037530481815338135,-0.009639054536819458,-0.001861572265625,-0.02397829294204712
0.03437155857682228,0.0386921763420105,-0.021855618804693222,-0.01534496620297432,-0.007882833480834961,-0.02163320779800415
-0.012292418628931046,0.0302092507481575,0.01831784099340439,0.0065416619181632996,0.00463491678237915,0.01746755838394165
-0.02561395987868309,0.005923058371990919,0.021103953942656517,-0.0010002776980400085,-0.005922913551330566,0.011704564094543457
0.002381865866482258,-0.014062607660889626,-0.017555469647049904,-0.003937307745218277,-0.0067288875579833984,-0.005357921123504639
-0.0010351627133786678,0.00787472166121006,-0.016617747023701668,0.0015038177371025085,0.0025148987770080566,-0.009196996688842773
-0.0006977450102567673,0.038322530686855316,0.01396283321082592,0.01126641035079956,0.005053520202636719,-0.008373379707336426
0.0029648011550307274,0.029461242258548737,0.011339648626744747,0.003960929811000824,0.0013281702995300293,0.002941727638244629
-0.002474050037562847,0.004902606830000877,-0.014745567925274372,-0.0015301704406738281,-0.0002028346061706543,0.00907522439956665
-0.01948465034365654,0.023840680718421936,-0.024549167603254318,-0.00391329824924469,-0.0008912086486816406,-0.0035662055015563965
0.0018087466014549136,0.0385858453810215,-0.010066896677017212,0.0026805847883224487,0.005093276500701904,-0.012203514575958252
0.01084555871784687,0.0463571734726429,0.023598119616508484,0.00893036276102066,0.0025745630264282227,0.007189631462097168
-0.031235184520483017,0.010636805556714535,-0.00499449297785759,-0.005731008946895599,-0.00990515947341919,0.020197749137878418
-0.007616674993187189,-0.020443880930542946,-0.02305791527032852,0.0015225782990455627,-0.0006712675094604492,-0.0019263625144958496
-0.0015449419151991606,-0.0015464633470401168,0.0007158871740102768,0.001335136592388153,0.007039546966552734,-0.016778171062469482
-0.00010785507038235664,0.02095286175608635,0.022885221987962723,0.00824253261089325,0.005218505859375,-0.01652127504348755
0.021511711180210114,-0.008176975883543491,0.03950835019350052,-0.004914022982120514,0.001748204231262207,-0.014525771141052246
0.03370325639843941,0.01432468555867672,0.002964335260912776,-0.020120270550251007,-0.0034322738647460938,-0.008163034915924072
0.0005551965441554785,0.018587373197078705,-0.008588842116296291,-0.010457824915647507,0.0004938244819641113,0.023463547229766846
-0.01494109258055687,-0.025332309305667877,-0.018206410109996796,-0.008194401860237122,-0.00035303831100463867,0.02154022455215454
-0.01967783458530903,-0.029216675087809563,-0.042009055614471436,-0.00314909964799881,0.0007859468460083008,0.010465025901794434
-0.02370205707848072,-0.013134194537997246,-0.029463712126016617,0.005813777446746826,0.006631374359130859,-0.002646505832672119
-0.011788109317421913,-0.006069170776754618,-0.0005671698600053787,0.012893564999103546,0.008975625038146973,-0.012564241886138916
-0.003794766729697585,0.010452358983457088,0.0172553863376379,0.01072005182504654,0.0050154924392700195,-0.001113295555114746
-0.03218453377485275,-0.02092914842069149,0.02017909474670887,0.00276947021484375,-0.003358602523803711,0.01466304063796997
-0.0183103010058403,-0.027674438431859016,-0.024062814190983772,-0.009584594517946243,-0.0077138543128967285,-0.010190427303314209
0.0012299614027142525,0.017421742901206017,-0.007151374127715826,0.0001125037670135498,0.005174219608306885,-0.0002378225326538086
-0.04139655455946922,-0.004210915416479111,0.003595504444092512,8.145719766616821e-05,-0.005318641662597656,0.015051424503326416
-0.005855761468410492,-0.03351288661360741,-0.02658669278025627,-0.0006271526217460632,-0.005138218402862549,-0.007579922676086426
0.001176078338176012,-0.020730584859848022,-0.0004252181388437748,0.0029550790786743164,0.005942404270172119,-0.0003362298011779785
-0.02166033908724785,-0.017770275473594666,0.013000546023249626,-0.0008010007441043854,0.0007529258728027344,-0.004082143306732178
-0.012861697003245354,0.003994420636445284,-0.00450950488448143,-0.0076360926032066345,-0.00761568546295166,-0.009412109851837158
-0.013551817275583744,0.018737642094492912,-0.030240438878536224,-0.006679058074951172,-0.007910847663879395,0.006145060062408447
-0.01686408370733261,-0.039861083030700684,-0.02992558851838112,0.00495544821023941,-0.0044438838958740234,0.0056836605072021484
0.011998049914836884,-0.004387460183352232,-0.010779744014143944,0.0028500333428382874,0.006035804748535156,-0.018895447254180908
0.004679200239479542,0.0056765214540064335,0.01616574265062809,0.006588190793991089,-0.0012110471725463867,-0.00522768497467041
0.02240939438343048,-0.02663290686905384,8.338643237948418e-05,-0.004604354500770569,-0.004785060882568359,-0.013949930667877197
0.03703901171684265,0.010907875373959541,-0.012564735487103462,-0.002544969320297241,0.002858102321624756,-0.0029138922691345215
-0.0035467715933918953,0.028783438727259636,0.011198947206139565,0.007601127028465271,0.00428539514541626,0.022723495960235596
-0.011845409870147705,-0.02748805657029152,0.0020284997299313545,0.009541645646095276,-0.0075893402099609375,0.01905655860900879
-0.0006355855148285627,-0.050586722791194916,-0.0077705224975943565,0.005711022764444351,-0.001722097396850586,-0.00175398588180542
0.009024657309055328,0.0021450850181281567,0.003602603916078806,0.002757471054792404,0.0035836100578308105,-0.022672295570373535
0.024558180943131447,0.022536640986800194,0.03179263323545456,0.0057100653648376465,0.005786538124084473,-0.011457741260528564
0.020429272204637527,-0.008361879736185074,0.020927593111991882,-0.005828410387039185,-0.005269646644592285,-0.00325852632522583
0.030891835689544678,0.028958288952708244,-0.02883164957165718,-0.016095831990242004,-0.0038933157920837402,-0.010126590728759766
0.02108541876077652,0.005745144560933113,-0.00107130641117692,0.00842120498418808,0.008496522903442383,0.017217278480529785
0.005453963298350573,-0.03035845421254635,0.015783660113811493,0.0028067976236343384,0.00235748291015625,0.01324462890625
0.0028313917573541403,-0.02045360580086708,-0.022519808262586594,-0.00828833132982254,0.0028656721115112305,-0.002547740936279297
0.022728409618139267,-0.006237282883375883,-0.00096900574862957,0.002749823033809662,0.01398611068725586,-0.007346630096435547
-0.00747100031003356,0.017750374972820282,0.03478674218058586,0.008671864867210388,0.007340192794799805,0.007360994815826416
-0.017451591789722443,-0.0284225232899189,0.021095816045999527,-0.0053643956780433655,-8.231401443481445e-05,0.011182069778442383
0.004903834313154221,-0.027653923258185387,0.0034476991277188063,-0.008821114897727966,-0.00207674503326416,-2.3484230041503906e-05
-0.033704567700624466,-0.016834918409585953,0.008840391412377357,-0.0004165768623352051,-0.0030018091201782227,0.00694882869720459
-0.005259382072836161,-0.012512641958892345,0.015261393040418625,-0.0018806681036949158,-0.006392538547515869,-0.012145161628723145
0.023522639647126198,-0.034678973257541656,0.015851279720664024,0.0012813135981559753,-0.008541762828826904,-0.003671586513519287
0.00097326235845685,-0.05106430500745773,0.022908475250005722,-0.001294933259487152,-0.006433069705963135,-0.0030698776245117188
0.022065792232751846,-0.009042740799486637,-0.008113943971693516,-0.008138306438922882,-0.005061686038970947,-0.020306169986724854
0.031206464394927025,-0.007187888957560062,-0.0012693582102656364,0.005175605416297913,0.005301415920257568,-0.0022302865982055664
0.013398509472608566,-0.00929117389023304,0.014264082536101341,0.012398749589920044,0.003871917724609375,0.012882769107818604
-0.001984264934435487,-0.01205381192266941,0.008468319661915302,0.011085912585258484,-0.0008376240730285645,0.014880537986755371
-0.006783564109355211,-0.042414091527462006,0.0020117771346122026,0.007332459092140198,0.0006955862045288086,0.006224513053894043
0.019415220245718956,-0.018672389909625053,0.008206730708479881,0.003085162490606308,0.004940927028656006,-0.024999797344207764
0.03803962096571922,0.05216168984770775,0.036611158400774,0.012048013508319855,0.011973023414611816,-0.011274099349975586
-0.006697314791381359,0.008897796273231506,0.06131889671087265,0.005406573414802551,-0.0034081339836120605,0.01937788724899292
0.003511714981868863,-0.0320504754781723,-0.0033401986584067345,-0.009877510368824005,-0.01572185754776001,-0.0016704201698303223
0.028231922537088394,-0.022206876426935196,-0.0059738848358392715,-0.004151433706283569,-0.0011335015296936035,-0.022181034088134766
0.03740992769598961,0.031517695635557175,0.0427788570523262,0.0011738985776901245,0.009776771068572998,-0.01967763900756836
0.04855818673968315,0.03179572895169258,0.044052645564079285,-0.008176468312740326,-0.0018637776374816895,-0.004567861557006836
0.05018677935004234,0.013240649364888668,0.015602421015501022,-0.011313676834106445,-0.005107998847961426,0.018088042736053467
0.014547159895300865,-0.03569447621703148,0.013796914368867874,-0.0027681030333042145,-0.0006581544876098633,0.03239184617996216
0.005900959949940443,-0.03644445538520813,-0.001033188309520483,-0.018042035400867462,0.006353497505187988,0.007479369640350342
-0.005348987877368927,0.027716565877199173,-0.0049567087553441525,-0.0029014982283115387,0.005235731601715088,0.007874608039855957
-0.03595493361353874,-0.03199911490082741,0.02015027217566967,0.007039785385131836,0.0017790794372558594,0.02067774534225464
-0.0015413810033351183,-0.04218907654285431,0.005658684764057398,-0.004473492503166199,0.0014884471893310547,-0.008788228034973145
0.005994846113026142,-0.005379182752221823,0.017799707129597664,0.005055636167526245,0.008040964603424072,-0.009824037551879883
0.00047734053805470467,0.010387455113232136,0.05499119684100151,0.009388759732246399,-0.0013499855995178223,-0.0031081438064575195
-0.004593877121806145,-0.04089099168777466,0.03404469043016434,-0.003684893250465393,-0.010145962238311768,0.006264388561248779
0.010295191779732704,-0.01859188638627529,0.005977751221507788,-0.008692905306816101,-0.005395948886871338,-0.012229561805725098
0.019813023507595062,0.02743963710963726,0.02523256093263626,0.007954888045787811,0.0002415180206298828,0.007699787616729736
-0.014995123259723186,-0.053961366415023804,0.04328722134232521,0.002191901206970215,-0.008367836475372314,0.014357328414916992
0.037551868706941605,0.007645276840776205,-0.03611433133482933,-0.02167297899723053,-0.007667601108551025,-0.02128159999847412
0.017702164128422737,0.03277551010251045,-0.012731745839118958,0.005033701658248901,0.002897918224334717,0.0037728548049926758
0.008415632881224155,0.008881702087819576,0.014576003886759281,0.009452849626541138,0.004390716552734375,0.007309615612030029
0.022386837750673294,0.004301216918975115,-0.012614835985004902,-0.004213862121105194,0.0007418394088745117,-0.0008751153945922852
0.01009155623614788,0.002688939217478037,-0.01248007919639349,0.0059392862021923065,0.0076430439949035645,0.0009137392044067383
0.014489996246993542,0.019449507817626,0.037043917924165726,0.008336551487445831,0.015418469905853271,-0.004377543926239014
0.015034116804599762,0.03252992406487465,0.03528744354844093,-0.007503785192966461,-0.0007166266441345215,-0.005516648292541504
0.018397359177470207,0.031016869470477104,0.009424326941370964,-0.007705956697463989,0.00021910667419433594,0.019688844680786133
-0.029576454311609268,-0.03242068737745285,0.01929207518696785,-0.0037240274250507355,-0.006157398223876953,0.03185302019119263
-0.017495937645435333,-0.016649410128593445,-0.024231836199760437,-0.02055153250694275,-0.0009890198707580566,-0.008507013320922852
-0.00022256444208323956,0.03611724078655243,-0.014138818718492985,0.00021902471780776978,0.0013881921768188477,0.0027469396591186523
-0.059096500277519226,-0.032283198088407516,0.016433916985988617,0.005486596375703812,-0.002354145050048828,0.022686898708343506
0.0019778385758399963,-0.03432720899581909,-0.004514981992542744,-0.00997038185596466,-0.0036454200744628906,-0.02302682399749756
0.011952133849263191,0.02910088188946247,-0.03301038593053818,-0.008884001523256302,-0.002919793128967285,-0.01040416955947876
-0.027425125241279602,0.00417547719553113,0.003008923027664423,0.015175953507423401,0.001054227352142334,0.007797956466674805
-0.0031887672375887632,-0.03621253743767738,0.008841810747981071,0.005073912441730499,0.0015774965286254883,-0.006574809551239014
0.014599861577153206,0.023830028250813484,-0.02635737881064415,-0.00964123010635376,0.0009004473686218262,-0.017122745513916016
0.002075905678793788,0.04648599401116371,0.010734902694821358,0.015150442719459534,0.007526576519012451,0.01195669174194336
-0.026089712977409363,-0.023922735825181007,0.03067297860980034,0.0008418075740337372,-0.0012316107749938965,0.022679388523101807
-7.099006325006485e-05,-0.023975063115358353,-0.022307347506284714,-0.017318103462457657,-0.00790870189666748,-0.011436700820922852
0.016110235825181007,0.05062545835971832,-0.02123318426311016,-0.009634338319301605,0.004677832126617432,-0.0028278231620788574
-0.03915344923734665,0.0023743081837892532,0.009622935205698013,0.0018047541379928589,-0.00327223539352417,0.0230712890625
-0.0033774329349398613,-0.0025694556534290314,-0.024897951632738113,-0.0010223202407360077,-0.006657898426055908,-0.0009447932243347168
-0.025053812190890312,-0.01946110464632511,-0.028758713975548744,0.0040702298283576965,0.003039717674255371,0.006916046142578125
-0.01435516681522131,0.021985063329339027,-0.0027521727606654167,0.013281218707561493,0.003763914108276367,-0.022182703018188477
0.014060762710869312,0.013567076995968819,0.0373249389231205,0.015834104269742966,0.00943899154663086,-0.008899986743927002
0.007212214171886444,0.005641014780849218,0.05050133913755417,0.00137995183467865,0.007373034954071045,0.012963175773620605
-0.019949529320001602,0.011074131354689598,-0.009786032140254974,-0.019811708480119705,-0.010082662105560303,0.0014132261276245117
