rotation_x,rotation_y,rotation_z,acceleration_x,acceleration_y,acceleration_z
-0.03414500132203102,-0.06608521193265915,-0.011660396121442318,-0.015448015183210373,-0.005802631378173828,-0.006079435348510742
0.06142677366733551,-0.030314180999994278,-0.009338579140603542,-0.009119875729084015,-0.0010838508605957031,-0.03962594270706177
-0.007657770067453384,-0.02659241482615471,0.03336925432085991,0.02918792888522148,-0.022601664066314697,0.013180673122406006
-0.0678510069847107,-0.016443073749542236,0.039786744862794876,0.0016300231218338013,-0.01087278127670288,0.01711183786392212
-0.06724436581134796,-0.0597318597137928,0.009061680175364017,-0.026967260986566544,0.008153796195983887,-0.001938462257385254
-0.011927315965294838,-0.06867343187332153,-0.0007560631493106484,-0.01878407970070839,0.007459461688995361,-0.010320127010345459
0.03646602854132652,-0.054194215685129166,0.023103782907128334,0.0019518882036209106,0.00483781099319458,-0.02292013168334961
-0.011391019448637962,-0.0359884649515152,0.04331837221980095,0.008126091212034225,-0.0012850761413574219,0.0035132169723510742
-0.0891643762588501,-0.036964405328035355,0.05343867465853691,0.016684282571077347,-0.005827009677886963,0.006648659706115723
-0.08252615481615067,-0.03337721899151802,0.011021343991160393,-0.013292856514453888,-0.0004957914352416992,-0.0031093358993530273
0.007630552630871534,0.027035348117351532,-0.03156846761703491,-0.02793346345424652,0.01325446367263794,-0.01643306016921997
-0.010063180699944496,-0.00022780802100896835,0.000552318524569273,0.017257995903491974,-0.0029368996620178223,-0.0006687641143798828
-0.054639093577861786,0.0048495265655219555,0.04189020022749901,0.02689240127801895,-0.009575843811035156,0.017829596996307373
-0.04728563129901886,-0.04381348937749863,0.025469055399298668,-0.0006861165165901184,0.0024080872535705566,-0.019840896129608154
-0.009098433889448643,-0.03371298685669899,-0.01992039382457733,-0.022102151066064835,0.007984817028045654,-0.027648866176605225
0.025968428701162338,-0.0016276417300105095,-0.035376980900764465,-0.01307385042309761,0.005341649055480957,-0.017588257789611816
-0.01850687339901924,-0.0009784922003746033,-0.02213766984641552,0.0038917846977710724,-0.004536449909210205,0.018456995487213135
-0.06386321038007736,-0.039033085107803345,-0.002508443547412753,0.005226857960224152,-0.009866774082183838,0.01806652545928955
-0.0411352813243866,-0.087474524974823,0.005617986433207989,-0.0019078217446804047,-0.0018063783645629883,-0.024628281593322754
-0.02202260121703148,-0.07590842992067337,-0.034222833812236786,-0.02441064640879631,0.007776081562042236,-0.0270882248878479
-0.022618170827627182,-0.02348041906952858,-0.03487824276089668,-0.007484715431928635,-0.0024148225784301758,0.00629192590713501
-0.012519419193267822,0.015180842950940132,-0.018482089042663574,0.0017342232167720795,-0.006460368633270264,-0.0030605196952819824
-0.06284186989068985,-0.060840632766485214,0.0129117202013731,0.01612340286374092,-0.009776771068572998,-0.0006387829780578613
-0.05312962830066681,-0.08494185656309128,0.02737388201057911,0.008960321545600891,-0.007595062255859375,-0.011883139610290527
0.018420565873384476,-0.06964567303657532,0.001581099582836032,-0.015638601034879684,0.00277787446975708,-0.034084200859069824
0.05332290753722191,-0.024826662614941597,-0.031019248068332672,-0.009910468012094498,0.002565622329711914,-0.019143879413604736
0.02338279038667679,-0.009079154580831528,-0.011342557147145271,0.0114467553794384,-0.004948675632476807,0.015064597129821777
-0.022229645401239395,-0.020138230174779892,-0.011486509814858437,0.0002549104392528534,-0.002409994602203369,0.02186429500579834
-0.005623566452413797,-0.043604783713817596,-0.014048317447304726,-0.0014988741604611278,0.00037091970443725586,-0.0017229914665222168
0.029975971207022667,-0.039384737610816956,-0.0016025665681809187,6.414949893951416e-06,0.004067718982696533,-0.014371991157531738
0.022355249151587486,0.004005041904747486,-0.004636710975319147,-0.010207604616880417,0.0026230812072753906,-0.006165742874145508
-0.07005658745765686,0.0128590427339077,-0.011046741157770157,0.0023903846740722656,-0.003569960594177246,0.020928919315338135
-0.06907147169113159,-0.015310673043131828,0.0053899651393294334,0.02145656943321228,-0.00970369577407837,-0.0018590688705444336
0.048469267785549164,-0.049210213124752045,0.009249708615243435,0.009584154933691025,-0.002151191234588623,-0.03160744905471802
0.08548930287361145,-0.0196756049990654,-0.008047427050769329,-0.015421874821186066,0.0069817304611206055,-0.012150049209594727
0.008349532261490822,0.01399940811097622,-0.023917797952890396,-0.008489377796649933,0.002740323543548584,0.0180395245552063
-0.06883526593446732,0.017355524003505707,-0.008384644985198975,0.015272576361894608,-0.01811128854751587,0.013166606426239014
-0.07574676722288132,-0.012818260118365288,0.009603080339729786,0.014677580446004868,-0.008235633373260498,-0.013614416122436523
-0.010893337428569794,-0.01118300762027502,0.02122044935822487,0.0051735080778598785,-7.581710815429688e-05,-0.023796558380126953
0.005895830690860748,0.022214531898498535,-0.00807212758809328,-0.020225320011377335,0.008315980434417725,-0.012693643569946289
-0.0037919068709015846,0.014233458787202835,-0.01931053213775158,-0.01596252992749214,0.015124142169952393,-0.007126271724700928
0.0021165097132325172,0.027990497648715973,-0.023720774799585342,-0.0030855461955070496,0.0025926828384399414,-0.014483928680419922
0.031031254678964615,0.08893069624900818,-0.017163289710879326,0.0055546835064888,-0.013596415519714355,-0.017001807689666748
0.04422874376177788,0.05131177976727486,-0.024537114426493645,-0.007853135466575623,-0.005433917045593262,-0.014586269855499268
0.02625212073326111,-0.018182093277573586,-0.06321839243173599,-0.009853482246398926,0.006541252136230469,-0.008589982986450195
0.00459988322108984,0.003630007617175579,-0.010889587923884392,0.02621464803814888,-0.010236859321594238,0.016555428504943848
-0.01560063473880291,-0.013569289818406105,0.01657743938267231,0.009865757077932358,-0.005366504192352295,-0.005069077014923096
-0.05168120935559273,-0.0353783555328846,-0.005706088617444038,-0.008999403566122055,0.0035516023635864258,-0.002101123332977295
0.002953923773020506,0.006728292442858219,-0.028625337406992912,-0.021330900490283966,-0.004341185092926025,-0.01885509490966797
0.043369609862565994,-0.01684010773897171,-0.02456747367978096,-0.001463424414396286,-0.004953861236572266,-0.02751767635345459
0.010545549914240837,-0.026521403342485428,0.017407875508069992,0.019850831478834152,-0.013185441493988037,0.008678019046783447
-0.020097531378269196,-0.011201271787285805,0.027004966512322426,0.0031987205147743225,-0.0004767775535583496,0.017449796199798584
-0.005963032133877277,-0.0007696626707911491,0.011613908223807812,-0.0068046897649765015,0.007210075855255127,0.006888031959533691
0.018916597589850426,-0.0028018634766340256,-0.015438016504049301,-0.015403762459754944,0.008974313735961914,-0.004346728324890137
-0.03312106430530548,-0.023300502449274063,-0.0027059009298682213,0.006962351500988007,-0.006556093692779541,0.0035823583602905273
-0.05325775220990181,-0.011251142248511314,-0.006186137907207012,0.0009445361793041229,0.006923079490661621,-0.005920350551605225
-0.06623494625091553,0.02245800942182541,-0.0017736197914928198,-0.0034389346837997437,0.006509900093078613,0.01999831199645996
-0.03955528140068054,0.009676491841673851,-0.012101477943360806,-0.007214896380901337,0.00889432430267334,-0.0004367232322692871
-0.010049764066934586,-0.000970521941781044,-0.007750399876385927,0.002856314182281494,0.0009386539459228516,-0.010369718074798584
-0.03695838153362274,-0.06835409253835678,-0.015971727669239044,0.004690639674663544,-0.008665025234222412,-0.02433115243911743
-0.06487525999546051,-0.02680533565580845,-0.033791664987802505,-0.006134171038866043,-0.00018864870071411133,0.0007831454277038574
-0.056606970727443695,0.028592126443982124,-0.0459049828350544,-0.014475759118795395,-0.004054546356201172,0.006027519702911377
-0.02400459162890911,0.044516079127788544,-0.02735087461769581,3.0465424060821533e-05,-0.003073364496231079,0.0027175545692443848
-0.029091250151395798,0.013322335667908192,-0.013070945627987385,0.0019473880529403687,-0.0036850273609161377,-0.004585385322570801
-0.06599674373865128,-0.04956009238958359,-0.01195121556520462,0.005371320992708206,-0.006485581398010254,-0.019928693771362305
-0.0473165288567543,-0.051557037979364395,0.020894289016723633,0.022251777350902557,-0.013456732034683228,-0.020334482192993164
-0.011060457676649094,-0.02062414214015007,0.015064711682498455,-0.009176693856716156,-0.0014049112796783447,-0.017092585563659668
-0.010434387251734734,0.007885799743235111,0.00841757282614708,-0.011631209403276443,0.00798526406288147,0.004032552242279053
-0.02104639634490013,-6.139511242508888e-05,-0.008480384014546871,-0.010786976665258408,0.0022328197956085205,-0.004078030586242676
-0.0204700268805027,-0.06198572739958763,0.01188169326633215,0.029299050569534302,-0.009660542011260986,-0.016423583030700684
0.016422249376773834,-0.01216994971036911,0.003094507148489356,0.0014828294515609741,-0.006899207830429077,0.0043569207191467285
0.02461385354399681,-0.007007679436355829,0.002105686580762267,-0.0008653402328491211,-0.0036385655403137207,0.006612718105316162
-0.036389730870723724,0.0019460662733763456,-0.015875522047281265,-0.009859714657068253,-0.005203723907470703,0.01467597484588623
-0.04578239098191261,-0.021315569058060646,-0.0024019116535782814,0.008236628025770187,-0.00906670093536377,-0.014868080615997314
-0.03754763305187225,-0.021364038810133934,-0.0023281420581042767,0.0008423291146755219,0.007007390260696411,-0.025866806507110596
0.01119047962129116,-0.03729525953531265,0.012402992695569992,0.009741827845573425,0.0008668005466461182,-0.03841942548751831
0.061236362904310226,0.027036074548959732,0.03008178435266018,0.0007640942931175232,-0.003585904836654663,-0.018383920192718506
0.019919097423553467,0.0056771449744701385,0.02784128673374653,-0.0029946379363536835,-0.0019468367099761963,-0.008783161640167236
-0.051735781133174896,-0.05196050554513931,0.025107942521572113,0.008069105446338654,-0.010619312524795532,0.0014217495918273926
-0.01390501856803894,-0.007279304787516594,0.0032750079408288,-0.016737010329961777,-0.007604628801345825,-0.01319342851638794
0.012171061709523201,-0.01404919009655714,-0.0051453812047839165,-0.010629482567310333,0.0025531649589538574,-0.019069910049438477
-0.020296333357691765,-0.042693886905908585,-0.001143182860687375,-0.0007405877113342285,0.00031244754791259766,0.021362781524658203
0.021935531869530678,-0.020504184067249298,0.013942317105829716,0.0037212749011814594,-0.0007997453212738037,-0.014361381530761719
0.041120707988739014,-0.001523932907730341,0.02516212686896324,0.0068040043115615845,0.0009145140647888184,-0.017736077308654785
0.004205659497529268,-0.020893193781375885,0.026983194053173065,0.0025413259863853455,-0.0010916292667388916,0.0006878376007080078
-0.021247737109661102,-0.02281852811574936,0.020869269967079163,0.0033082631416618824,-0.003544449806213379,0.0033931732177734375
0.04270799085497856,-0.023001788184046745,0.02949390560388565,0.0012283921241760254,-0.0037009119987487793,-0.022359728813171387
0.04097611457109451,-0.015160776674747467,0.03299175947904587,0.010029871016740799,-0.0033686161041259766,-0.0045318603515625
0.014832062646746635,-0.027543846517801285,0.02316649816930294,-0.008657407015562057,-0.005733966827392578,0.0014579296112060547
-0.007229892536997795,-0.0024755364283919334,0.013632038608193398,-0.0034859441220760345,-0.007249563932418823,0.01049119234085083
-0.0020965433213859797,0.003718886524438858,0.02808362804353237,0.008656933903694153,-0.0140572190284729,0.003957092761993408
0.014704571105539799,-0.006563421804457903,0.021359063684940338,-0.004924919456243515,-0.008318871259689331,-0.017972886562347412
0.032352264970541,-0.019150348380208015,0.014984550885856152,-0.006028663367033005,-0.0031769275665283203,-0.01748877763748169
0.04866369068622589,-0.021172944456338882,0.005233891308307648,-0.008799578063189983,-0.0038254261016845703,-0.0033516287803649902
-0.00633986433967948,-0.037780798971652985,0.018003616482019424,-0.0008148066699504852,-0.0032074451446533203,0.02555394172668457
-0.04687253013253212,-0.05092424154281616,0.04224630445241928,0.010786676779389381,-0.006028890609741211,0.024187326431274414
0.016809601336717606,-0.014593219384551048,0.012598128989338875,-0.02245848812162876,0.014750808477401733,-0.024745047092437744
0.05459289997816086,0.011823322623968124,-0.004465464502573013,-0.007043860852718353,0.01013067364692688,-0.027843356132507324
-0.028162101283669472,-0.029967520385980606,-0.011393330059945583,0.00868944264948368,-0.0017880797386169434,0.008955001831054688
-0.08670640736818314,-0.05330479517579079,0.008708055131137371,0.028941452503204346,-0.015157073736190796,0.026191771030426025
-0.02480880357325077,-0.019112680107355118,0.02650471404194832,0.005300011485815048,-0.0006225109100341797,-0.003645479679107666
0.014635210856795311,0.005264813080430031,0.03630080819129944,-0.0017637331038713455,0.008818626403808594,-0.010936081409454346
-0.008518446236848831,-0.02791292406618595,0.010556435212492943,-0.009597834199666977,0.004878908395767212,-0.006211280822753906
0.017063306644558907,-0.04555930197238922,-0.006998472847044468,-0.0072924550622701645,-0.001976907253265381,-0.030133843421936035
0.02695249207317829,-0.01775253750383854,-0.006776300258934498,-0.006132299080491066,-0.011774659156799316,-0.02487701177597046
-0.035530202090740204,0.0012699374929070473,0.0016793895047158003,0.0031664203852415085,-0.007186323404312134,0.010699450969696045
-0.03464984893798828,-0.007341164164245129,-0.022749528288841248,-0.025652891024947166,0.007436782121658325,-0.00944751501083374
0.010379552841186523,-0.01107364147901535,-0.03593658283352852,-0.017781350761651993,0.004594594240188599,-0.016265273094177246
0.06901954114437103,0.012241723015904427,-0.047014594078063965,-0.019082998856902122,0.005332231521606445,-0.014475882053375244
0.02518889680504799,-0.006004029419273138,-0.009441183879971504,0.014268634840846062,-0.007949113845825195,0.005985677242279053
-0.07535382360219955,-0.022197987884283066,-0.0047501507215201855,0.0007460471242666245,-0.002921491861343384,0.024853229522705078
-0.06161409616470337,-0.003023534081876278,-0.009202235378324986,-0.013192310929298401,0.005203992128372192,-0.003742992877960205
-0.0008751009590923786,-0.017875418066978455,-0.01911432482302189,-0.013880414888262749,0.006754577159881592,-0.02444934844970703
0.025416336953639984,-0.01658250018954277,-0.031060468405485153,-0.011775068938732147,0.006421774625778198,-0.016215026378631592
0.014075284823775291,0.0061112381517887115,-0.028094835579395294,0.0031348690390586853,-0.0035083889961242676,-0.0015854239463806152
-0.0563015416264534,-0.0059213885106146336,-0.013645724393427372,0.011843517422676086,-0.008059829473495483,0.009744644165039062
-0.06769932061433792,-0.021216996014118195,0.0015552861150354147,0.0186126921325922,-0.0053570568561553955,-0.0013637542724609375
-0.011089791543781757,0.002120588906109333,-0.015694156289100647,-0.012227794155478477,0.002732574939727783,-0.020908117294311523
-0.004689663182944059,0.011678542010486126,-0.02627149038016796,-0.0037439316511154175,0.0035712122917175293,0.003582477569580078
-0.0073290737345814705,0.019495487213134766,-0.02468758635222912,-0.0015841685235500336,-0.003600180149078369,0.0015110373497009277
-0.043666668236255646,-0.03106933832168579,-0.0322597436606884,0.008048687130212784,-0.011994093656539917,0.0015593171119689941
-0.001379779540002346,-0.021889908239245415,-0.02883136458694935,0.008922716602683067,-0.01010999083518982,-0.01015406847000122
0.10167832672595978,0.007911380380392075,-0.030119771137833595,-0.00247945636510849,-0.002360910177230835,-0.0268247127532959
0.10950884222984314,0.023650672286748886,0.007391050457954407,0.010911041870713234,-0.00857001543045044,0.013544142246246338
-0.010235918685793877,0.015918446704745293,0.00631748279556632,0.007026528939604759,-0.0001895129680633545,0.036629557609558105
-0.07569975405931473,-0.043163713067770004,0.010846901684999466,0.005551658570766449,-0.004112690687179565,0.0033265352249145508
0.010180668905377388,-0.023616880178451538,0.02516470104455948,0.008034544065594673,-0.005761444568634033,-0.03570759296417236
0.11801028251647949,0.07724975049495697,0.04677863046526909,-0.003438735380768776,-0.005001485347747803,-0.03032737970352173
0.02018943801522255,0.03972475975751877,0.0295655969530344,-0.008237237110733986,0.008464574813842773,0.005537629127502441
-0.02884063497185707,0.0015837238170206547,0.001941554481163621,-0.012740092352032661,-0.00048348307609558105,-0.005155086517333984
-0.03208959102630615,-0.018368162214756012,-0.0012021029833704233,-0.0018239505589008331,-0.012401968240737915,-0.00935828685760498
-0.030804850161075592,-0.0033318218775093555,0.03546316921710968,0.019274163991212845,-0.009606659412384033,-0.005287289619445801
-0.03177984058856964,0.0004532085731625557,0.004547593183815479,-0.016181910410523415,0.0026442110538482666,-0.013356804847717285
0.002920541912317276,-0.0049860733561217785,-0.001383320428431034,-0.013353899121284485,0.011834204196929932,-0.02689361572265625
0.012896234169602394,0.0010068549308925867,-0.005262820050120354,-0.003059636801481247,0.0002498924732208252,-0.0032019615173339844
-0.01868552342057228,-0.006827828474342823,0.003843188751488924,0.006686205044388771,-0.010801821947097778,0.008042752742767334
-0.05568801611661911,-0.03577239438891411,0.0038197529502213,0.010038863867521286,-0.011543095111846924,0.012287616729736328
-0.028246650472283363,-0.019098132848739624,0.00045438320375978947,-0.0019172094762325287,-0.008907467126846313,-0.010221779346466064
0.008177240379154682,0.02987555041909218,0.009151438251137733,0.0010686907917261124,0.004265159368515015,-0.0021734237670898438
0.0275013018399477,0.03707512468099594,0.0038065039552748203,-0.01198546588420868,0.007970333099365234,-0.0017240643501281738
0.04236622154712677,0.02586718089878559,0.018187718465924263,0.008292952552437782,-0.004007816314697266,0.0008252263069152832
0.039112478494644165,0.025121551007032394,0.03009544126689434,0.003944724798202515,-0.006160825490951538,-0.0022041797637939453
0.009511381387710571,0.02748987451195717,0.011541122570633888,-0.013369081541895866,7.894635200500488e-05,0.015613973140716553
-0.026691678911447525,0.011878926306962967,0.015374355018138885,0.01852145791053772,-0.009517192840576172,0.0015575885772705078
0.09380579739809036,0.06158473342657089,0.03511211276054382,0.006356758996844292,0.004334539175033569,-0.02704179286956787
-0.008223193697631359,0.014459101483225822,-0.010505955666303635,-0.021029917523264885,0.005290180444717407,0.01191788911819458
-0.13838355243206024,-0.07086363434791565,-0.06486333161592484,-0.030759427696466446,0.008196383714675903,0.0233306884765625
-0.06222803518176079,-0.020927052944898605,-0.04288223385810852,0.0006983932107686996,-0.015525877475738525,-0.030943751335144043
0.058073144406080246,0.03410787507891655,0.0163249634206295,0.01700490713119507,-0.009907752275466919,-0.04009371995925903
-0.03172476589679718,0.0009723464027047157,0.03943302854895592,0.010464537888765335,-0.004484206438064575,0.012197554111480713
-0.10034677386283875,-0.019406335428357124,5.014450289309025e-05,-0.020050305873155594,0.014411687850952148,0.0017123222351074219
-0.0341208353638649,-0.007070796098560095,-0.014296988025307655,-0.010711239650845528,0.0010089874267578125,-0.03385567665100098
0.03714269399642944,-0.00418073358014226,-0.005656096152961254,0.0081486776471138,-0.004468381404876709,-0.03588587045669556
0.07010512053966522,0.013338029384613037,0.009653236716985703,0.008509280160069466,-0.0019933879375457764,-0.02006608247756958
0.04205278679728508,0.019620753824710846,0.02106146141886711,0.013630326837301254,-0.005685657262802124,0.00791013240814209
-0.040453895926475525,-0.034650929272174835,0.015341534279286861,0.007068071514368057,0.0008569657802581787,0.023801147937774658
-0.03874121233820915,-0.00663352943956852,0.0003697620704770088,-0.002546250820159912,-0.005575001239776611,0.008450865745544434
-0.005451792385429144,0.010064305737614632,-0.006708645261824131,-0.005738012492656708,-0.004223138093948364,-0.006444275379180908
0.015919499099254608,0.028773125261068344,-0.0011523618595674634,-0.0006937282159924507,0.0014976859092712402,-0.014779925346374512
-0.00163508509285748,0.023150736466050148,0.004567321389913559,0.0010687699541449547,-0.005818575620651245,-0.011322081089019775
-0.04797741770744324,-0.016891945153474808,0.003990870900452137,0.004702448844909668,-0.002768605947494507,0.0012096762657165527
-0.016525860875844955,-0.007986657321453094,-0.003990555182099342,-0.008379732258617878,-0.003520369529724121,-0.007008373737335205
0.0379674918949604,-0.0046782540157437325,0.011089037172496319,0.00706559419631958,0.0003749728202819824,-0.01980489492416382
0.04664751887321472,0.006353666074573994,0.019880689680576324,0.0022182390093803406,-0.0022961199283599854,-0.0118483304977417
-0.02159416489303112,0.026753593236207962,0.02450087107717991,0.00695405900478363,-0.007245570421218872,0.008292078971862793
-0.08025319874286652,0.0034217718057334423,0.029892919585108757,0.0007378868758678436,-0.005592554807662964,0.011609554290771484
-0.01828254759311676,-0.0129850497469306,0.013730588369071484,-0.010746633633971214,0.0035341084003448486,-0.02127385139465332
0.038011334836483,0.0020040227100253105,0.005591485183686018,-0.011207067407667637,0.0064223408699035645,-0.018214404582977295
0.05275041610002518,-0.006283299531787634,0.014784730970859528,0.004232410341501236,-0.0009658634662628174,-0.005991876125335693
0.009688631631433964,0.02152152732014656,0.027976104989647865,0.014380446635186672,-0.007643193006515503,-0.005332529544830322
-0.011740941554307938,0.021759480237960815,0.022413864731788635,-0.006108460947871208,-0.0019696056842803955,-0.0016161799430847168
-0.041697122156620026,-0.008628938347101212,0.0032278024591505527,-0.013706093654036522,-3.743171691894531e-05,-0.0001296401023864746
-0.008730385452508926,-0.0055372747592628,0.006170328706502914,0.001962164416909218,6.4373016357421875e-06,-0.009063482284545898
0.031291380524635315,0.011986615136265755,0.01272369734942913,0.006265090778470039,-0.013698995113372803,-0.014295101165771484
-0.00224661803804338,0.009036965668201447,0.017357388511300087,0.005794113501906395,-0.0033842921257019043,0.009615123271942139
-0.0015436415560543537,-0.0007598614320158958,0.017655139788985252,-0.007882252335548401,0.0008141398429870605,-0.004989027976989746
-0.02079698257148266,-0.012162867933511734,0.024937354028224945,0.002081962302327156,-0.0012860596179962158,-0.004366695880889893
0.011284824460744858,0.00461400905624032,0.02218671143054962,-0.005733922123908997,-0.00033098459243774414,-0.011350572109222412
0.025965295732021332,0.015548971481621265,0.00738786906003952,-0.008968738839030266,-0.001758575439453125,-0.004190623760223389
-0.01703217625617981,0.013129768893122673,0.010671097785234451,0.0005182959139347076,-0.005472928285598755,0.011959254741668701
-0.04891105368733406,0.0016832416877150536,0.0049978746101260185,-0.00027212686836719513,0.0027306675910949707,0.0034099817276000977
0.004758766852319241,-0.007756502833217382,0.019285136833786964,0.0052340589463710785,-0.00363767147064209,-0.022798001766204834
0.015210367739200592,-0.04303458333015442,0.01495290081948042,-0.0025216620415449142,0.0013186633586883545,-0.009955644607543945
0.004529600031673908,-0.00498742563650012,-0.02153272181749344,-0.027605729177594185,0.0032960176467895508,-0.0016616582870483398
-0.0022268162574619055,0.012461893260478973,-0.014457576908171177,0.0014338605105876923,-0.00915476679801941,-0.010429859161376953
0.01282593235373497,0.019269883632659912,-0.014144202694296837,-0.00836154818534851,-0.005965054035186768,-0.012392759323120117
-0.009670810773968697,-0.007860114797949791,0.001419710461050272,0.0026980414986610413,-0.004726827144622803,0.001801609992980957
-0.027497664093971252,-0.02357366308569908,0.0039750272408127785,0.003472970798611641,-0.0030304789543151855,-0.00687021017074585
-0.018499739468097687,-0.00918731838464737,-0.020298300310969353,-0.011016732081770897,-0.0026670098304748535,-0.011617600917816162
0.011301534250378609,-0.012815749272704124,-0.004678256344050169,0.0043412744998931885,-0.005020439624786377,-0.009076058864593506
0.012855786830186844,-0.010794535279273987,0.019204366952180862,0.009499909356236458,-0.005668163299560547,-0.003718733787536621
-0.020649900659918785,-0.011515423655509949,0.02310192584991455,-0.0017447806894779205,-0.00019881129264831543,0.00791788101196289
-0.018922727555036545,0.010509775020182133,0.01338957529515028,-0.001214573159813881,-0.0016166865825653076,0.008916258811950684
0.029914963990449905,0.004017045721411705,0.007913781329989433,-0.0007280595600605011,-0.0033608675003051758,-0.03079146146774292
0.033379558473825455,-0.001953304745256901,0.0010595920030027628,-0.002260969951748848,0.003550887107849121,-0.012816011905670166
0.0018641334027051926,0.012793626636266708,0.005614464171230793,0.0009475424885749817,-0.00025215744972229004,0.003923356533050537
-0.02338697575032711,0.002496871864423156,0.002960348967462778,0.0029857996851205826,-0.0028651952743530273,0.0030854344367980957
-0.0008421647362411022,-0.00684651592746377,-0.004452826455235481,-0.0040414296090602875,0.0002276897430419922,-0.014297425746917725
0.03761576488614082,-0.0022225920110940933,-0.007463858462870121,-0.0006483141332864761,0.002065986394882202,-0.0230562686920166
0.04778364300727844,0.018453868106007576,-0.00032290443778038025,-0.0008988529443740845,-0.0017169415950775146,-0.003663301467895508
0.02008208818733692,0.03436193987727165,0.019030999392271042,0.004859313368797302,-0.005094438791275024,0.012034773826599121
-0.051880210638046265,-0.015181646682322025,0.011756197549402714,0.0005464442074298859,-0.004389643669128418,0.009252786636352539
-0.02328713983297348,-0.006874032784253359,-0.0010212452616542578,-0.009341808035969734,-0.0007315278053283691,-0.012166142463684082
0.025727830827236176,-0.02376377582550049,-0.00586507935076952,-0.0066852811723947525,-0.0038111209869384766,-0.028769612312316895
0.02635182812809944,0.004843492526561022,-0.00966439675539732,-0.002816706895828247,-0.001717209815979004,0.0005465149879455566
0.026830030605196953,0.04672647640109062,0.012250255793333054,-0.0005116630345582962,-0.007726162672042847,0.013800978660583496
-0.0061357165686786175,0.012917596846818924,0.008413655683398247,-0.0004006456583738327,0.0006337165832519531,-0.004536807537078857
-0.0014317072927951813,-0.03183532506227493,0.0217745304107666,0.0030369721353054047,-6.559491157531738e-05,-0.009156286716461182
0.02663099765777588,1.8818769603967667e-05,-0.009861943311989307,-0.0087373536080122,-0.002085387706756592,-0.02023756504058838
0.0257931649684906,0.0198053065687418,-0.004900207743048668,-0.0067385416477918625,0.002852410078048706,-0.004296481609344482
0.003578856587409973,0.025237204506993294,-0.004898102022707462,0.0014232918620109558,-0.006386011838912964,0.01291745901107788
-0.019307240843772888,0.00371315935626626,-0.010255981236696243,0.005272015929222107,-0.004905730485916138,-0.004900634288787842
-0.01657892018556595,-0.026701513677835464,-0.01023947261273861,0.0021142810583114624,-0.0003453493118286133,-0.009594142436981201
0.0032244082540273666,-0.017003322020173073,-0.016891440376639366,-0.00413699634373188,0.0017024874687194824,-0.01360476016998291
0.02798246219754219,0.011200599372386932,6.950856186449528e-05,0.0009220074862241745,-0.00013333559036254883,-0.010191380977630615
-0.00015416927635669708,-0.0032211248762905598,0.00040980009362101555,0.00212739035487175,-0.0022332370281219482,0.007855892181396484
-0.009909255430102348,-0.03214459493756294,-0.005525542888790369,-0.006401343271136284,-0.0068579018115997314,-0.007787108421325684
-0.00836921762675047,-0.02761685475707054,0.000733088469132781,-0.004131156951189041,-0.0019641220569610596,-0.01185542345046997
-0.004069785587489605,0.013388914056122303,-0.01288718730211258,-0.00972474180161953,-0.0034492313861846924,-0.007081806659698486
-0.021403376013040543,-0.0017519169487059116,-0.017528917640447617,0.0037841293960809708,0.001635730266571045,0.008293867111206055
0.022842537611722946,0.00766549538820982,-0.019293194636702538,0.004490472376346588,-0.005376636981964111,-0.01265937089920044
0.006881703622639179,-0.0361488051712513,0.00029401318170130253,0.013301549479365349,-0.006926834583282471,-0.00673598051071167
-0.03721345216035843,-0.024334682151675224,-0.002690467983484268,-0.007626902312040329,-0.00024271011352539062,0.006511867046356201
-0.016267355531454086,0.0010659208055585623,0.0012465459294617176,-0.005526350811123848,-0.003379225730895996,-0.014017283916473389
0.023706156760454178,0.011669407598674297,0.0015789277385920286,0.00042140111327171326,-0.0016061365604400635,-0.00824427604675293
0.039796359837055206,0.0036392919719219208,-0.007500876672565937,0.0020497608929872513,-0.003237307071685791,-0.01441049575805664
-0.002508800709620118,-0.01594509556889534,0.004636358469724655,0.01012488268315792,-0.006555348634719849,-0.010090053081512451
-0.03588826209306717,0.0018796124495565891,0.009054338559508324,0.003144875168800354,-0.0027931034564971924,0.006577610969543457
-0.033301666378974915,-0.020676638931035995,0.0043864925391972065,-0.00313761830329895,0.001496821641921997,-0.0008962750434875488
0.01423939410597086,0.0029169032350182533,-0.012188205495476723,-0.012783894315361977,0.0037328004837036133,0.00218355655670166
0.01383577287197113,-0.0017846878618001938,0.004326763562858105,0.008408688008785248,-0.005070626735687256,0.0033110380172729492
-0.013060225173830986,0.018625792115926743,0.005052024498581886,0.006290009245276451,-0.005330801010131836,-0.001967787742614746
-0.050862930715084076,-0.009883172810077667,-0.00035359920002520084,0.007875282317399979,-0.006552904844284058,-0.00578993558883667
-0.00863667018711567,0.0036456615198403597,-0.004359448794275522,0.0026420392096042633,-0.003832191228866577,-0.007642209529876709
0.07045557349920273,0.022742852568626404,-0.003518971148878336,-0.006352556869387627,-0.005203992128372192,-0.026638269424438477
0.024959567934274673,0.0071350401267409325,0.0012936145067214966,-0.0014570187777280807,0.0001106560230255127,0.0029154419898986816
-0.026463139802217484,0.012238707393407822,0.0030001376289874315,0.002453504130244255,-0.008871674537658691,0.004370689392089844
-0.01808880642056465,-0.0019447295926511288,0.016528917476534843,0.006185224279761314,-0.00451970100402832,-0.02082616090774536
0.012270132079720497,-0.02737778052687645,0.005466782953590155,-0.0063842348754405975,0.0008178353309631348,-0.017698228359222412
0.05280929058790207,0.0033196567092090845,0.012180636636912823,-0.004891540855169296,-0.00275266170501709,-0.01106804609298706
0.040372662246227264,0.03711614012718201,0.01349496841430664,-0.0030289217829704285,-0.00531613826751709,0.00702667236328125
-0.05402960628271103,-0.008648496121168137,0.011060452088713646,0.0005787257105112076,-0.004181265830993652,0.022489726543426514
-0.06398414075374603,-0.03395617753267288,0.009409528225660324,0.0037655197083950043,-0.0039001107215881348,-0.003292083740234375
0.02620355598628521,-0.011540540494024754,0.0029995583463460207,-0.004842299968004227,-0.001318812370300293,-0.03902781009674072
0.0746302381157875,0.01337699219584465,0.0040572574362158775,-0.0030660945922136307,-0.00033667683601379395,-0.019650697708129883
0.022670473903417587,0.018355928361415863,-0.0030670068226754665,-0.0034895800054073334,-0.004634499549865723,0.018101811408996582
-0.045380037277936935,-0.01807268336415291,-0.0064281923696398735,-0.0007527507841587067,-0.0068718791007995605,0.01979243755340576
-0.02786930836737156,-0.030666273087263107,0.009559554047882557,0.007195210084319115,-0.012096941471099854,-0.01565682888031006
0.00632314570248127,-0.039910636842250824,0.009686502628028393,-0.0026333723217248917,-0.0036170780658721924,-0.027562499046325684
0.056857671588659286,0.0018348325975239277,-0.005601062439382076,-0.020984122529625893,0.0048303306102752686,-0.02152717113494873
0.03644471988081932,-0.005192746873944998,-0.0026806513778865337,-0.002287842333316803,-0.008871018886566162,-0.005975782871246338
-0.03580102324485779,-0.043559566140174866,0.007624821737408638,0.015516143292188644,-0.009968489408493042,0.002108156681060791
-0.00943712517619133,-0.02878451719880104,0.023816512897610664,0.006012095138430595,-0.005435675382614136,-0.01772785186767578
0.05620342493057251,0.008671371266245842,0.03160221129655838,-0.0032323431223630905,0.002312302589416504,-0.02204650640487671
0.024670595303177834,0.0057709249667823315,0.007841578684747219,-0.012031925842165947,-0.0008354485034942627,0.010567545890808105
0.0057678548619151115,-0.052108291536569595,-0.00824771262705326,-0.002583492547273636,0.0015598535537719727,0.0016012191772460938
0.046536218374967575,-0.030044272541999817,0.000795604893937707,0.009428141638636589,-0.005480319261550903,-0.010956346988677979
0.03970693424344063,0.03003702312707901,0.0034123617224395275,-0.010993359610438347,-0.00022840499877929688,0.007426559925079346
-0.01949452981352806,0.028816478326916695,-0.013937064446508884,-0.008064240217208862,0.00375288724899292,0.02569127082824707
0.032966986298561096,0.02884877659380436,-0.0064035020768642426,0.007195254787802696,-0.005725175142288208,-0.00972139835357666
0.03843091055750847,-0.01830039545893669,-0.008907679468393326,0.004807634279131889,-0.001598656177520752,-0.0075157880783081055
-0.009890105575323105,-0.03651539236307144,-0.01988922990858555,-0.008497299626469612,0.005341291427612305,0.015744328498840332
0.037256427109241486,0.01315187569707632,0.0032907689455896616,0.0006469860672950745,-0.008388221263885498,-0.017810046672821045
0.013473468832671642,0.023903945460915565,0.004973471164703369,-6.358511745929718e-05,-0.005623877048492432,0.006464123725891113
-0.0388658344745636,-0.010039199143648148,-0.013304809108376503,-0.007717866450548172,-0.001958310604095459,0.010850071907043457
-0.015150409191846848,-0.02010038122534752,-0.012454383075237274,-0.00029183924198150635,-0.00549769401550293,-0.013595342636108398
0.005546418018639088,-0.010947825387120247,-0.008422055281698704,0.004763821139931679,-0.010124266147613525,-0.020053565502166748
-0.020491331815719604,-0.008739553391933441,-0.004293281584978104,0.0024246294051408768,-0.002384394407272339,-0.013264060020446777
0.0025667124427855015,0.0359879769384861,0.01437405962496996,0.007514346390962601,-0.0059847235679626465,0.002064645290374756
0.02211955562233925,0.027893442660570145,0.008961141109466553,-0.0023484621196985245,-0.0041529834270477295,0.0011988282203674316
0.01754136011004448,-0.013271154835820198,-0.010677669197320938,-0.0015267841517925262,-0.0025916993618011475,-0.0035749077796936035
0.002777081448584795,-0.003895106725394726,-0.016011232510209084,0.006624368950724602,-0.007216811180114746,-0.007123768329620361
-0.01236276887357235,0.0022431490942835808,-0.01130872406065464,0.009204259142279625,-0.009740978479385376,-0.011552512645721436
-0.0011562732979655266,0.029249882325530052,-0.014692848548293114,-0.007322775200009346,0.003470182418823242,-0.007651567459106445
0.04091683775186539,0.0236901193857193,-0.02517731860280037,-0.004645755514502525,-0.0002084970474243164,-0.01712965965270996
0.0657832995057106,0.0073204655200243,-0.030806709080934525,-0.0064177680760622025,0.0006646811962127686,-0.013510465621948242
0.018114937469363213,-0.0022879200987517834,-0.021872593089938164,0.006057513877749443,-0.008731067180633545,0.01247793436050415
-0.013848052360117435,0.010834435001015663,-0.01654869131743908,-0.0029275864362716675,-0.007598608732223511,0.008280932903289795
0.01215897686779499,-0.006079372949898243,-0.0049408068880438805,-0.004085427150130272,-0.0033415257930755615,-0.013245999813079834
0.03835955634713173,0.0015831596683710814,-0.0032341345213353634,-0.008002232760190964,0.001015394926071167,-0.013752937316894531
0.02747388370335102,-0.0238342247903347,-0.020795520395040512,-0.008419590070843697,0.0022829174995422363,-0.013913929462432861
0.009419565089046955,-0.01323462650179863,-0.018179146572947502,-0.005513215437531471,-0.0013298988342285156,0.0015436410903930664
-0.006614731624722481,-0.007322925142943859,-0.007222020532935858,0.004721710458397865,-0.004379630088806152,-0.002640247344970703
0.0019746036268770695,0.007766697555780411,0.008305501192808151,-0.002182956784963608,-0.005425393581390381,0.001827836036682129
-0.0022164240945130587,-0.023393169045448303,0.003706767689436674,-0.0027754195034503937,0.0020789802074432373,-0.0036810636520385742
0.017050432041287422,-0.017028506845235825,-0.02068178728222847,-0.014804663136601448,0.003859490156173706,-0.012128710746765137
0.0160836074501276,-0.0043569388799369335,-0.026961704716086388,0.00019381940364837646,-0.0026999711990356445,-0.012925803661346436
-0.006001739297062159,0.008635892532765865,-0.01498120091855526,0.009777003899216652,-0.00700792670249939,-0.0059233903884887695
-0.020318176597356796,0.002024981426075101,-0.017485398799180984,0.0030858516693115234,-0.0023444294929504395,0.0014142990112304688
-0.006524470169097185,-0.017761314287781715,-0.018529748544096947,0.00380677729845047,0.0011670887470245361,-0.0033803582191467285
0.019000902771949768,-0.02407248690724373,-0.02597125619649887,0.002644471824169159,0.00038573145866394043,-0.0054264068603515625
0.02750140056014061,0.0013366686180233955,-0.02838125452399254,-0.0020528286695480347,0.00010657310485839844,-0.003999650478363037
0.0313478522002697,0.017961248755455017,-0.008229810744524002,0.004551766440272331,-0.0050157904624938965,5.805492401123047e-05
-0.017866209149360657,-0.008548188023269176,0.0035024601966142654,0.009150665253400803,-0.0029491782188415527,0.010983943939208984
-0.02537699043750763,-0.04257041960954666,-0.010952498763799667,-0.009099196642637253,0.007416665554046631,-0.0036475658416748047
0.013107860460877419,-0.020435675978660583,-0.011391515843570232,-0.0007596909999847412,-0.0020131468772888184,-0.020313739776611328
0.004884841851890087,0.028608594089746475,-0.01015801914036274,-0.007145507261157036,-0.007367491722106934,0.010515749454498291
-0.03639786317944527,0.017173634842038155,-0.00536251300945878,0.005447061732411385,-0.009385466575622559,0.00885242223739624
-0.011422114446759224,-0.002123960293829441,-0.0026572938077151775,0.0025862716138362885,-0.0032864511013031006,-0.012747645378112793
0.009746905416250229,-0.016344591975212097,-0.01253304909914732,-0.00027108006179332733,0.0007711946964263916,-0.01949489116668701
0.028065597638487816,-0.015142708085477352,-0.02974604070186615,-0.010228266939520836,0.002469092607498169,-0.01325368881225586
0.03380947932600975,9.667454287409782e-05,-0.01897001452744007,0.0035594645887613297,-0.0054013729095458984,-0.004511415958404541
0.02231895923614502,0.014328723773360252,0.006869967561215162,0.014267196878790855,-0.012850344181060791,0.017886459827423096
-0.008793487213551998,0.007504730951040983,0.015092418529093266,0.00048415176570415497,-1.9848346710205078e-05,0.0034203529357910156
-0.034857045859098434,-0.017624590545892715,0.004360411316156387,-0.0024542436003684998,0.0032671093940734863,-0.004646420478820801
-0.015496352687478065,-0.015702437609434128,0.003476646263152361,0.0063079409301280975,-0.004747271537780762,-0.01818549633026123
0.015058962628245354,0.0015320130623877048,-0.0039825658313930035,-0.003292502835392952,0.005909264087677002,-0.008746743202209473
0.022187329828739166,0.0137619124725461,0.014311880804598331,0.013100355863571167,-0.0013535618782043457,0.0023080110549926758
-0.014785576611757278,0.00139626394957304,0.020530514419078827,0.00804905965924263,-0.0007457733154296875,0.012781798839569092
-0.03954911604523659,-0.0012069758959114552,0.0020227942150086164,-0.001466996967792511,-0.00258830189704895,0.008759081363677979
-0.010643786750733852,-0.004768713843077421,-0.017196187749505043,-0.004568345844745636,-0.005458921194076538,-0.010291218757629395
0.01624266617000103,-0.0036981571465730667,-0.02147979848086834,-0.0012905243784189224,-0.007961839437484741,-0.005130648612976074
0.003601047210395336,-0.004093211609870195,-0.014306247234344482,0.0020114853978157043,-0.008130818605422974,-0.009956598281860352
-0.025959758087992668,0.001287671271711588,-0.00287785311229527,0.002802623435854912,-0.007375985383987427,-0.012009739875793457
-0.035639435052871704,-0.00426159892231226,-0.006598916836082935,-0.0033099465072155,-0.0049502551555633545,-0.009049654006958008
0.014632651582360268,-0.0007344977930188179,-0.012427867390215397,-0.008628882467746735,-0.0011702179908752441,-0.0171927809715271
0.06991098821163177,0.0033372172620147467,-0.006959050428122282,-0.002466835081577301,-0.007839083671569824,-0.016484439373016357
0.0392451211810112,-0.004641631152480841,0.005230053793638945,0.005270788446068764,-0.010457754135131836,0.001400589942932129
-0.026593992486596107,-0.03974320739507675,0.008573357947170734,0.0025807488709688187,-0.006448328495025635,0.0006127357482910156
-0.036261703819036484,-0.01775364950299263,0.0051266467198729515,-0.007383707910776138,-0.002429664134979248,0.006281077861785889
0.00545868556946516,0.00023030629381537437,0.01108515914529562,-0.00275471992790699,-0.001904308795928955,-0.006423354148864746
0.015674129128456116,0.004868134390562773,0.0004609932657331228,-0.007368586957454681,0.0016063451766967773,0.003809511661529541
0.0038845110684633255,0.00448429211974144,0.00013738963752985,0.000599939376115799,-0.0037088394165039062,0.0013235211372375488
-0.02822164073586464,-0.008586383424699306,-0.0042540146969258785,0.007814450189471245,-0.006174683570861816,0.0016611218452453613
-0.03463604673743248,-0.018033267930150032,-0.00923942495137453,-0.0005736555904150009,-0.0023784637451171875,-0.003116011619567871
-0.013513843528926373,-0.017950745299458504,-0.00894983485341072,0.0016215890645980835,0.00033158063888549805,-0.005161702632904053
0.046158622950315475,0.014603886753320694,-0.006124729290604591,-0.007094770669937134,0.0008630454540252686,-0.01993119716644287
0.01839807629585266,0.012910090386867523,-0.0021445569582283497,0.003559572622179985,-0.0030118823051452637,-0.009932100772857666
-0.041067227721214294,-0.015459476038813591,-0.00141048280056566,0.006991816684603691,-0.006766915321350098,0.010244667530059814
-0.03685279190540314,-0.012464800849556923,-0.005082722753286362,-0.0008546505123376846,-0.010817468166351318,-0.006631791591644287
-0.019037239253520966,-0.028649993240833282,-0.0033377560321241617,-8.518807590007782e-05,-0.0057146549224853516,0.002809464931488037
0.03326907381415367,-0.004289006814360619,-0.000730350730009377,-0.008506076410412788,0.0003261566162109375,-0.011574149131774902
0.023236393928527832,0.001171882264316082,-0.00150053552351892,0.0002147667109966278,-0.0008869171142578125,-0.013009190559387207
-0.02087167650461197,-0.025009386241436005,-0.004886212293058634,-0.0003376491367816925,-0.007046222686767578,-0.0010083317756652832
-0.049844805151224136,0.001612096093595028,-0.0005493415519595146,0.0005930103361606598,-0.010473370552062988,0.020132362842559814
-0.054462701082229614,-0.014506133273243904,-0.0010924353264272213,-0.0010814573615789413,0.0031433403491973877,0.0031876564025878906
0.011066727340221405,-0.001630593091249466,-0.002008942887187004,0.0017793476581573486,0.005515068769454956,-0.024700522422790527
0.07152578979730606,0.015441839583218098,0.0014484520070254803,0.0013392306864261627,0.0023801326751708984,-0.038292527198791504
0.028114404529333115,-0.012898138724267483,-0.0037306395824998617,0.000593157485127449,-0.0055144429206848145,-0.006643414497375488
0.0006036553531885147,-0.015971599146723747,-0.015943804755806923,-0.002411993220448494,-0.009271085262298584,4.1365623474121094e-05
0.012496109120547771,-0.015642546117305756,-0.007306678220629692,0.0010355189442634583,-0.00821840763092041,-0.004096269607543945
0.0076002441346645355,-0.005635247100144625,0.0018175560981035233,-0.0006447881460189819,0.0010675787925720215,0.0037123560905456543
0.004070157650858164,0.02051069214940071,0.006748871877789497,-0.004721818491816521,0.001147449016571045,-0.003048121929168701
-0.022476986050605774,-0.0023246994242072105,0.00446322001516819,-0.0011991746723651886,-0.0008640587329864502,-0.0053473711013793945
-0.0059534478932619095,-0.020665504038333893,-0.002417195588350296,8.193030953407288e-05,-0.00047010183334350586,-0.0171012282371521
0.0019326400943100452,-0.0034055658616125584,0.007418569643050432,0.011368153616786003,-0.006252020597457886,-0.0022779107093811035
-0.005772417411208153,-0.0067994981072843075,0.0010663983412086964,-0.0008389409631490707,-0.0011284947395324707,0.0024461746215820312
-0.012935700826346874,0.013090888038277626,-0.008388347923755646,-0.005669752135872841,-0.0006844997406005859,0.01126718521118164
-0.007201871369034052,-0.01209314726293087,-0.005241951439529657,0.002992304041981697,-0.006888687610626221,0.0005088448524475098
-0.0011173184029757977,-0.014430424198508263,-0.002393530448898673,0.0026166457682847977,-0.007519751787185669,-0.01040118932723999
0.005841473117470741,0.0006198599003255367,-0.0057479003444314,-0.002049589529633522,-0.0069811344146728516,-0.00850069522857666
0.026347476989030838,0.02373788133263588,4.551047459244728e-05,-0.003642287105321884,-0.004702866077423096,-0.01040869951248169
0.0031050946563482285,0.018632275983691216,0.004488706588745117,-0.0022057238966226578,-0.003296077251434326,-0.00743257999420166
0.01528392918407917,0.004127458669245243,0.010361982509493828,-0.003346238285303116,0.0010672211647033691,-0.016503214836120605
0.007130662444978952,-0.023677274584770203,0.008732660673558712,0.005234118551015854,-0.0085679292678833,-0.019531428813934326
0.021033115684986115,-0.04049626737833023,0.009797289967536926,-0.0006845910102128983,-0.004050314426422119,-0.011123418807983398
0.035885389894247055,-0.004518709611147642,0.020142819732427597,-0.0019400790333747864,-0.002437770366668701,-0.0005641579627990723
0.04333232343196869,0.005963585339486599,0.035806406289339066,0.0058068521320819855,-0.0021019577980041504,-0.008777618408203125
0.03117419220507145,0.0036261286586523056,0.03578243777155876,-0.005643680691719055,0.0003910660743713379,-0.003921985626220703
-0.011877046898007393,-0.019774340093135834,0.018866823986172676,-0.0031958334147930145,-0.004296779632568359,0.007725417613983154
-0.018919823691248894,-0.017913101240992546,-0.001613798551261425,-0.003679344430565834,-0.00655817985534668,0.008318781852722168
0.015477878972887993,0.02392813377082348,0.0025594893377274275,0.0019968505948781967,-0.0027176737785339355,0.0022286176681518555
0.0008316072635352612,0.02317502349615097,0.003399040549993515,-0.004301898181438446,0.001550912857055664,0.018145203590393066
-0.051084596663713455,-0.010572865605354309,0.005213490687310696,-0.0006779227405786514,0.004398822784423828,0.0150032639503479
-0.039012037217617035,-0.016853537410497665,-0.004822662565857172,-0.004836784675717354,0.002746760845184326,-0.00912386178970337
-0.0017833751626312733,0.02680729329586029,-0.013091981410980225,-0.008305570110678673,-0.0010230541229248047,-0.017040371894836426
-0.03861035034060478,0.022500133141875267,-0.020270563662052155,0.0006673615425825119,-0.005259871482849121,0.0006211996078491211
-0.030724171549081802,0.007015209645032883,-0.01514032855629921,-0.0035733766853809357,-0.004319310188293457,-0.011028945446014404
0.011971203610301018,0.005115634761750698,-0.006396707147359848,0.004608724266290665,-0.003239452838897705,-0.028878450393676758
-0.003726644441485405,-0.01731329970061779,-0.013765338808298111,-0.002172088250517845,-0.0021633803844451904,-0.010028243064880371
-0.0026624889578670263,-0.002848756965249777,-0.021488111466169357,-0.003669271245598793,-0.005675286054611206,0.003497779369354248
0.020768199115991592,0.022406358271837234,-0.015680881217122078,-0.0019185487180948257,-0.007757008075714111,-0.007450699806213379
-0.007983818650245667,0.010952368378639221,-0.009717531502246857,0.0034973174333572388,-0.00903773307800293,0.007393360137939453
-0.019037777557969093,-0.023512372747063637,0.010153035633265972,0.002941114827990532,-0.0035133659839630127,-0.007180452346801758
0.011014465242624283,-0.018150992691516876,0.025406084954738617,0.0028459448367357254,-0.0056768059730529785,-0.017564773559570312
0.0060133785009384155,-0.004895895253866911,-0.000934090930968523,-0.015224644914269447,0.0029963552951812744,-0.008073568344116211
0.01783304288983345,0.00224779243580997,-0.019035672768950462,-0.0028318744152784348,5.626678466796875e-05,-0.005237221717834473
0.025870636105537415,-0.010211390443146229,-0.015594814904034138,0.007736744359135628,-0.006482601165771484,-0.0021938085556030273
0.012574316933751106,0.0048254141584038734,4.549883306026459e-05,-0.001722920686006546,-0.002140641212463379,0.009090125560760498
-0.01983838714659214,-0.0001705847680568695,0.004716911353170872,-0.0038522332906723022,-0.0030553340911865234,0.0016187429428100586
-0.023178858682513237,0.017188793048262596,-0.014269359409809113,-0.008277438580989838,-0.008256196975708008,-0.0030660629272460938
-0.014143025502562523,0.0032715757843106985,-0.031783849000930786,0.000336257740855217,-0.004283279180526733,-0.014044106006622314
0.024951782077550888,-0.0042477683164179325,-0.019386986270546913,0.006073145195841789,-0.005723774433135986,-0.021680057048797607
0.0034732986241579056,-0.012472439557313919,0.013507304713129997,0.013428306207060814,-0.00038486719131469727,-0.014881432056427002
-0.0185357965528965,-0.009955309331417084,0.012992307543754578,-0.0037668198347091675,0.005284905433654785,-0.004971146583557129
0.026065804064273834,0.020964937284588814,0.004781121388077736,-0.00988740660250187,0.005919039249420166,-0.01687157154083252
0.03335042670369148,0.023410722613334656,-0.0020426653791218996,-0.002797432243824005,-0.00801098346710205,0.0007225871086120605
-0.03997424244880676,-0.008861459791660309,0.004558376036584377,0.013515686616301537,-0.006929159164428711,0.019580543041229248
-0.02503967471420765,-0.01270109973847866,0.006908301264047623,0.0011379793286323547,-0.003606140613555908,-0.004148244857788086
0.04378363862633705,-0.00453969044610858,0.0011091383639723063,-0.003468036651611328,-0.0017234086990356445,-0.023932218551635742
0.04937729611992836,0.0007801905740052462,-0.0022867699153721333,-0.003051506355404854,0.00109785795211792,-0.005712747573852539
0.0012975302524864674,0.02753787860274315,-0.005645723082125187,-0.0006159767508506775,-0.012177824974060059,0.006813943386077881
-0.026393359526991844,0.023137059062719345,-0.017134184017777443,-0.008208919316530228,-0.004849851131439209,-4.935264587402344e-05
0.0042348518036305904,-0.011910304427146912,-0.001113647362217307,-1.9080936908721924e-05,-0.007448375225067139,-0.022989332675933838
0.017258796840906143,-0.035760216414928436,-0.006997447460889816,-0.012739120051264763,-0.00295943021774292,-0.026068449020385742
0.015370283275842667,-0.01781441643834114,-0.035415031015872955,-0.008235745131969452,-0.005658328533172607,-0.0068094730377197266
-0.04616209492087364,-0.018884889781475067,-0.025004075840115547,0.008803023025393486,-0.018839716911315918,-0.0008782744407653809
-0.005055720452219248,-0.0021262061782181263,-0.020995592698454857,-0.009884865954518318,-0.012554466724395752,-0.01741969585418701
0.008211905136704445,-0.021870054304599762,-0.018244363367557526,-0.011774320155382156,-0.002375006675720215,-0.013402104377746582
0.04511566460132599,-0.01739533804357052,-0.0015521649038419127,-0.0046251919120550156,-0.006215214729309082,-0.007768988609313965
0.0591307058930397,-0.021660448983311653,-0.0018319952068850398,-0.001346733421087265,-0.006317317485809326,-0.016219794750213623
0.03221551328897476,-0.019734296947717667,-0.018293656408786774,-0.004465790465474129,0.0020142197608947754,-0.005088925361633301
-0.007015978917479515,-0.03973286971449852,-0.009723009541630745,0.007650172337889671,-0.004466354846954346,0.004290401935577393
0.003459629602730274,-0.02670573629438877,-0.006432058289647102,0.004966173321008682,0.007100045680999756,-0.005025982856750488
0.02907140552997589,-0.009127866476774216,-0.0023863816168159246,-0.000285981222987175,0.011785924434661865,-0.0034584999084472656
0.057320378720760345,0.021265750750899315,-0.009974070824682713,0.004167530685663223,0.00576406717300415,-0.0011341571807861328
0.04712683707475662,0.01858072727918625,-0.004603463225066662,0.011715279892086983,0.0019074082374572754,0.001468062400817871
-0.010979119688272476,0.003035439644008875,-0.009444694966077805,0.0142917949706316,0.003023207187652588,0.0109483003616333
-0.020863711833953857,-0.01239455584436655,-0.01879528909921646,0.000822804868221283,0.006879866123199463,0.004236459732055664
0.008124247193336487,-0.0005042972043156624,0.0022184064146131277,0.016502439975738525,0.006297945976257324,0.005527913570404053
0.027959153056144714,0.03087903931736946,-0.008660108782351017,-0.0038774553686380386,0.0073316097259521484,-0.001464545726776123
0.005530324764549732,0.022348659113049507,-0.012729891575872898,-0.0020689498633146286,0.0005306601524353027,0.0047026872634887695
-0.01932244561612606,0.015178317204117775,-0.031134823337197304,-0.006024627014994621,-0.004794418811798096,0.0047833919525146484
-0.028178095817565918,-0.0008655437268316746,-0.01839127577841282,0.014060474932193756,-0.01652669906616211,-0.003868401050567627
0.0366927906870842,0.006285121664404869,0.004842662718147039,0.0043832529336214066,-0.00043511390686035156,-0.028625845909118652
0.05399424210190773,0.0002179313451051712,0.0017497653607279062,-0.015819715335965157,0.003627955913543701,-0.01605677604675293
-0.03256623446941376,0.029634278267621994,-0.015477902255952358,-0.01658843457698822,-0.003665030002593994,0.03577154874801636
-0.06595893204212189,0.018631210550665855,-0.031086863949894905,-0.00509653240442276,-0.012094318866729736,0.01612246036529541
-0.03308610990643501,-0.0093026552349329,-0.030921470373868942,0.0024154186248779297,-0.013574659824371338,-0.008557438850402832
0.005275770556181669,-0.029516790062189102,-0.011003493331372738,0.01230342872440815,-0.012427568435668945,-0.01814979314804077
0.044918328523635864,0.00709935138002038,0.007090591825544834,-0.0005623921751976013,-0.0024203062057495117,-0.028464198112487793
0.01615091972053051,0.039269376546144485,0.00039205746725201607,-0.008549584075808525,-0.000509798526763916,-0.004812121391296387
-0.03708941861987114,0.002119228010997176,-0.0004657002864405513,0.0016724951565265656,-0.007652699947357178,0.010552406311035156
-0.011021948419511318,0.02127467282116413,0.01079411432147026,0.0007096342742443085,-0.007367372512817383,-0.008224964141845703
-0.011462129652500153,-0.008382830768823624,0.03339305892586708,0.014124292880296707,-0.008600234985351562,-0.023985326290130615
-0.003337846603244543,0.013439260423183441,0.019678449258208275,-0.0006616786122322083,0.0031195878982543945,-0.015450537204742432
0.01620562933385372,0.020832013338804245,0.02499903365969658,0.006937215104699135,-0.0029178857803344727,-0.010551691055297852
0.033953797072172165,0.03903019800782204,0.034085556864738464,0.0064088888466358185,-0.007227897644042969,0.0008066296577453613
0.06690988689661026,0.04303000122308731,0.03489569574594498,-0.0027241893112659454,-0.0021930932998657227,-0.004837512969970703
0.01413964107632637,0.004230594262480736,0.0030857298988848925,0.0005133971571922302,0.007411003112792969,0.011161088943481445
0.021684816107153893,0.0036181393079459667,-0.0039037219248712063,-0.00040502287447452545,-0.005476057529449463,-0.0038941502571105957
0.02478586882352829,0.02297896146774292,-0.013814881443977356,-0.0030209291726350784,-0.006515681743621826,-0.0074225664138793945
0.00841333158314228,0.026982109993696213,-0.015378552488982677,-0.00489170104265213,-0.003638744354248047,-0.0023540258407592773
-0.01833878830075264,-0.006945047993212938,-0.019320683553814888,-0.008381549268960953,0.0013259649276733398,0.006057560443878174
0.017715217545628548,-0.03242945671081543,-0.014410730451345444,-0.004083698615431786,0.00019282102584838867,-0.022634804248809814
0.013687962666153908,-0.01740633137524128,-0.011789031326770782,-0.0006910152733325958,-0.0040839314460754395,-0.010502994060516357
-0.0007107262499630451,0.001100537134334445,-0.010648306459188461,-0.00645870715379715,-0.0019292831420898438,-0.0029686689376831055
-0.020981399342417717,0.01491379365324974,-0.010218659415841103,-0.005795465782284737,-0.007030665874481201,0.008520007133483887
-0.026574060320854187,0.0031966539099812508,0.013499800115823746,0.012316126376390457,-0.011271536350250244,0.0021978020668029785
-0.016462253406643867,-0.00483309431001544,0.01711459457874298,-0.0038438718765974045,0.0013385415077209473,-0.004361629486083984
0.0018410678021609783,-0.011562584899365902,0.014099277555942535,-0.00411447137594223,0.0009852051734924316,-0.012815356254577637
-0.0007402435876429081,-0.0027363961562514305,-0.00524408183991909,-0.004413081333041191,-0.0025218725204467773,-0.001488029956817627
-0.007374197244644165,-0.0015703239478170872,-0.01576831005513668,-0.0020798761397600174,-0.0030753016471862793,-0.005916953086853027
-0.0028854284901171923,-0.004927754867821932,-0.004257616586983204,0.01003865897655487,-0.008280575275421143,-0.005712747573852539
-0.004357396624982357,-0.010125324130058289,-0.005838293582201004,0.0038188770413398743,-0.002767324447631836,-0.01076507568359375
0.008039020001888275,0.015275120735168457,-0.004044755361974239,-0.004548570141196251,0.0020682811737060547,-0.0053345561027526855
-0.008116642944514751,0.0011079013347625732,-0.009094025939702988,0.002552539110183716,-0.0009320974349975586,0.0020390748977661133
-0.00011774711310863495,-0.0069628809578716755,-0.02484610490500927,-0.004338109865784645,-0.0006145238876342773,-0.0033034086227416992
-0.00949709489941597,-0.009703017771244049,-0.028582358732819557,0.0007725395262241364,-0.0065291523933410645,-0.0015357136726379395
-0.021347006782889366,-0.024579672142863274,-0.008752183988690376,0.013971880078315735,-0.008282184600830078,-0.007962048053741455
0.007976509630680084,0.009160218760371208,-0.001603699754923582,-0.0019464176148176193,-0.0032110214233398438,-0.0024794340133666992
0.037943653762340546,0.0196957029402256,0.009266256354749203,0.003590906038880348,-0.0036144256591796875,-0.015906870365142822
-0.004149800632148981,0.00557216489687562,-0.0036642844788730145,-0.0056476891040802,0.0015773177146911621,0.00897306203842163
-0.03575979173183441,-0.0246793944388628,-0.0021749266888946295,-0.0005584247410297394,-0.002854645252227783,0.006515443325042725
-0.009363938122987747,0.011795967817306519,0.010855098254978657,-0.0006867963820695877,-0.004721224308013916,-0.006585299968719482
-0.0005054636858403683,0.011360721662640572,1.0828953236341476e-06,-0.002896612510085106,0.0009573698043823242,-0.00405275821685791
0.0021903845481574535,-0.0019115032628178596,-0.005453357473015785,-0.003576677292585373,0.001410365104675293,-0.000478208065032959
-0.02236744575202465,0.0261179618537426,-0.009508199989795685,-0.011392202228307724,0.006488621234893799,0.014099359512329102
-0.053275205194950104,0.014765392057597637,-0.021078333258628845,-0.008204668760299683,0.0008180737495422363,0.010378003120422363
-0.017652783542871475,0.0007488729897886515,-0.02938598021864891,0.0037500951439142227,-0.0021683573722839355,-0.009136795997619629
0.015579761005938053,-0.01977500692009926,-0.013648114167153835,0.014593487605452538,-0.010591685771942139,-0.02363109588623047
-0.018636401742696762,0.001602088799700141,-0.035026486963033676,-0.014555055648088455,0.007750511169433594,-0.008832871913909912
-0.052620045840740204,-0.0035509970039129257,-0.03579104691743851,-0.0043416209518909454,0.00194472074508667,0.0019398927688598633
-0.017277251929044724,0.031661730259656906,-0.026029719039797783,0.002074895426630974,-0.011026978492736816,0.006632864475250244
-0.03267480805516243,0.005589800421148539,-0.014004343189299107,0.013857020065188408,-0.009438395500183105,0.01231396198272705
-0.02061721310019493,-0.011525626294314861,-0.00374383176676929,0.00763043574988842,-0.005307137966156006,-0.011832118034362793
0.013551832176744938,-0.003800478298217058,-0.008494341745972633,0.0030212700366973877,0.0012484192848205566,-0.03748643398284912
0.017340663820505142,-0.008076506666839123,-0.002986232051625848,0.003802293911576271,0.004901528358459473,-0.01922553777694702
0.017444532364606857,-0.0042741382494568825,-0.010154959745705128,-0.0045081861317157745,0.007445096969604492,-0.0038968920707702637
0.02156783454120159,0.014548199251294136,0.013802277855575085,0.016524136066436768,-0.01046818494796753,0.017922163009643555
-0.03886173292994499,0.00027491338551044464,0.0015172865241765976,0.00013958662748336792,-0.002701997756958008,0.03066384792327881
-0.06623678654432297,-0.03181345388293266,-0.013581842184066772,0.006677910685539246,-0.0031128525733947754,0.017300069332122803
0.0016653873026371002,-0.005593081936240196,-0.01424020528793335,-0.00362342968583107,0.003188014030456543,-0.0164642333984375
0.044703494757413864,0.01542629487812519,-0.011313974857330322,-0.008275849744677544,0.007569551467895508,-0.02533245086669922
-0.0179943535476923,0.002556342165917158,-0.014855616725981236,-0.013263445347547531,0.0038071274757385254,0.0062181949615478516
-0.09941830486059189,-0.0028845854103565216,-0.0318654328584671,-0.009393563494086266,-0.00232541561126709,0.014377951622009277
-0.07966885715723038,-0.015956833958625793,-0.03468993306159973,0.0028142351657152176,-0.010252118110656738,-0.01810741424560547
0.009308039210736752,-0.006525215692818165,-0.009512041695415974,0.007258689031004906,-0.005827486515045166,-0.03828531503677368
0.03670182451605797,-0.00859053060412407,0.014858628623187542,0.007732715457677841,0.0007990002632141113,-0.014898538589477539
0.028189919888973236,0.018849464133381844,0.020437099039554596,-0.0018928367644548416,-0.0008133053779602051,-0.007637917995452881
-0.03216450288891792,-0.0030844993889331818,0.014589888975024223,0.006158038973808289,-0.010667681694030762,-0.0012633800506591797
-0.06511759012937546,-0.04125674068927765,0.0006315221544355154,0.005240669474005699,-0.01697567105293274,-0.0021702051162719727
-0.003586476668715477,-0.02738286182284355,0.0013540044892579317,-0.0009915176779031754,-0.009190201759338379,-0.027607202529907227
0.03239944204688072,0.012726400047540665,0.02131510153412819,0.003332037478685379,-0.01165887713432312,-0.014413118362426758
0.0028050867840647697,0.028966395184397697,0.041657038033008575,0.0026109125465154648,-0.006746768951416016,0.01490330696105957
-0.04547129571437836,-0.008971565403044224,0.02463492751121521,-0.006746400147676468,-0.0003382265567779541,0.0006988644599914551
-0.014314178377389908,-0.03168238699436188,-9.221816435456276e-05,-0.0028952136635780334,-0.006696611642837524,-0.02839517593383789
0.05522875487804413,-0.01434175856411457,-0.006733344867825508,-0.004423024132847786,-0.0024792253971099854,-0.029957711696624756
0.07831414043903351,0.015233064070343971,0.018611829727888107,0.006069229915738106,-0.00771099328994751,-0.015447080135345459
0.0017688553780317307,0.02476535178720951,0.024568263441324234,0.001595858484506607,-0.003023684024810791,0.012766718864440918
-0.033207546919584274,0.004065515473484993,0.00477817514911294,-0.007343042641878128,-0.0015514492988586426,0.004340767860412598
-0.015045015141367912,-0.040506232529878616,-0.009816314093768597,0.0021916162222623825,-0.009224891662597656,-0.00039327144622802734
0.02260684408247471,-0.03721533715724945,-0.0034513468854129314,0.005493396893143654,-0.001544177532196045,-0.001161813735961914
0.018468867987394333,0.019199615344405174,0.01777871511876583,0.007072415202856064,0.0006758570671081543,0.006756186485290527
-0.017542418092489243,0.0019082075450569391,0.029790719971060753,0.0014223065227270126,0.013289153575897217,-0.013373255729675293
-0.036944493651390076,-0.015707923099398613,0.012321578338742256,-0.0028756167739629745,0.0050650835037231445,0.0015317201614379883
1.2831762433052063e-05,-0.014939176850020885,0.0046748025342822075,3.174692392349243e-05,0.004093527793884277,0.002703726291656494
0.03177526593208313,0.022700488567352295,-0.013972600921988487,-0.008400104939937592,0.004792928695678711,-0.012678325176239014
-0.04647187143564224,-0.016058266162872314,-0.008207625709474087,0.0002859458327293396,0.0011985301971435547,0.029048025608062744
-0.06206671893596649,-0.00328465411439538,-0.0024794195778667927,-0.012882944196462631,0.0013251304626464844,0.014535665512084961
-0.020975831896066666,0.03711999952793121,0.020586472004652023,0.0048790257424116135,-0.005006939172744751,-0.01712137460708618
0.00830415915697813,0.009599865414202213,-0.013900511898100376,-0.007919223979115486,0.005997210741043091,-0.03486895561218262
0.033884912729263306,-0.030362162739038467,-0.02312738448381424,-0.00019341334700584412,-0.009066909551620483,-0.022654354572296143
0.01853134110569954,-0.028411906212568283,-0.0156018091365695,0.0042528193444013596,-0.012230902910232544,-0.010999798774719238
-0.005136548075824976,0.029843885451555252,0.009180571883916855,0.004424711689352989,-0.021224558353424072,0.004685461521148682
-0.034051597118377686,0.009279606863856316,0.01398131251335144,0.0005942657589912415,-0.010425299406051636,-0.009540975093841553
0.01036844402551651,-0.004080879036337137,0.011907706037163734,-0.00542442686855793,-0.006244182586669922,-0.0162772536277771
0.023172611370682716,-0.02978425845503807,0.01754254847764969,0.009461784735321999,-0.004412204027175903,-0.020408451557159424
-0.003132072277367115,-0.02521096169948578,0.01444852352142334,0.0006357003003358841,-0.00013720989227294922,-0.00599062442779541
0.024729007855057716,0.014313574880361557,0.0168132483959198,-0.003131680190563202,0.0013241469860076904,-0.006731867790222168
0.03538287431001663,0.012877345085144043,0.031910721212625504,0.002914484590291977,-0.0018027722835540771,-0.0036812424659729004
-0.007934236899018288,-0.00048080412670969963,0.01875896565616131,-0.0006106216460466385,-0.002939760684967041,0.01759129762649536
-0.028356114402413368,-0.011745721101760864,-0.00032188952900469303,-0.00410616397857666,-0.0006871521472930908,0.0024513602256774902
-0.012913665734231472,0.00897195190191269,-0.0019717509858310223,0.0027474425733089447,-0.002061605453491211,0.00017178058624267578
0.030952241271734238,0.0034452418331056833,0.0022663583513349295,0.007563084363937378,0.0005930066108703613,-0.010773122310638428
0.035553060472011566,0.01032165251672268,0.017790362238883972,0.002903839573264122,-0.004325002431869507,-0.007442951202392578
-0.016100779175758362,-0.006294496823102236,0.011309466324746609,-0.001787770539522171,0.004333019256591797,-0.008508861064910889
-0.02138424478471279,-0.010843832977116108,0.005418338347226381,-0.005576161667704582,-0.004702240228652954,-0.00267106294631958
-0.0033384026028215885,-0.008760613389313221,-0.005861449986696243,-0.00754130631685257,-0.00337064266204834,-0.007851839065551758
0.04155943542718887,0.016766035929322243,-0.007269637659192085,-0.008838238194584846,-0.0035582780838012695,-0.011302471160888672
0.04368124157190323,0.017742788419127464,0.014908164739608765,0.0015137344598770142,-0.007815539836883545,-0.0050351619720458984
-0.0009238272905349731,0.012391824275255203,0.023720789700746536,0.004916949197649956,-0.00459057092666626,0.009914815425872803
-0.044333457946777344,-0.028963299468159676,0.018517499789595604,-0.003776106983423233,-0.006824135780334473,0.0013681650161743164
-0.030951762571930885,-0.014839696697890759,0.017217010259628296,0.001475062221288681,-0.0004956424236297607,0.0012808442115783691
0.017516622319817543,0.017373746261000633,0.01641004905104637,-0.005132442340254784,-0.002989530563354492,-0.018606483936309814
0.013593295589089394,0.008633139543235302,0.006105880253016949,-0.007836423814296722,0.0045662522315979,-0.010901808738708496
-0.014755994081497192,0.01409646961838007,0.004907296504825354,-0.0017319638282060623,-0.0035334229469299316,0.004836916923522949
-0.00947763305157423,-0.005392040126025677,-0.002240014262497425,-0.008096149191260338,-0.0014287233352661133,-0.0038594603538513184
-0.007102136965841055,-0.004931993782520294,-0.018730180338025093,-0.0055998340249061584,-0.0007982552051544189,-0.0016644597053527832
0.02459179237484932,0.003449907060712576,-0.0002603955799713731,0.008120264858007431,-0.005118876695632935,-0.014669477939605713
-0.01785515993833542,0.010395944118499756,0.002454156521707773,-0.0018093492835760117,-0.005803436040878296,0.01399773359298706
-0.030934829264879227,-0.0041998946107923985,0.004408072680234909,-0.0048329830169677734,0.001915067434310913,-0.003300964832305908
-0.01707378961145878,-0.010111195966601372,-0.00310173025354743,-0.003186166286468506,0.0007086992263793945,-0.01276928186416626
0.03198082000017166,0.0026906761340796947,-0.004828775301575661,-0.004868181422352791,-0.0023844242095947266,-0.017069101333618164
0.015209207311272621,0.032664086669683456,0.0015609653200954199,0.0022797994315624237,-0.004720062017440796,0.0035411715507507324
-0.01250515878200531,0.012346062809228897,-0.001333080930635333,-0.0012908391654491425,-0.006781190633773804,-0.0007238984107971191
-0.008240234106779099,0.006781636271625757,0.0017136693932116032,-0.0053542908281087875,0.0013158321380615234,-0.006677806377410889
-0.0015870195347815752,-0.03191916644573212,-0.010679628700017929,-0.0020819678902626038,-0.0027084648609161377,-0.023034095764160156
-0.0062957522459328175,-0.00791671872138977,0.0014262686017900705,0.00483662448823452,-0.009923160076141357,-0.0059722065925598145
-0.029781684279441833,0.008725849911570549,0.001587284030392766,-0.0011008009314537048,-0.006777733564376831,0.008710741996765137
0.00878342054784298,0.03674159198999405,-0.00722553301602602,-0.018670298159122467,0.007227867841720581,-0.008733630180358887
0.00862300768494606,0.0033522695302963257,0.007783534936606884,0.0025896653532981873,0.0021429061889648438,-0.0015490055084228516
-0.01994951441884041,-0.008124090731143951,0.008979027159512043,0.002703871577978134,-0.003709852695465088,0.004470407962799072
-0.042631566524505615,0.009928438812494278,-0.009406890720129013,-0.0008878391236066818,-0.004415303468704224,-0.012364208698272705
-0.01763426885008812,0.006357394624501467,-0.024538706988096237,0.001318061724305153,-0.0009087920188903809,-0.015455067157745361
0.04688267037272453,0.01044438686221838,-0.012407451868057251,0.0013843141496181488,0.003321230411529541,-0.013097941875457764
0.034723054617643356,-0.01676001027226448,0.003489419352263212,0.001566857099533081,0.004297703504562378,0.002743840217590332
-0.02414412796497345,-0.012979928404092789,0.005888317245990038,0.005298104137182236,-0.0029869377613067627,0.0002422332763671875
-0.02677372843027115,0.029950318858027458,-0.010028133168816566,-0.003674786537885666,-0.007647454738616943,-0.014548838138580322
