rotation_x,rotation_y,rotation_z,acceleration_x,acceleration_y,acceleration_z
-0.3721124529838562,0.7953158617019653,0.4438186585903168,0.012798629701137543,-0.02516120672225952,-0.10144466161727905
-0.507215678691864,0.5816439390182495,0.554555356502533,-0.021005526185035706,0.022625446319580078,-0.0035071969032287598
-0.5066412687301636,0.25835099816322327,0.7602848410606384,-0.026257917284965515,0.012315154075622559,0.05458688735961914
-0.35969120264053345,-0.04108848050236702,0.875919759273529,0.006013311445713043,-0.05193457007408142,0.019410431385040283
-0.24144519865512848,-0.1194239929318428,0.8932136297225952,0.015012413263320923,-0.06660303473472595,0.008894026279449463
-0.20706374943256378,0.17143671214580536,0.897251546382904,-0.027499869465827942,-0.029764235019683838,-0.013472259044647217
-0.2565460801124573,0.5004503130912781,0.9305831789970398,-0.06807462871074677,0.00830104947090149,-0.002028346061706543
-0.3295169770717621,0.6519255638122559,0.9689078330993652,-0.07998652756214142,-0.0013413727283477783,0.0211259126663208
-0.37549322843551636,0.5917497873306274,1.0065547227859497,-0.03031964600086212,-0.03250858187675476,0.03197604417800903
-0.328691691160202,0.562275767326355,1.077251672744751,0.0009108781814575195,-0.04953491687774658,0.022054553031921387
-0.25007662177085876,0.5304828882217407,1.128946304321289,0.01648830622434616,-0.0668984055519104,-0.006420612335205078
-0.2517381012439728,0.5017433762550354,1.179892659187317,0.018774084746837616,-0.02368396520614624,0.0022644400596618652
-0.30612730979919434,0.5216454863548279,1.2840956449508667,0.02211511880159378,0.02754145860671997,0.011805832386016846
-0.39728042483329773,0.5528205037117004,1.4098591804504395,0.023962080478668213,0.05212807655334473,0.03040945529937744
-0.5803927183151245,0.42786791920661926,1.437386393547058,0.026984602212905884,0.020496785640716553,0.10035544633865356
-0.7540844678878784,0.13371461629867554,1.480719804763794,0.0390288382768631,-0.02543860673904419,0.17877590656280518
-0.7521844506263733,-0.17534583806991577,1.5307083129882812,0.04527265578508377,-0.004117459058761597,0.1559017300605774
-0.5107898712158203,-0.16819587349891663,1.5581438541412354,0.058746881783008575,0.0706351101398468,0.08559119701385498
-0.20839610695838928,-0.07936924695968628,1.5198051929473877,0.012757338583469391,0.13064178824424744,0.13148260116577148
-0.012346123345196247,0.1871677041053772,1.409881830215454,-0.036653149873018265,0.14222699403762817,0.17833691835403442
-0.08576183766126633,0.20407192409038544,1.3231635093688965,-0.031205598264932632,0.12472003698348999,0.21477949619293213
-0.3188339173793793,-0.09554722905158997,1.1616243124008179,0.011738937348127365,0.09437114000320435,0.22637957334518433
-0.3112250566482544,-0.3789898157119751,1.0284526348114014,0.046610914170742035,0.1225963830947876,0.18380099534988403
0.00880788266658783,-0.4440027177333832,0.908208429813385,0.04612266272306442,0.15122947096824646,0.10286885499954224
0.32431626319885254,-0.2740497589111328,0.8504809737205505,-0.006343867629766464,0.18166610598564148,0.04187428951263428
0.3675786554813385,-0.42754727602005005,0.8835797905921936,-0.07241545617580414,0.18277624249458313,0.03089088201522827
0.07093633711338043,-0.4885368049144745,0.8580124378204346,-0.023290477693080902,0.09640052914619446,0.05724269151687622
-0.2671497166156769,-0.4160146117210388,0.907376766204834,0.02293352782726288,0.14399421215057373,0.10684531927108765
-0.3977751135826111,0.010184411890804768,1.0765714645385742,-0.005605015903711319,0.23364344239234924,0.07798552513122559
-0.5120858550071716,0.2017352432012558,1.007777214050293,-0.04717625677585602,0.20465213060379028,0.035587966442108154
-0.5260926485061646,0.03864957019686699,0.6526080965995789,-0.10447755455970764,0.10708045959472656,0.017186284065246582
-0.19887401163578033,-0.0997665524482727,0.36506760120391846,-0.10750646144151688,0.044921040534973145,-0.019611477851867676
0.15802191197872162,-0.12502598762512207,0.2814864218235016,-0.09132304787635803,0.10032141208648682,-0.030258893966674805
0.07809361070394516,0.04484556242823601,0.2390819489955902,-0.028723858296871185,0.17765802145004272,0.13811451196670532
-0.645160436630249,0.004637501668184996,0.2620908319950104,0.04482594504952431,-0.012887418270111084,0.3718351721763611
-1.3645153045654297,-0.18151921033859253,0.1671813279390335,-0.017804443836212158,-0.03560173511505127,0.41172468662261963
-1.6849530935287476,-0.2944161295890808,0.01631304621696472,-0.08758143335580826,-0.011770859360694885,0.24048054218292236
-1.5944479703903198,-0.28337371349334717,0.15072867274284363,-0.0621543824672699,0.10209834575653076,0.03544449806213379
-1.4432108402252197,-0.3966304659843445,0.41219356656074524,-0.00033046305179595947,0.15421895682811737,-0.019759178161621094
-1.326194167137146,-0.5330015420913696,0.6009964346885681,0.011429578065872192,0.14080560207366943,-0.01087939739227295
-1.392661690711975,-0.5535836815834045,0.7122563123703003,-0.03393416106700897,0.13048182427883148,0.037785470485687256
-1.5045201778411865,-0.49598750472068787,0.8403371572494507,-0.053544528782367706,0.15939275920391083,0.0724448561668396
-1.6365185976028442,-0.22540640830993652,0.941497266292572,-0.09416746348142624,0.2041107416152954,0.05581796169281006
-1.7878996133804321,-0.013082454912364483,0.9208211302757263,-0.15008124709129333,0.21505601704120636,0.0241965651512146
-1.9746359586715698,-0.198410302400589,0.8298887610435486,-0.15909825265407562,0.1964302659034729,0.05987691879272461
-2.109220027923584,-0.8779194951057434,0.698060154914856,-0.17319883406162262,0.1659075915813446,0.112598717212677
-2.1844160556793213,-1.7228683233261108,0.5694631338119507,-0.18038105964660645,0.13496704399585724,0.08724027872085571
-2.2179276943206787,-2.1312265396118164,0.44891196489334106,-0.17161434888839722,0.1414640098810196,-0.04917973279953003
-2.270756721496582,-2.1165761947631836,0.15242601931095123,-0.21216538548469543,0.09754233062267303,-0.2344641089439392
-2.399566411972046,-1.8162431716918945,-0.22882692515850067,-0.2029573619365692,0.020920395851135254,-0.35096967220306396
-2.5945587158203125,-1.3636046648025513,-0.5851307511329651,-0.1835080087184906,-0.051361411809921265,-0.43321406841278076
-2.6365387439727783,-0.8689839839935303,-1.1062726974487305,-0.187543123960495,-0.12691357731819153,-0.5204094648361206
-2.3688440322875977,-0.19555799663066864,-1.6483062505722046,-0.24961084127426147,-0.14665746688842773,-0.7093183994293213
-1.7249631881713867,0.3513895273208618,-1.9161088466644287,-0.16367843747138977,-0.061806321144104004,-0.7985678315162659
-0.9991353750228882,0.708962619304657,-1.7562204599380493,-0.002532780170440674,0.03454473614692688,-0.7555838227272034
-0.4790005087852478,0.6478431224822998,-1.3621934652328491,0.16173508763313293,0.07532289624214172,-0.5228981375694275
-0.27665796875953674,0.42272359132766724,-1.0090312957763672,0.22506234049797058,0.06686735153198242,-0.25678181648254395
-0.26903223991394043,0.2617146074771881,-0.6297444105148315,0.2458392083644867,0.04074147343635559,-0.09005647897720337
-0.08775870501995087,0.09508940577507019,-0.20975527167320251,0.24449533224105835,0.04411911964416504,-0.07072794437408447
0.27331772446632385,-0.04461172968149185,0.1653803586959839,0.22775495052337646,0.045138001441955566,-0.1296144723892212
0.4910179376602173,-0.17812682688236237,0.5275947451591492,0.19481119513511658,0.03488516807556152,-0.0985403060913086
0.5439379811286926,-0.40342748165130615,0.7968052625656128,0.1393895149230957,0.010323047637939453,-0.007722198963165283
0.5315590500831604,-0.727981448173523,0.9321808815002441,0.10346823930740356,-0.01679331064224243,0.07045620679855347
0.5982854962348938,-1.0261083841323853,0.9471725225448608,0.01705440878868103,-0.03339791297912598,0.03309190273284912
0.6137282252311707,-1.2407852411270142,1.0196692943572998,0.0011332929134368896,-0.028774231672286987,-0.012146353721618652
0.6396009922027588,-1.2625441551208496,1.2973219156265259,0.06853866577148438,-0.00308150053024292,-0.037200927734375
0.9497033357620239,-1.873629093170166,1.3078242540359497,0.037467002868652344,0.02924385666847229,-0.08815604448318481
1.1625796556472778,-1.6264082193374634,1.2551169395446777,-0.027401745319366455,-0.009334534406661987,-0.15022063255310059
0.8738610148429871,-1.4061135053634644,1.3111251592636108,-0.06002691388130188,-0.015271246433258057,0.022759079933166504
0.6573917269706726,-0.9169599413871765,1.46916663646698,0.010446518659591675,-0.02036839723587036,-0.04826211929321289
0.6654308438301086,-0.7170572876930237,1.4519975185394287,-0.05202630162239075,0.030276954174041748,-0.058834969997406006
0.8154455423355103,-0.7017619013786316,1.2839070558547974,-0.0691155195236206,-0.014633774757385254,-0.09289133548736572
0.8624140024185181,-0.8189002871513367,1.051160216331482,-0.09739038348197937,-0.025451719760894775,-0.04761338233947754
0.8438937067985535,-1.1639842987060547,0.7954476475715637,-0.06422179937362671,-0.06174027919769287,0.0568157434463501
0.6618986129760742,-1.4322824478149414,0.4932691156864166,-0.08061617612838745,-0.09327432513237,0.1367267370223999
0.43261781334877014,-1.603000521659851,0.31382864713668823,-0.056317687034606934,-0.07678765058517456,0.16921043395996094
0.35792747139930725,-1.8437552452087402,0.2008882313966751,-0.020605623722076416,-0.046777158975601196,0.1324194073677063
0.30837133526802063,-1.9718812704086304,0.05861910805106163,-0.018959879875183105,-0.025379866361618042,0.07912158966064453
0.14620181918144226,-1.9352288246154785,0.00859946571290493,-6.139278411865234e-06,0.007682681083679199,0.0756063461303711
0.03792396932840347,-1.8196468353271484,0.005699005909264088,0.021437406539916992,0.01705688238143921,0.038673579692840576
-0.06385356932878494,-1.6081568002700806,-0.009508686140179634,0.047656476497650146,0.04481533169746399,-0.00013250112533569336
-0.36023780703544617,-1.2344914674758911,-0.009837504476308823,0.01468801498413086,0.043009787797927856,0.013596296310424805
-0.6941261887550354,-0.797580361366272,0.06100188568234444,0.055640220642089844,0.05791708827018738,0.01875591278076172
-0.8741253018379211,-0.5148733854293823,0.05361686646938324,0.04838794469833374,0.06756976246833801,-0.0038232803344726562
-0.8437813520431519,-0.40159735083580017,0.01070547103881836,0.04631012678146362,0.0470748245716095,-0.05988812446594238
-0.7308214902877808,-0.3262879252433777,-0.01632077433168888,0.029497623443603516,0.048452287912368774,-0.09452563524246216
-0.6059036254882812,-0.30130594968795776,-0.019245386123657227,0.04377913475036621,0.04579460620880127,-0.09200036525726318
-0.44683703780174255,-0.24644316732883453,-0.01643538288772106,0.044405579566955566,0.040887296199798584,-0.10881459712982178
-0.28923946619033813,-0.13408078253269196,-0.0008651874959468842,0.03919947147369385,0.030868560075759888,-0.11302220821380615
-0.17253796756267548,0.04048607498407364,0.042916715145111084,0.03858315944671631,0.03349074721336365,-0.11283504962921143
-0.07495138049125671,0.1898237019777298,0.1021725982427597,0.0392453670501709,0.04016846418380737,-0.09784841537475586
0.02418845146894455,0.23002196848392487,0.13136877119541168,0.02410811185836792,0.03311169147491455,-0.0734870433807373
0.10065993666648865,0.19707942008972168,0.148306742310524,0.002320528030395508,0.024149388074874878,-0.039912283420562744
0.14350324869155884,0.16214579343795776,0.1095089390873909,-0.01557910442352295,0.006919682025909424,-0.014797866344451904
0.1342691034078598,0.1836535930633545,0.06189731881022453,-0.02474147081375122,0.0023665428161621094,0.0007600784301757812
0.08345014601945877,0.22301532328128815,-0.01157858781516552,-0.023789942264556885,-0.013133794069290161,0.0218735933303833
-0.0034926999360322952,0.28946399688720703,-0.016671372577548027,-0.017747104167938232,-0.011650055646896362,0.0463099479675293
-0.09483294188976288,0.3922223448753357,-0.007915293797850609,0.0017690062522888184,0.009128570556640625,0.056330204010009766
-0.13673295080661774,0.418133944272995,-0.03919866681098938,-0.012441098690032959,0.002443969249725342,0.053765833377838135
-0.13548164069652557,0.335511177778244,-0.028425926342606544,-0.0037857890129089355,0.001640021800994873,0.06448066234588623
-0.13206815719604492,0.1901170015335083,0.01581503450870514,0.009884536266326904,0.008846133947372437,0.0761989951133728
-0.13536569476127625,0.016294650733470917,0.07208132743835449,0.01820087432861328,0.004180818796157837,0.08227086067199707
-0.1463950276374817,-0.12795095145702362,0.17654471099376678,0.030459105968475342,0.013996422290802002,0.0764201283454895
-0.19722889363765717,-0.1869342178106308,0.18040956556797028,0.005838632583618164,0.016576439142227173,0.07287025451660156
-0.2851412892341614,-0.20871464908123016,0.10409623384475708,-0.033449411392211914,-0.008674591779708862,0.07048845291137695
-0.34087085723876953,-0.17570799589157104,0.02695714496076107,-0.055333614349365234,-0.02159416675567627,0.05623650550842285
-0.3645258843898773,-0.07049674540758133,0.003200705861672759,-0.034397780895233154,-0.02485668659210205,0.01531529426574707
-0.3723776638507843,0.03014529123902321,-0.00368811609223485,-0.006718277931213379,-0.020883530378341675,0.0004509091377258301
-0.36119961738586426,0.1180325374007225,-0.001689460128545761,0.0015485286712646484,-0.028030365705490112,-0.005260348320007324
-0.29518556594848633,0.1476970762014389,-0.0005830316804349422,0.007329702377319336,-0.03420299291610718,-0.011028170585632324
-0.20613227784633636,0.12408453971147537,-0.003792384173721075,-0.006259500980377197,-0.036349862813949585,-0.010523319244384766
-0.1318700760602951,0.016144441440701485,0.0017548410687595606,-0.005381762981414795,-0.03240373730659485,0.0012477636337280273
-0.09550568461418152,-0.10207942873239517,0.04121115803718567,-0.001717686653137207,-0.017164647579193115,0.01948392391204834
-0.10442104935646057,-0.1533944010734558,0.07602651417255402,-0.007898449897766113,-0.007476359605789185,0.016430377960205078
-0.15211442112922668,-0.15709957480430603,0.08385675400495529,-0.017696499824523926,-0.016287565231323242,0.010246992111206055
-0.1967591643333435,-0.14120568335056305,0.07535196840763092,-0.02378612756729126,-0.025491714477539062,-0.0005280971527099609
-0.20892973244190216,-0.15083487331867218,0.03912264108657837,-0.042287349700927734,-0.0412522554397583,-0.015188217163085938
-0.19514577090740204,-0.1778051257133484,0.0014420360093936324,-0.047178447246551514,-0.047457367181777954,-0.031629860401153564
-0.18680760264396667,-0.1714877039194107,-0.03550787642598152,-0.05626356601715088,-0.04474183917045593,-0.042862534523010254
-0.17883610725402832,-0.1588229537010193,-0.05820465460419655,-0.05620014667510986,-0.04569309949874878,-0.05722033977508545
-0.16373683512210846,-0.13535654544830322,-0.07251475751399994,-0.050252437591552734,-0.03697556257247925,-0.06963473558425903
-0.14420081675052643,-0.1071520745754242,-0.10480514168739319,-0.052455365657806396,-0.039858877658843994,-0.07900762557983398
-0.1044418215751648,-0.028251932933926582,-0.12246792763471603,-0.04862713813781738,-0.028516650199890137,-0.0971488356590271
-0.05714269354939461,0.049560077488422394,-0.15095029771327972,-0.04479634761810303,-0.02062186598777771,-0.10946851968765259
-0.03503282368183136,0.12279019504785538,-0.21066533029079437,-0.051502764225006104,-0.016589879989624023,-0.09948664903640747
-0.030801352113485336,0.16300880908966064,-0.24415838718414307,-0.04026615619659424,-0.016140222549438477,-0.07957524061203003
-0.040225524455308914,0.209181547164917,-0.25684216618537903,-0.0254133939743042,-0.009377896785736084,-0.06286013126373291
-0.02034575492143631,0.20599956810474396,-0.27055713534355164,-0.00652390718460083,-0.008488595485687256,-0.0551302433013916
0.009589392691850662,0.16198599338531494,-0.2951871454715729,0.002263307571411133,-0.00627821683883667,-0.046501100063323975
0.02072516269981861,0.12637275457382202,-0.32125648856163025,0.0025143027305603027,0.007089406251907349,-0.033040761947631836
0.02191556990146637,0.09419625997543335,-0.31457364559173584,0.006013929843902588,0.022589027881622314,-0.024051129817962646
0.02861051820218563,0.05011071264743805,-0.2868146300315857,0.022712409496307373,0.03336399793624878,-0.016786694526672363
0.044796887785196304,0.008015980944037437,-0.24856139719486237,0.037861645221710205,0.034713417291641235,-0.013450980186462402
0.05352730304002762,-0.008464112877845764,-0.22959838807582855,0.04570704698562622,0.028834044933319092,-0.010616660118103027
0.058816708624362946,0.0015308812726289034,-0.20124493539333344,0.044265687465667725,0.02983340620994568,-0.006648004055023193
0.05199333652853966,0.04187678173184395,-0.18578042089939117,0.042453229427337646,0.03473472595214844,-0.004606187343597412
0.04990840703248978,0.05864058807492256,-0.1875305324792862,0.029420554637908936,0.03866899013519287,0.0024336576461791992
0.009600495919585228,0.021193763241171837,-0.16543683409690857,0.023156821727752686,0.043248921632766724,0.018840134143829346
-0.05118556320667267,-0.049975182861089706,-0.12372945994138718,0.03114902973175049,0.05242106318473816,0.035941898822784424
-0.0791935846209526,-0.13423459231853485,-0.09357069432735443,0.02877521514892578,0.05307939648628235,0.029763460159301758
-0.06546390801668167,-0.1362818032503128,-0.06807555258274078,0.020820260047912598,0.04244697093963623,-0.001403212547302246
-0.0468120276927948,-0.08447814732789993,-0.04484650492668152,0.025754153728485107,0.030670523643493652,-0.020927011966705322
-0.07550087571144104,-0.007340416312217712,-0.06168525665998459,0.020483016967773438,0.014334499835968018,-0.016114234924316406
-0.1304774433374405,0.0494605116546154,-0.09292539209127426,0.020675182342529297,0.010340511798858643,0.0003864765167236328
-0.1895960122346878,0.06998230516910553,-0.10613342374563217,0.015914738178253174,0.01916027069091797,0.011958837509155273
-0.21967710554599762,0.04082765057682991,-0.08273977041244507,0.02541714906692505,0.033405572175979614,0.010326504707336426
-0.21331588923931122,-0.008772586472332478,-0.04071178659796715,0.02620774507522583,0.04021236300468445,0.0011666417121887207
-0.18845556676387787,-0.04220324009656906,-0.010015574283897877,0.02151721715927124,0.04086357355117798,-0.018428146839141846
-0.18012574315071106,-0.03657537326216698,0.02569378912448883,0.015548110008239746,0.03578880429267883,-0.029184281826019287
-0.18248936533927917,0.002295668236911297,0.0669906884431839,0.019222497940063477,0.026542067527770996,-0.032784104347229004
-0.15068116784095764,0.023826753720641136,0.10756433755159378,0.027392148971557617,0.021398425102233887,-0.04382139444351196
-0.09240768849849701,0.04556221142411232,0.1683705747127533,0.024752676486968994,0.012164384126663208,-0.05118846893310547
-0.030827311798930168,0.022811979055404663,0.2326764315366745,0.03067910671234131,0.0024094581604003906,-0.04209637641906738
0.02341476082801819,-0.017316535115242004,0.2951926290988922,0.026929140090942383,-0.007785916328430176,-0.021953225135803223
0.07319749891757965,-0.09449760615825653,0.34685981273651123,0.019998013973236084,-0.027075469493865967,-0.001265406608581543
0.1177060529589653,-0.18233296275138855,0.39176297187805176,0.012217104434967041,-0.03756058216094971,0.012293636798858643
0.1609470099210739,-0.2750738263130188,0.38110437989234924,-0.013828873634338379,-0.05887153744697571,0.02142035961151123
0.1464393436908722,-0.3426820933818817,0.34598833322525024,-0.0513685941696167,-0.07217177748680115,0.034960389137268066
0.05435843765735626,-0.3461757004261017,0.3132169842720032,-0.06027406454086304,-0.07821407914161682,0.0494651198387146
-0.03628156706690788,-0.317046582698822,0.2897561192512512,-0.06709021329879761,-0.08275279402732849,0.04364973306655884
-0.07422378659248352,-0.27967649698257446,0.274275004863739,-0.06913769245147705,-0.08999967575073242,0.016067802906036377
-0.04575264826416969,-0.2580724358558655,0.2707502841949463,-0.06716775894165039,-0.09836414456367493,-0.01278620958328247
0.03089691326022148,-0.2973942458629608,0.2378808557987213,-0.06851041316986084,-0.10987594723701477,-0.030377507209777832
0.10545720905065536,-0.368390828371048,0.18283383548259735,-0.07833939790725708,-0.12186548113822937,-0.031692326068878174
0.1689426302909851,-0.45730283856391907,0.13128885626792908,-0.09052443504333496,-0.11528953909873962,-0.026509523391723633
0.19435451924800873,-0.4953543543815613,0.13307742774486542,-0.09477317333221436,-0.0932198166847229,-0.03158724308013916
0.19015493988990784,-0.46912845969200134,0.140406996011734,-0.08315849304199219,-0.0723930299282074,-0.04318517446517944
0.19335295259952545,-0.41173845529556274,0.1375696063041687,-0.08947986364364624,-0.06957259774208069,-0.05710601806640625
0.23078802227973938,-0.3522730767726898,0.12043744325637817,-0.08632969856262207,-0.07843077182769775,-0.07682472467422485
0.31075769662857056,-0.34424611926078796,0.0954638123512268,-0.08285129070281982,-0.08801743388175964,-0.08220142126083374
0.38945305347442627,-0.3946267366409302,0.0935673788189888,-0.0692031979560852,-0.0872252881526947,-0.07328671216964722
0.4557594060897827,-0.4425790011882782,0.10576826333999634,-0.05413609743118286,-0.07575404644012451,-0.05971729755401611
0.5070990324020386,-0.4687143564224243,0.13068179786205292,-0.04874056577682495,-0.07217618823051453,-0.05309385061264038
0.5738235116004944,-0.501554548740387,0.14315937459468842,-0.037553608417510986,-0.07317650318145752,-0.0497223436832428
0.6353387832641602,-0.5635945796966553,0.13708944618701935,-0.038498520851135254,-0.07359287142753601,-0.04225769639015198
0.6946518421173096,-0.6559231877326965,0.12943238019943237,-0.03823745250701904,-0.06321009993553162,-0.03259015083312988
0.7307483553886414,-0.7545142769813538,0.10771875828504562,-0.03975880146026611,-0.05494481325149536,-0.025712281465530396
0.7359121441841125,-0.7739837765693665,0.0868467316031456,-0.0399286150932312,-0.048181772232055664,-0.0244428813457489
0.7201910018920898,-0.7255094647407532,0.056536491960287094,-0.04238611459732056,-0.03493762016296387,-0.03808528184890747
0.6907612681388855,-0.6564380526542664,-0.013384498655796051,-0.03797942399978638,-0.03906857967376709,-0.04420965909957886
0.617254912853241,-0.5368542075157166,-0.09918814152479172,-0.04276442527770996,-0.033754050731658936,-0.039768218994140625
0.5456002950668335,-0.4117944836616516,-0.17846786975860596,-0.03634917736053467,-0.028571516275405884,-0.040515780448913574
0.499248206615448,-0.3037131428718567,-0.2352363020181656,-0.0196763277053833,-0.01810401678085327,-0.04162400960922241
0.48629388213157654,-0.23242206871509552,-0.27647632360458374,0.0003248453140258789,0.002183854579925537,-0.04212528467178345
0.4747595489025116,-0.2149483859539032,-0.32239097356796265,0.01751035451889038,0.015159457921981812,-0.034875303506851196
0.41660448908805847,-0.1091742068529129,-0.3133271336555481,0.03300696611404419,0.037951916456222534,-0.024554848670959473
0.37447643280029297,-0.02747402898967266,-0.2962947487831116,0.06131696701049805,0.06350100040435791,-0.02105414867401123
0.38122591376304626,0.04157676175236702,-0.28267914056777954,0.06061631441116333,0.06728881597518921,-0.01944899559020996
0.35557472705841064,0.12145969271659851,-0.263441801071167,0.057276010513305664,0.08356937766075134,-0.0021782517433166504
0.26939550042152405,0.16041995584964752,-0.2983371913433075,0.05632680654525757,0.0708303153514862,0.035095930099487305
0.1523347944021225,0.17493462562561035,-0.31717854738235474,0.060212910175323486,0.06983411312103271,0.0717802345752716
0.09027083963155746,0.1933082640171051,-0.34353840351104736,0.0551266074180603,0.07281139492988586,0.06924718618392944
0.013691570609807968,0.21193444728851318,-0.388876348733902,0.04476821422576904,0.0690491795539856,0.07767671346664429
-0.10847397893667221,0.26395565271377563,-0.4399893581867218,0.048806846141815186,0.06480780243873596,0.09539014101028442
-0.2576923668384552,0.3428000211715698,-0.47468170523643494,0.05403631925582886,0.06784841418266296,0.10489654541015625
-0.3614090085029602,0.39514824748039246,-0.5000253319740295,0.05867314338684082,0.0900808572769165,0.09139257669448853
-0.39125722646713257,0.41627949476242065,-0.4930521845817566,0.05085182189941406,0.12865731120109558,0.06935805082321167
-0.3980216681957245,0.46010884642601013,-0.45765194296836853,0.015247166156768799,0.1592921018600464,0.0618777871131897
-0.49210211634635925,0.4855806827545166,-0.46291372179985046,-0.017990469932556152,0.17279377579689026,0.08506590127944946
-0.6100064516067505,0.540671706199646,-0.48289135098457336,-0.017842233180999756,0.15234094858169556,0.10606437921524048
-0.6243952512741089,0.6228700876235962,-0.4561612010002136,0.00156402587890625,0.13941851258277893,0.08987843990325928
-0.5453060865402222,0.6223081350326538,-0.3912903964519501,0.03361070156097412,0.12162932753562927,0.08307391405105591
-0.39571917057037354,0.5458862781524658,-0.2641744911670685,0.06479215621948242,0.11606001853942871,0.09640264511108398
-0.2864835858345032,0.4746856987476349,-0.1422852873802185,0.06160026788711548,0.11330437660217285,0.12544018030166626
-0.2881637513637543,0.3921462595462799,-0.05356590449810028,0.035104990005493164,0.10068172216415405,0.17829984426498413
-0.3458893597126007,0.2611490786075592,0.03638875484466553,0.018399834632873535,0.08728265762329102,0.21689748764038086
-0.4292246997356415,0.11449456959962845,0.12859250605106354,-0.005709171295166016,0.07329767942428589,0.2264665961265564
-0.43821272253990173,-0.11201906949281693,0.18025526404380798,-0.03471934795379639,0.03928947448730469,0.21673285961151123
-0.4046935737133026,-0.35693055391311646,0.27191483974456787,-0.03938281536102295,0.04069510102272034,0.17415040731430054
-0.4368329644203186,-0.43577873706817627,0.31590205430984497,-0.04234987497329712,0.03691461682319641,0.14080649614334106
-0.48967212438583374,-0.40049025416374207,0.370966374874115,-0.038738131523132324,0.0291023850440979,0.09866833686828613
-0.46985605359077454,-0.39285609126091003,0.3873993456363678,-0.040092289447784424,0.015667378902435303,0.048682570457458496
-0.41038843989372253,-0.41985076665878296,0.4063793420791626,-0.04471755027770996,0.005417972803115845,0.01074129343032837
-0.3054303824901581,-0.5020313262939453,0.4236398935317993,-0.03877204656600952,-0.00018650293350219727,-0.02241349220275879
-0.15348798036575317,-0.6168947815895081,0.4560990333557129,-0.036253392696380615,-0.0027854442596435547,-0.054334819316864014
0.06504717469215393,-0.7925941944122314,0.5014437437057495,-0.020323336124420166,-0.001301109790802002,-0.08955585956573486
0.3161616921424866,-0.9840900897979736,0.5616496205329895,0.003773629665374756,0.004658043384552002,-0.1195489764213562
0.43838098645210266,-0.987371027469635,0.5982790589332581,0.011861562728881836,-0.004027515649795532,-0.1367437243461609
0.39728474617004395,-0.7600169777870178,0.6173415184020996,0.02079296112060547,-0.014283150434494019,-0.12883973121643066
0.31708812713623047,-0.43934866786003113,0.6034948825836182,0.011954307556152344,-0.02810901403427124,-0.1254151463508606
0.33494505286216736,-0.20998843014240265,0.5598703622817993,-0.015599608421325684,-0.049146801233291626,-0.13562172651290894
0.2853444516658783,-0.10800329595804214,0.4524052143096924,-0.03989434242248535,-0.07405197620391846,-0.08541363477706909
0.13643905520439148,-0.057998452335596085,0.3268029987812042,-0.047945261001586914,-0.09525454044342041,-0.023876547813415527
-0.033848486840724945,-0.03307301551103592,0.19264651834964752,-0.04834771156311035,-0.10492080450057983,0.00274735689163208
-0.17253638803958893,0.008396631106734276,0.08571602404117584,-0.03871804475784302,-0.10451242327690125,-0.01402062177658081
-0.20865516364574432,0.05626131594181061,0.03280908241868019,-0.026228249073028564,-0.08987131714820862,-0.05141568183898926
-0.18550899624824524,0.11295770108699799,0.004955892451107502,-0.01973903179168701,-0.07772207260131836,-0.09301632642745972
-0.14652688801288605,0.1575344204902649,-0.023065945133566856,-0.017331361770629883,-0.07838183641433716,-0.10696104168891907
-0.10659075528383255,0.1949109584093094,-0.047934114933013916,-0.0162733793258667,-0.07882970571517944,-0.10755842924118042
-0.04466551914811134,0.199202299118042,-0.06391128152608871,-0.024768292903900146,-0.07389968633651733,-0.10322821140289307
0.026430202648043633,0.15789678692817688,-0.0805041715502739,-0.02534043788909912,-0.06704801321029663,-0.08683860301971436
0.07700315117835999,0.11269526183605194,-0.08065689355134964,-0.026092529296875,-0.05780917406082153,-0.06586235761642456
0.09322702139616013,0.11609151214361191,-0.07224957644939423,-0.025561809539794922,-0.04123717546463013,-0.047105640172958374
0.11628972738981247,0.13727563619613647,-0.06907695531845093,-0.03346264362335205,-0.03818535804748535,-0.02992987632751465
0.15511541068553925,0.14868594706058502,-0.07562726736068726,-0.038827478885650635,-0.03164222836494446,-0.026145637035369873
0.19444537162780762,0.15090222656726837,-0.0751224234700203,-0.040028154850006104,-0.025048643350601196,-0.012782305479049683
0.23348203301429749,0.14033007621765137,-0.06279521435499191,-0.03891843557357788,-0.012830644845962524,-0.0018980801105499268
0.2722642719745636,0.10401728004217148,-0.04606040567159653,-0.03672593832015991,-0.0014590322971343994,0.012654751539230347
0.3827023208141327,-0.12298281490802765,-0.030864182859659195,-0.03770369291305542,0.002911806106567383,0.03546488285064697
0.6337010264396667,-0.5742294788360596,0.017788372933864594,-0.0380321741104126,0.009859859943389893,0.0841096043586731
0.7601327300071716,-0.7897706031799316,0.08881892263889313,-0.031099796295166016,0.027365267276763916,0.11363130807876587
0.634143054485321,-0.6432621479034424,0.08948761969804764,-0.03910940885543823,0.028661400079727173,0.12348970770835876
0.3862776756286621,-0.30469805002212524,0.03574497997760773,-0.05799490213394165,0.021371662616729736,0.12192338705062866
0.18474656343460083,-0.01495685800909996,-0.021068783476948738,-0.06619864702224731,0.024729758501052856,0.11839625239372253
0.046806104481220245,0.13539764285087585,-0.05309957265853882,-0.06442928314208984,0.029894262552261353,0.12405574321746826
-0.03470679745078087,0.16609536111354828,-0.044360894709825516,-0.04338335990905762,0.03423231840133667,0.12327861785888672
-0.06441526859998703,0.13650460541248322,-0.04120587185025215,-0.03310877084732056,0.03188425302505493,0.09908485412597656
-0.07353398203849792,0.09914623945951462,-0.05153996869921684,-0.029810011386871338,0.02512916922569275,0.07673531770706177
-0.06980757415294647,0.08696505427360535,-0.06499042361974716,-0.02304297685623169,0.022577106952667236,0.04746103286743164
-0.05821503698825836,0.04105242341756821,-0.08579631894826889,-0.014036417007446289,0.020663172006607056,0.03826183080673218
-0.05239434912800789,0.012174095027148724,-0.09053654223680496,-0.005406677722930908,0.021748512983322144,0.03269311785697937
-0.06097283586859703,-0.0027103875763714314,-0.08210849016904831,0.0036769509315490723,0.026994407176971436,0.02806955575942993
-0.06522753089666367,-0.023299437016248703,-0.07493320107460022,0.013782918453216553,0.02858671545982361,0.02309378981590271
-0.0690142959356308,-0.035808265209198,-0.06607357412576675,0.018351078033447266,0.02961331605911255,0.01740950345993042
-0.06108896806836128,-0.04047074168920517,-0.051751550287008286,0.016795039176940918,0.029586851596832275,0.007025539875030518
-0.060381125658750534,-0.013338875956833363,-0.04044250771403313,0.02041524648666382,0.03093785047531128,-0.002766728401184082
-0.07210694998502731,-0.0034766930621117353,-0.041841425001621246,0.016536474227905273,0.026432275772094727,-0.0046041011810302734
-0.0705341175198555,-0.0014128955081105232,-0.03140856325626373,0.018761157989501953,0.024855732917785645,-0.005540907382965088
-0.04694947227835655,-0.01632724329829216,-0.011599679477512836,0.02657496929168701,0.02794259786605835,-0.011891931295394897
-0.0025201269891113043,-0.032152626663446426,-0.006684693042188883,0.025867879390716553,0.02374061942100525,-0.019257009029388428
0.002496330998837948,-0.022373495623469353,0.0028613165486603975,0.02134549617767334,0.017751753330230713,-0.012165248394012451
-0.021113082766532898,-0.0016958022024482489,0.015527818351984024,0.029765784740447998,0.021599948406219482,-0.0030403733253479004
-0.031786948442459106,-0.0011651093373075128,0.024527380242943764,0.033066391944885254,0.02004411816596985,6.365776062011719e-05
-0.02828085422515869,-0.0013828774681314826,0.03832731768488884,0.03152501583099365,0.019365638494491577,-0.0035289227962493896
-0.018361756578087807,0.0064198412001132965,0.08124042302370071,0.03493446111679077,0.02639073133468628,-0.008906185626983643
-0.01011422649025917,0.014776081778109074,0.10514238476753235,0.029521524906158447,0.023283660411834717,-0.012290120124816895
0.0004940386861562729,0.007669087033718824,0.10285058617591858,0.01628178358078003,0.010582178831100464,-0.012747853994369507
0.010710726492106915,0.00884191133081913,0.10004201531410217,0.004808306694030762,0.002240598201751709,-0.01019352674484253
0.007960692048072815,-0.007521957159042358,0.08317314088344574,-0.00733870267868042,-0.006166279315948486,-0.001985311508178711
0.009325557388365269,-0.012976841069757938,0.06742773950099945,-0.010198771953582764,-0.0136871337890625,0.002481400966644287
0.024676159024238586,-0.009111032821238041,0.07248730212450027,-0.019336044788360596,-0.015101969242095947,0.0009358227252960205
0.04563844949007034,0.008805576711893082,0.0852341502904892,-0.016949713230133057,-0.0055348873138427734,-0.005922049283981323
0.09445270150899887,-0.010012210346758366,0.09192722290754318,-0.016155898571014404,-0.006746023893356323,-0.012205749750137329
0.1532970517873764,-0.07471351325511932,0.08527370542287827,-0.018319308757781982,-0.01142236590385437,-0.008412033319473267
0.19736817479133606,-0.11176364123821259,0.10501106083393097,-0.014741182327270508,-0.007814794778823853,0.0007666945457458496
0.18579205870628357,-0.06812188029289246,0.10644189268350601,-0.017922043800354004,-0.009482026100158691,0.010055363178253174
0.13632279634475708,0.008686572313308716,0.07989274710416794,-0.02878391742706299,-0.013876140117645264,0.019317567348480225
0.07780129462480545,0.06337355822324753,0.04853074252605438,-0.03781992197036743,-0.011412352323532104,0.03537040948867798
0.05353614687919617,0.06262475252151489,0.04530149698257446,-0.03141939640045166,-0.0015366673469543457,0.040728747844696045
0.04964626580476761,0.01742717996239662,0.03534922003746033,-0.026642024517059326,-0.0009193718433380127,0.04154825210571289
0.05133106932044029,-0.0259211678057909,0.021826962009072304,-0.028644323348999023,-0.005936563014984131,0.04022657871246338
0.06033051759004593,-0.05211746692657471,0.017420344054698944,-0.02818751335144043,-0.0015652775764465332,0.03412151336669922
0.07294812053442001,-0.05179077386856079,0.00870988517999649,-0.026582002639770508,0.00125807523727417,0.025436580181121826
0.05957099795341492,-0.03622668981552124,-0.0018381341360509396,-0.03180038928985596,-0.0004220008850097656,0.0247499942779541
0.04109512269496918,-0.010909918695688248,-0.017018381506204605,-0.028871595859527588,0.00027382373809814453,0.03174471855163574
0.020355181768536568,-0.0032981846015900373,-0.036095380783081055,-0.03345012664794922,0.0009317398071289062,0.03666657209396362
-0.0015757828950881958,-0.006901291664689779,-0.04884936287999153,-0.032914817333221436,0.0012262463569641113,0.04112601280212402
-0.02658385969698429,-0.012415369041264057,-0.06159547343850136,-0.023892641067504883,0.002561211585998535,0.039179205894470215
-0.050558142364025116,-0.008994685485959053,-0.06451476365327835,-0.02118086814880371,0.004773229360580444,0.03550150990486145
-0.056943461298942566,-0.015044857747852802,-0.07528689503669739,-0.012340188026428223,0.00835883617401123,0.025194942951202393
-0.06315915286540985,0.003348798956722021,-0.06539919972419739,-0.011548399925231934,0.007215678691864014,0.018552839756011963
-0.06439630687236786,0.006877177394926548,-0.0710429772734642,-0.0038304924964904785,0.005231797695159912,0.015268027782440186
-0.06059037894010544,0.004182824864983559,-0.06301462650299072,-0.0015764236450195312,0.005366653203964233,0.01090925931930542
-0.042580246925354004,-0.02175864763557911,-0.05114311724901199,0.006997048854827881,0.007322907447814941,0.006396949291229248
-0.014570944011211395,-0.05548747256398201,-0.033238980919122696,0.010201334953308105,0.010492801666259766,-0.0002567172050476074
0.005743089132010937,-0.08363644033670425,-0.022019684314727783,0.014068543910980225,0.010869771242141724,-0.003235071897506714
0.0013180929236114025,-0.06630610674619675,-0.0007759018335491419,0.013267874717712402,0.009208321571350098,-0.002706587314605713
-0.0025258318055421114,-0.031791046261787415,0.004821748938411474,0.01347196102142334,0.010565072298049927,-0.013791382312774658
0.004227427300065756,-0.010499946773052216,0.013681715354323387,0.008396446704864502,0.005620390176773071,-0.01546543836593628
0.014087727293372154,-0.008333270438015461,0.015068010427057743,0.011217892169952393,0.006057113409042358,-0.01753249764442444
0.029716666787862778,-0.02946617640554905,0.025004588067531586,0.010967910289764404,0.003857523202896118,-0.013006448745727539
0.030163658782839775,-0.022751739248633385,0.02330869995057583,0.009538710117340088,0.0072338879108428955,-0.011180907487869263
0.027474230155348778,-0.02364983968436718,0.011332587338984013,0.006460905075073242,-0.0017896294593811035,-0.010121345520019531
0.015818219631910324,0.0016686442540958524,0.02125154249370098,0.007250547409057617,0.00015875697135925293,-0.00418969988822937
-0.01637982949614525,0.050253305584192276,0.02289028838276863,0.009569942951202393,0.006630450487136841,-0.007355213165283203
-0.004226145334541798,0.04154659062623978,0.02147875726222992,0.010909855365753174,-0.001150280237197876,-0.0113009512424469
0.038106366991996765,0.009526723064482212,0.04376295953989029,0.015332520008087158,0.0006201863288879395,-0.00910031795501709
0.061534199863672256,-0.01650567539036274,0.0576726496219635,0.014970839023590088,0.0070885419845581055,-0.007644176483154297
0.05738961696624756,-0.027301713824272156,0.059054140001535416,0.008557260036468506,-0.0016221404075622559,-0.00014698505401611328
0.048734117299318314,-0.010300247929990292,0.05313151329755783,0.0027666091918945312,0.0008655190467834473,0.0002332925796508789
0.05507133528590202,-0.010030314326286316,0.0406719371676445,-0.002326071262359619,-0.009221255779266357,0.003365814685821533
0.03323265537619591,0.004588420502841473,0.046419285237789154,-0.002338588237762451,0.0018488168716430664,0.005605816841125488
0.019797250628471375,0.010240526869893074,0.04371689260005951,-0.0048108696937561035,0.008943408727645874,0.007677853107452393
0.011912696063518524,0.01665634848177433,0.06207433342933655,-0.0015306472778320312,0.01649603247642517,0.0028691887855529785
0.02794276550412178,0.01988714188337326,0.09978142380714417,0.0022377967834472656,0.015586614608764648,-0.0008766651153564453
0.07330171018838882,-0.014269420877099037,0.1278776079416275,0.0007601380348205566,0.007747173309326172,-0.0022992491722106934
0.11196020245552063,-0.038383468985557556,0.1347663849592209,-0.010354459285736084,-0.0016273260116577148,0.0023212432861328125
0.12121883779764175,-0.07499409466981888,0.12422280758619308,-0.015130937099456787,-0.014959484338760376,0.01416352391242981
0.09423506259918213,-0.05511048436164856,0.11123155057430267,-0.02346062660217285,-0.01513826847076416,0.02568233013153076
0.0557347871363163,-0.041091788560152054,0.07800453901290894,-0.02938973903656006,-0.019029617309570312,0.028798282146453857
0.01980375498533249,-0.00601692870259285,0.07230274379253387,-0.029113054275512695,-0.01680237054824829,0.030319541692733765
0.01849750056862831,-0.008082290180027485,0.05356215685606003,-0.019832313060760498,-0.01963987946510315,0.020787954330444336
0.029244504868984222,-0.035154230892658234,0.027415446937084198,-0.018437564373016357,-0.02949923276901245,0.015966832637786865
0.021854301914572716,-0.0218032393604517,0.010033844970166683,-0.009149014949798584,-0.021359652280807495,0.009692370891571045
0.015245750546455383,-0.011495017446577549,-0.004013322293758392,-0.0018018484115600586,-0.019516795873641968,0.005764424800872803
0.007483381778001785,0.03072506934404373,-0.007649215869605541,0.002640068531036377,-0.015192359685897827,0.00202903151512146
0.003345431759953499,0.06146194413304329,-0.020424621179699898,0.011874794960021973,-0.012991100549697876,-0.0033773183822631836
0.00947912409901619,0.07058528065681458,-0.03515733405947685,0.0160139799118042,-0.0182437002658844,-0.0018204450607299805
0.019656535238027573,0.08190314471721649,-0.03338119387626648,0.024072229862213135,-0.011930912733078003,-0.005518019199371338
0.03150927275419235,0.09789911657571793,-0.046614401042461395,0.025554180145263672,-0.01230013370513916,-0.009703516960144043
0.030412990599870682,0.13635459542274475,-0.04517994076013565,0.028435349464416504,-0.0040104687213897705,-0.010882467031478882
0.02848690375685692,0.1578480452299118,-0.05334724485874176,0.03241562843322754,-0.0009470582008361816,-0.009403020143508911
0.018497934564948082,0.19661051034927368,-0.0606263130903244,0.028056561946868896,0.0029175281524658203,-0.004810988903045654
0.0042953831143677235,0.2196803092956543,-0.06647414714097977,0.027200520038604736,0.004762470722198486,-0.002963840961456299
0.0010291091166436672,0.24417760968208313,-0.06515069305896759,0.0222051739692688,0.01478046178817749,0.0011029839515686035
0.0009590419940650463,0.2657167911529541,-0.055497609078884125,0.020929813385009766,0.019852280616760254,0.0011997222900390625
-0.00014988332986831665,0.28209197521209717,-0.04977857321500778,0.01863318681716919,0.024314045906066895,0.0042258501052856445
-0.0020907968282699585,0.27796465158462524,-0.04407273977994919,0.014965832233428955,0.021721243858337402,0.009281396865844727
-0.0056797415018081665,0.26618629693984985,-0.03657199814915657,0.013118088245391846,0.023979216814041138,0.018423795700073242
-0.00721775833517313,0.27261877059936523,-0.025352871045470238,0.01495295763015747,0.02490168809890747,0.021060675382614136
-0.007079694420099258,0.2791782021522522,-0.014932176098227501,0.013634026050567627,0.02652391791343689,0.02016615867614746
-0.015147978439927101,0.24746890366077423,-0.004017406143248081,0.0035772323608398438,0.029102206230163574,0.03336632251739502
-0.013122813776135445,0.16326522827148438,0.01137418020516634,-0.007305800914764404,0.027178943157196045,0.05301094055175781
-0.004544757306575775,0.07712920755147934,0.011576480232179165,-0.0276833176612854,0.020126819610595703,0.061938583850860596
-0.030191462486982346,0.04313927888870239,-0.0017848212737590075,-0.04444682598114014,0.005631804466247559,0.06448882818222046
-0.08093826472759247,0.0638057067990303,-0.021002182736992836,-0.056715428829193115,0.006638705730438232,0.05703020095825195
-0.10948555916547775,0.11049465090036392,-0.02468218468129635,-0.06036102771759033,0.013570994138717651,0.041094839572906494
-0.10865860432386398,0.14670495688915253,0.00347033329308033,-0.05293107032775879,0.018908679485321045,0.022877395153045654
-0.08737637102603912,0.16322673857212067,0.0413503423333168,-0.04087144136428833,0.018091291189193726,0.011915087699890137
-0.05611548572778702,0.171902135014534,0.08770095556974411,-0.03639000654220581,0.016578227281570435,0.005348265171051025
-0.013194452971220016,0.15230445563793182,0.12975569069385529,-0.027136385440826416,0.012686759233474731,0.001778721809387207
0.02120589092373848,0.1255798190832138,0.16393797099590302,-0.020522117614746094,0.0127582848072052,0.000903010368347168
0.04774565249681473,0.06932704895734787,0.16375640034675598,-0.023339271545410156,0.00927656888961792,0.002962827682495117
0.046850476413965225,0.02441028691828251,0.14602194726467133,-0.028340399265289307,0.00013270974159240723,0.011907517910003662
0.03835595026612282,0.01885562390089035,0.12601971626281738,-0.026784539222717285,-0.0047407448291778564,0.00841987133026123
0.02799047715961933,0.003329850733280182,0.08921823650598526,-0.026173710823059082,-0.01006239652633667,0.004923343658447266
0.002425629645586014,-0.02448458783328533,0.05780162289738655,-0.02498406171798706,-0.012993276119232178,0.012247860431671143
-0.019262872636318207,-0.06597990542650223,0.046856727451086044,-0.015243589878082275,-0.008290499448776245,0.01049351692199707
-0.02732696756720543,-0.12567421793937683,0.048070624470710754,-0.007143914699554443,0.0002588033676147461,0.00721895694732666
-0.026841990649700165,-0.18286512792110443,0.07425498962402344,0.0015862584114074707,0.009806007146835327,-0.0011748075485229492
-0.008823603391647339,-0.21566930413246155,0.11072292178869247,0.006705522537231445,0.017125695943832397,-0.0214272141456604
0.004023469984531403,-0.20502671599388123,0.12640637159347534,0.006136775016784668,0.007681041955947876,-0.041870176792144775
-0.007338555529713631,-0.18888536095619202,0.11322712898254395,-0.004731357097625732,-0.008853167295455933,-0.046605855226516724
-0.03144782781600952,-0.14316098392009735,0.084567129611969,-0.018236279487609863,-0.011599957942962646,-0.05452558398246765
-0.02274996042251587,-0.11772958189249039,0.08123429119586945,-0.025935351848602295,-0.0026794373989105225,-0.06745502352714539
0.03982078284025192,-0.15883272886276245,0.09311754256486893,-0.02508091926574707,0.004341691732406616,-0.07729768753051758
0.11967730522155762,-0.21329745650291443,0.11765429377555847,-0.02698725461959839,0.0063016414642333984,-0.07937359809875488
0.1661652773618698,-0.22840330004692078,0.11227056384086609,-0.030640602111816406,0.0038007497787475586,-0.07207444310188293
0.13782569766044617,-0.1993071436882019,0.07541032880544662,-0.04109376668930054,-0.004941225051879883,-0.05070251226425171
0.08156628161668777,-0.13308574259281158,0.047403380274772644,-0.03867518901824951,-0.005191922187805176,-0.0300634503364563
0.04090225324034691,-0.11567658185958862,0.033418022096157074,-0.024179518222808838,-0.0053427815437316895,-0.02335384488105774
0.0352935753762722,-0.17436014115810394,0.041824426501989365,-0.018833279609680176,0.0014022588729858398,-0.01737689971923828
0.047904517501592636,-0.23500382900238037,0.07014744728803635,-0.02163088321685791,0.017325520515441895,-0.01949906349182129
0.055929169058799744,-0.2722351551055908,0.06831801682710648,-0.03018397092819214,0.012423485517501831,-0.023180633783340454
0.07239501178264618,-0.248763307929039,0.035277388989925385,-0.042440176010131836,-0.0019658803939819336,-0.03292655944824219
0.07992196828126907,-0.19562311470508575,-0.018894102424383163,-0.046831488609313965,-0.013647377490997314,-0.03763493895530701
0.048152148723602295,-0.13478624820709229,-0.050519295036792755,-0.03766798973083496,-0.010057210922241211,-0.01431494951248169
0.02403363771736622,-0.1257813423871994,-0.06958424299955368,-0.014457643032073975,-0.004141390323638916,0.007707417011260986
0.04375885799527168,-0.16105297207832336,-0.041695788502693176,0.009964704513549805,0.009230196475982666,0.0128326416015625
0.08309108018875122,-0.21846166253089905,-0.003482091473415494,0.030402004718780518,0.022383034229278564,0.011111915111541748
0.11083494126796722,-0.2877562344074249,0.04871614649891853,0.040651917457580566,0.03136298060417175,0.015494078397750854
0.11782750487327576,-0.3348841667175293,0.11610519886016846,0.05233800411224365,0.03867602348327637,0.016459286212921143
0.11709412932395935,-0.35148975253105164,0.18244095146656036,0.058765947818756104,0.036438971757888794,0.012541800737380981
0.10527396947145462,-0.35818660259246826,0.23103874921798706,0.05933511257171631,0.028602570295333862,0.007428407669067383
0.10590095818042755,-0.37987783551216125,0.27671322226524353,0.05316579341888428,0.019876092672348022,0.0014605522155761719
0.13411471247673035,-0.4016612768173218,0.31365904211997986,0.04349559545516968,0.011075615882873535,-0.016001075506210327
0.18024538457393646,-0.4124175012111664,0.32822006940841675,0.026102423667907715,-0.003045409917831421,-0.031731218099594116
0.2025582492351532,-0.4028065502643585,0.3085234463214874,0.01337522268295288,-0.014652281999588013,-0.03717949986457825
0.20087358355522156,-0.3826215863227844,0.26402565836906433,0.0030681490898132324,-0.027318745851516724,-0.0329432487487793
0.16775324940681458,-0.3010263442993164,0.21988752484321594,-0.00813746452331543,-0.029536396265029907,-0.034605830907821655
0.1377842277288437,-0.2358848750591278,0.1666947454214096,-0.015356123447418213,-0.0287894606590271,-0.030208945274353027
0.10612582415342331,-0.17997951805591583,0.11080107092857361,-0.022211909294128418,-0.027355998754501343,-0.02314448356628418
0.06119825318455696,-0.1469217836856842,0.040532805025577545,-0.02679896354675293,-0.03111708164215088,-0.012494862079620361
-0.0013046599924564362,-0.10112743824720383,-0.014468846842646599,-0.021161019802093506,-0.03055262565612793,0.001962125301361084
-0.03547287732362747,-0.058294251561164856,-0.06404723227024078,-0.012886643409729004,-0.025184839963912964,-0.005714923143386841
-0.0446733720600605,-0.033788878470659256,-0.1120251789689064,-0.006274700164794922,-0.021958887577056885,-0.017075687646865845
-0.06727010756731033,0.006367109250277281,-0.13034608960151672,0.0053460001945495605,-0.010168701410293579,-0.01357993483543396
-0.05510544776916504,-0.008209974505007267,-0.13760177791118622,0.01964515447616577,-0.004812955856323242,-0.014629125595092773
-0.018364515155553818,-0.015925562009215355,-0.10872910171747208,0.02563464641571045,0.005196362733840942,-0.01757824420928955
0.024657294154167175,-0.03276941180229187,-0.08558358997106552,0.033622801303863525,0.013983488082885742,-0.021429359912872314
0.04706656187772751,-0.031049391254782677,-0.07753593474626541,0.02864283323287964,0.009408265352249146,-0.013517528772354126
0.027348948642611504,-0.009627042338252068,-0.06796012073755264,0.024895131587982178,0.014472275972366333,-0.0010548532009124756
0.028220809996128082,-0.006453392561525106,-0.06313886493444443,0.024812161922454834,0.01336658000946045,0.006636857986450195
0.021790623664855957,0.0014382809167727828,-0.0698874220252037,0.019404232501983643,0.010851174592971802,0.010030746459960938
0.00016989139840006828,-0.004226831719279289,-0.06801620125770569,0.020661890506744385,0.00792074203491211,0.019614875316619873
-0.008873417973518372,0.007526271045207977,-0.04553157091140747,0.023249506950378418,0.013777375221252441,0.02183842658996582
-0.002046644687652588,-0.015974875539541245,-0.026973789557814598,0.03065544366836548,0.011856436729431152,0.020873278379440308
0.007265997119247913,-0.02918456867337227,-0.02400984987616539,0.025392591953277588,0.005099058151245117,0.018331676721572876
0.004639894235879183,-0.0335371270775795,-0.020617542788386345,0.01989567279815674,0.007237553596496582,0.020441830158233643
-0.025316983461380005,-0.01628897897899151,-0.024917712435126305,0.014621913433074951,0.004539519548416138,0.022870540618896484
-0.06415130943059921,0.025263415649533272,-0.017085378989577293,0.012994468212127686,0.013867974281311035,0.020805656909942627
-0.06170191243290901,0.014941160567104816,-0.014950918033719063,0.010169446468353271,0.00858217477798462,0.013713598251342773
-0.03936591371893883,0.0026799992192536592,0.011927885003387928,0.017989039421081543,0.01208353042602539,0.006087839603424072
0.0026993337087333202,-0.04088965803384781,0.027549665421247482,0.02343928813934326,0.003686189651489258,-0.002161949872970581
0.039293479174375534,-0.06467587500810623,0.053395166993141174,0.018997609615325928,0.001207590103149414,-0.000879436731338501
0.050775013864040375,-0.09192925691604614,0.07807975262403488,0.017541706562042236,0.005034446716308594,0.0031581223011016846
0.03534702584147453,-0.08865851163864136,0.09246234595775604,0.00761038064956665,0.003559023141860962,0.010924726724624634
0.012373954057693481,-0.08491981029510498,0.08885215222835541,-0.001562654972076416,-0.0008606910705566406,0.009791821241378784
-0.008950285613536835,-0.06725247204303741,0.06586617231369019,-0.014006257057189941,-0.012319862842559814,0.004496335983276367
-0.020576920360326767,-0.02431776002049446,0.0716095119714737,-0.017916560173034668,-0.009945511817932129,-0.003448009490966797
0.005724713206291199,-0.0304563045501709,0.05933802202343941,-0.016049444675445557,-0.013312935829162598,-0.014913797378540039
0.03476796671748161,-0.04984818771481514,0.04363920912146568,-0.017443597316741943,-0.018151462078094482,-0.015104353427886963
0.03794822096824646,-0.06589388847351074,0.02455701306462288,-0.017193973064422607,-0.02042865753173828,-0.007828176021575928
0.024216677993535995,-0.04091709107160568,0.01880681701004505,-0.022821485996246338,-0.021287977695465088,-0.0012842416763305664
0.009508630260825157,-0.010429450310766697,0.0005429983139038086,-0.018483757972717285,-0.018590450286865234,-0.004866063594818115
0.007737150881439447,-0.016616733744740486,-0.031218787655234337,-0.02218407392501831,-0.02315947413444519,-0.005120277404785156
0.006381701678037643,-0.019454747438430786,-0.042443905025720596,-0.0178525447845459,-0.020270049571990967,-0.0035047531127929688
-0.0010959086939692497,-0.018162088468670845,-0.06338922679424286,-0.011135399341583252,-0.015118926763534546,-0.007194608449935913
-0.009511357173323631,-0.0003674154868349433,-0.07265321910381317,-0.008949041366577148,-0.010707557201385498,-0.008303403854370117
-0.01072697713971138,0.006947832182049751,-0.07926610112190247,-0.0011882781982421875,-0.005317866802215576,-0.01096343994140625
0.0019750380888581276,0.014859815128147602,-0.061819154769182205,0.003332972526550293,-0.0008484423160552979,-0.010446995496749878
0.01886633224785328,0.01047655288130045,-0.05261557176709175,0.010784387588500977,0.002470254898071289,-0.013695836067199707
0.03924420848488808,-0.00806612242013216,-0.06347019970417023,0.006883203983306885,-0.0008886754512786865,-0.013232678174972534
0.029484692960977554,0.006792568601667881,-0.0652431845664978,-0.0006881952285766602,0.0008310675621032715,-0.007974952459335327
0.023117732256650925,0.013743720948696136,-0.06837087869644165,0.005914211273193359,0.0054547786712646484,-0.003110438585281372
0.034630294889211655,0.008961022831499577,-0.08293933421373367,0.002581775188446045,0.006382733583450317,-0.004804342985153198
0.041181884706020355,-0.011773087084293365,-0.08126009255647659,0.006871461868286133,0.008779078722000122,-0.0004439353942871094
0.03530895337462425,-0.02837017923593521,-0.09157069772481918,0.009635746479034424,0.013040810823440552,0.005278944969177246
0.02718314714729786,-0.02671939879655838,-0.09448917955160141,0.008773326873779297,0.009365260601043701,0.012236297130584717
0.010588051751255989,0.025499068200588226,-0.0722510814666748,0.011130213737487793,0.02166229486465454,0.006680130958557129
-0.005026201717555523,0.061620354652404785,-0.07098615914583206,0.010568022727966309,0.018274962902069092,0.004467666149139404
-0.011756977997720242,0.0768926665186882,-0.057795941829681396,0.00912463665008545,0.017845332622528076,0.008703082799911499
0.0023236870765686035,0.06536997109651566,-0.03374892845749855,0.017187416553497314,0.025244921445846558,0.008314579725265503
0.03147857263684273,0.03862171620130539,-0.011376025155186653,0.01721513271331787,0.02503785490989685,0.005774468183517456
0.031747329980134964,0.0164097361266613,-0.0073919594287872314,0.01593834161758423,0.018910318613052368,0.010138601064682007
0.014983486384153366,0.02442973293364048,-0.0039045261219143867,0.006482362747192383,0.014094114303588867,0.015553951263427734
-0.00012353761121630669,0.04607771337032318,0.00037047709338366985,0.00684124231338501,0.010825037956237793,0.0136222243309021
0.002190836239606142,0.08132056146860123,0.006607525981962681,0.003278374671936035,0.0055776238441467285,0.007615923881530762
0.006573840975761414,0.08568902313709259,0.004633244592696428,0.005652725696563721,-0.0031774044036865234,0.006787240505218506
0.014255449175834656,0.0707990899682045,-0.0012485100887715816,0.0037137269973754883,-0.006568014621734619,0.013324320316314697
-0.0012333439663052559,0.049426350742578506,-0.011668671853840351,-0.001640617847442627,-0.006884396076202393,0.01794666051864624
-0.020662575960159302,0.024842211976647377,-0.02302633598446846,-0.003882467746734619,-0.0066453516483306885,0.01947680115699768
-0.025873230770230293,0.02995883673429489,-0.015021474100649357,-0.004688620567321777,-0.00314939022064209,0.00953298807144165
-0.0035277395509183407,0.0409034788608551,-0.012561049312353134,-0.003633439540863037,-0.0024239420890808105,-0.008512616157531738
0.016238659620285034,0.05922944098711014,-0.016904132440686226,-0.0056822896003723145,-0.009219348430633545,-0.014446854591369629
0.029261352494359016,0.05775656923651695,-0.03477969765663147,-0.010685384273529053,-0.013950437307357788,-0.009071797132492065
0.03021271526813507,0.052957743406295776,-0.05140373855829239,-0.010936975479125977,-0.010727733373641968,-0.0034855008125305176
0.029540183022618294,0.0532853864133358,-0.07138191908597946,-0.011536955833435059,-0.01265937089920044,0.0008970499038696289
0.01833473891019821,0.07847592234611511,-0.06499534845352173,-0.007468461990356445,-0.003855407238006592,0.0014516115188598633
0.02633337676525116,0.08162526041269302,-0.0650290697813034,-8.124113082885742e-05,-0.0010130107402801514,0.00045606493949890137
0.031462568789720535,0.07301229238510132,-0.05834946408867836,0.0009037256240844727,0.0027909278869628906,0.004122257232666016
0.037425972521305084,0.045533306896686554,-0.041359152644872665,0.008432865142822266,0.0051413774490356445,0.008835017681121826
0.03266393393278122,0.04372038319706917,-0.03639978915452957,0.004420280456542969,0.004032552242279053,0.011591076850891113
0.01794089749455452,0.05672253668308258,-0.04094037786126137,-0.0002288818359375,0.0015024244785308838,0.007788032293319702
0.010780934244394302,0.05482819676399231,-0.04640559107065201,-0.002285897731781006,-0.0009636580944061279,0.010030210018157959
-0.005520191043615341,0.044857509434223175,-0.04744374752044678,-0.003616034984588623,0.0007377862930297852,0.013367533683776855
-0.0036675133742392063,0.02316640317440033,-0.052104756236076355,-0.004289090633392334,-0.0034847259521484375,0.014739692211151123
-0.0012773550115525723,0.01550486870110035,-0.05997500196099281,-0.009695708751678467,-0.005345761775970459,0.01209259033203125
-0.016357140615582466,0.03328774496912956,-0.06406203657388687,-0.015158355236053467,-0.007485330104827881,0.011167824268341064
-0.032205626368522644,0.07361416518688202,-0.0643538236618042,-0.011031389236450195,-0.0024483799934387207,0.00453871488571167
-0.029467418789863586,0.08513150364160538,-0.08855330944061279,-0.014906823635101318,-0.006599843502044678,-0.005067765712738037
-0.014851797372102737,0.08268596231937408,-0.0900668203830719,-0.009887635707855225,-0.0017560720443725586,-0.005131840705871582
-0.003642999567091465,0.06705845147371292,-0.08927351981401443,-0.0056681036949157715,0.003344714641571045,-0.004355728626251221
-0.005178171209990978,0.06680195033550262,-0.08681534230709076,-0.004163801670074463,0.005121678113937378,-0.0011160075664520264
0.0003897538408637047,0.06059126555919647,-0.08438000082969666,-0.0015336871147155762,0.004323601722717285,0.0009302496910095215
0.0016516870819032192,0.07752951234579086,-0.06923709064722061,0.0021820664405822754,0.008260399103164673,-0.0006761848926544189
0.0014690523967146873,0.08265210688114166,-0.06221100687980652,0.0027742385864257812,0.009605884552001953,-0.0037781596183776855
0.006532981991767883,0.06665106862783432,-0.0552346296608448,0.005049765110015869,0.006784915924072266,0.001626729965209961
0.007561495527625084,0.05551692470908165,-0.056334249675273895,0.004239797592163086,0.008493691682815552,0.0036243200302124023
0.007846157997846603,0.03882753849029541,-0.05775218456983566,-0.001016378402709961,0.005200117826461792,0.004220306873321533
-0.010004142299294472,0.042702171951532364,-0.043696507811546326,0.0017268657684326172,0.014494061470031738,0.004302084445953369
-0.004979988560080528,0.04617372155189514,-0.04664691537618637,0.0013044476509094238,0.012434899806976318,-0.002690553665161133
0.012168497778475285,0.050182610750198364,-0.027098331600427628,0.006907105445861816,0.01078951358795166,-0.006916165351867676
0.015892213210463524,0.06790933758020401,-0.0023704059422016144,0.00991201400756836,0.016742199659347534,-0.0075456202030181885
0.018625179305672646,0.04058675467967987,-0.012075166217982769,0.0018405914306640625,0.009782552719116211,0.0002599656581878662
0.013024099171161652,0.025136416777968407,0.0010128958383575082,-0.002245008945465088,0.014735549688339233,0.009539097547531128
-0.001982014160603285,0.021759795024991035,0.012415486387908459,-0.003085494041442871,0.018039464950561523,0.00995054841041565
-7.156003266572952e-05,0.0019862069748342037,0.01469077542424202,-0.007268011569976807,0.011015385389328003,0.009934216737747192
0.005550948902964592,-0.004360026679933071,0.018113968893885612,-0.0118483304977417,0.004484266042709351,0.009805262088775635
0.007357862778007984,-0.018232546746730804,0.010502680204808712,-0.010297417640686035,-0.0022237300872802734,0.009035229682922363
0.0013022804632782936,-0.024567564949393272,-0.002870317315682769,-0.015266776084899902,-0.0073538124561309814,0.012933224439620972
-0.008030514232814312,-0.012501539662480354,-0.02736038714647293,-0.01752912998199463,-0.01104515790939331,0.00936800241470337
-0.03925912082195282,0.012062315829098225,-0.055280447006225586,-0.019027888774871826,-0.012774139642715454,0.011773079633712769
-0.07464594393968582,0.022335460409522057,-0.08363383263349533,-0.015734732151031494,-0.014534085988998413,0.017571747303009033
-0.08514454215765,0.016216127201914787,-0.1137845367193222,-0.015507757663726807,-0.014865726232528687,0.012338608503341675
-0.085678331553936,0.03746296092867851,-0.11276473104953766,-0.007206439971923828,-0.006131350994110107,-0.00020688772201538086
-0.09720564633607864,0.07638861238956451,-0.11053206026554108,0.007941722869873047,2.9653310775756836e-05,-0.012093871831893921
-0.1046353206038475,0.09661847352981567,-0.14331141114234924,0.0034015774726867676,-0.008220374584197998,-0.01993122696876526
-0.11445125937461853,0.12916035950183868,-0.16373427212238312,0.00685960054397583,-0.007566481828689575,-0.023244857788085938
-0.13484853506088257,0.1456497758626938,-0.16701343655586243,0.018876850605010986,0.004944503307342529,-0.01971679925918579
-0.14506939053535461,0.15367461740970612,-0.14284931123256683,0.02870309352874756,0.017907917499542236,-0.015998899936676025
-0.12232377380132675,0.13597466051578522,-0.11686834692955017,0.0358431339263916,0.02368849515914917,-0.021057575941085815
-0.0988941639661789,0.11656428873538971,-0.08614979684352875,0.03749507665634155,0.02123609185218811,-0.02079916000366211
-0.09505864977836609,0.11921346187591553,-0.060399364680051804,0.03664684295654297,0.01643049716949463,-0.018045008182525635
-0.07761280238628387,0.12860079109668732,-0.055533863604068756,0.02462446689605713,0.00621601939201355,-0.02198222279548645
-0.060203030705451965,0.1451951116323471,-0.057570137083530426,0.015254437923431396,0.0038272738456726074,-0.025485873222351074
-0.06010753661394119,0.14558838307857513,-0.06136249005794525,0.010793209075927734,0.0049593448638916016,-0.01648157835006714
-0.062396496534347534,0.13294574618339539,-0.057876069098711014,0.009859621524810791,0.007193893194198608,-0.008478701114654541
-0.04751533642411232,0.10796920955181122,-0.058261580765247345,0.00796806812286377,0.011674284934997559,-0.00900721549987793
-0.020729728043079376,0.09095214307308197,-0.04088680073618889,0.011923134326934814,0.018679320812225342,-0.014492630958557129
-0.017838504165410995,0.09635291993618011,-0.027412688359618187,0.015043973922729492,0.022650986909866333,-0.009728968143463135
-0.03246215730905533,0.12011642009019852,-0.011348175816237926,0.014427542686462402,0.018733978271484375,-0.002324044704437256
-0.03716438636183739,0.14849114418029785,-0.008066882379353046,0.011482954025268555,0.016969680786132812,0.0004290938377380371
-0.04905318841338158,0.18136782944202423,-0.0014018388465046883,0.004603743553161621,0.016939520835876465,0.005418300628662109
-0.08168531954288483,0.21547581255435944,0.005765805020928383,0.004120290279388428,0.020015746355056763,0.02108895778656006
-0.08855950087308884,0.15839768946170807,0.028167707845568657,-0.0038368701934814453,0.020335793495178223,0.024575233459472656
-0.056069791316986084,0.09738174080848694,0.04630796238780022,-0.001439213752746582,0.01657545566558838,0.01839268207550049
-0.020756149664521217,0.029977701604366302,0.047469548881053925,-0.01361238956451416,0.006561011075973511,0.013449102640151978
-0.029811276122927666,0.002442137338221073,0.047583792358636856,-0.02862870693206787,0.000425875186920166,0.02137213945388794
-0.052626729011535645,-0.021043170243501663,0.03300857916474342,-0.0372501015663147,-0.00012567639350891113,0.028659552335739136
-0.06877774745225906,0.0005594011163339019,0.039039406925439835,-0.045135557651519775,-0.002296537160873413,0.023860305547714233
-0.07282072305679321,0.026053689420223236,0.0635414868593216,-0.035349488258361816,-0.006647825241088867,0.015003323554992676
-0.0508878156542778,0.03901563584804535,0.07389218360185623,-0.022430598735809326,-0.016512304544448853,0.0071333348751068115
-0.01389028038829565,0.029395615682005882,0.07224272936582565,-0.013526201248168945,-0.024525046348571777,-0.004594326019287109
0.030590098351240158,0.0020130272023379803,0.07524119317531586,-0.0029791593551635742,-0.0245053768157959,-0.00713348388671875
0.054797686636447906,-0.020181715488433838,0.09740623831748962,0.004352986812591553,-0.02119418978691101,0.00037172436714172363
0.07438387721776962,-0.07598787546157837,0.10685054212808609,0.005559027194976807,-0.02097421884536743,0.004469037055969238
0.0720413327217102,-0.09158962219953537,0.09460286051034927,-0.0012034177780151367,-0.02561822533607483,0.001318514347076416
0.04610011354088783,-0.034753356128931046,0.07578854262828827,-0.00813823938369751,-0.021847546100616455,-0.011243879795074463
0.011457237415015697,0.015135911293327808,0.032234273850917816,-0.010204851627349854,-0.019258350133895874,-0.02280402183532715
-0.02649109624326229,0.04672294482588768,-0.013936938717961311,-0.017578840255737305,-0.014151453971862793,-0.020913302898406982
-0.04502043500542641,0.03964535519480705,-0.038029126822948456,-0.011622786521911621,-0.0046977996826171875,-0.017825961112976074
-0.046092454344034195,0.024481698870658875,-0.05559492111206055,-0.0063547492027282715,0.004258394241333008,-0.02266794443130493
-0.0407940074801445,0.011417454108595848,-0.054009873420000076,-0.004439234733581543,0.012086749076843262,-0.027948439121246338
-0.033343605697155,0.028193730860948563,-0.030640773475170135,0.003124237060546875,0.021703720092773438,-0.027041733264923096
-0.02460618130862713,0.03736809268593788,-0.010614417493343353,0.00363999605178833,0.022929251194000244,-0.02396214008331299
-0.0011421074159443378,0.02191232331097126,0.007152664475142956,-0.0023583173751831055,0.010312527418136597,-0.009627074003219604
0.022125452756881714,-0.020680606365203857,0.01852317899465561,-0.009657323360443115,-0.0013585686683654785,0.008727312088012695
0.019685477018356323,-0.05179542675614357,0.019675172865390778,-0.01863926649093628,-0.011605024337768555,0.025260746479034424
-0.010538328438997269,-0.03240794315934181,0.017132189124822617,-0.02740609645843506,-0.01809367537498474,0.034624069929122925
-0.03424734249711037,-0.016606800258159637,0.02959015779197216,-0.02837836742401123,-0.018756121397018433,0.027920454740524292
-0.03829308971762657,0.0009426705073565245,0.03539363667368889,-0.026218831539154053,-0.014531135559082031,0.012852132320404053
-0.017758622765541077,-0.004638633690774441,0.04832477495074272,-0.026041805744171143,-0.016976535320281982,0.0009813904762268066
0.015547936782240868,-0.03227345645427704,0.06108664348721504,-0.01977992057800293,-0.01328665018081665,-0.011099457740783691
0.0313311330974102,-0.04029212146997452,0.061774466186761856,-0.021900653839111328,-0.015669822692871094,-0.01766258478164673
0.04457664489746094,-0.03880854696035385,0.062365319579839706,-0.019155681133270264,-0.011235624551773071,-0.02111336588859558
0.04733934998512268,-0.03402501717209816,0.045832276344299316,-0.018968164920806885,-0.011028289794921875,-0.020360469818115234
0.04039608687162399,-0.02358165942132473,0.0384800061583519,-0.014685988426208496,-0.007389694452285767,-0.016375601291656494
0.03532359004020691,-0.010435611940920353,0.02802450582385063,-0.0096588134765625,-0.005624651908874512,-0.019507229328155518
0.02920154482126236,0.012852286919951439,0.0155484639108181,-0.013627052307128906,0.003646671772003174,-0.01938605308532715
0.01125703752040863,0.02245108038187027,0.005570480599999428,-0.01254117488861084,0.0023889243602752686,-0.007927775382995605
-0.0023143598809838295,0.04064256697893143,0.023511171340942383,-0.007945477962493896,0.011927634477615356,-0.004854530096054077
0.01639186404645443,0.022495361045002937,0.030067404732108116,-0.0027030110359191895,0.00448647141456604,-0.0057145655155181885
0.037855833768844604,-0.019146468490362167,0.023813527077436447,-0.005422830581665039,-0.006708472967147827,-0.0028274953365325928
0.0374949611723423,-0.038018085062503815,0.016607116907835007,-0.014087438583374023,-0.01002812385559082,0.003383457660675049
0.02320045605301857,-0.047283001244068146,-0.0028244645800441504,-0.01630222797393799,-0.007725358009338379,0.003873169422149658
0.0023577059619128704,-0.02864733338356018,-0.032457076013088226,-0.025871455669403076,-0.013061225414276123,0.0024995505809783936
-0.010435013100504875,-0.0058705369010567665,-0.038523245602846146,-0.023562967777252197,-0.010096222162246704,0.00042888522148132324
-0.00956096313893795,-0.009377121925354004,-0.07851780205965042,-0.020419716835021973,-0.012794196605682373,-0.003573298454284668
-0.021174460649490356,0.006434526294469833,-0.13820147514343262,-0.02222985029220581,-0.017590045928955078,-0.001981973648071289
-0.06964445114135742,0.09293239563703537,-0.16963711380958557,-0.02276015281677246,-0.013172924518585205,0.004267752170562744
-0.1190640926361084,0.16582585871219635,-0.18214784562587738,-0.0032402873039245605,-0.011845916509628296,0.015676051378250122
-0.17585845291614532,0.22173061966896057,-0.21960507333278656,0.012337982654571533,-0.01731586456298828,0.020692408084869385
-0.23359721899032593,0.333831787109375,-0.23789115250110626,0.018463492393493652,-0.0053597092628479,0.017465919256210327
-0.2573605477809906,0.6595950126647949,-0.1306292563676834,0.02717667818069458,0.04110842943191528,-0.02007448673248291
-0.1721155196428299,1.0067138671875,-0.059154488146305084,0.04270291328430176,0.06413078308105469,-0.07400655746459961
-0.2144542634487152,1.166892647743225,0.01632477529346943,0.043206989765167236,0.11302646994590759,-0.07668817043304443
-0.15561248362064362,1.2252392768859863,0.04223448410630226,0.05556231737136841,0.050064027309417725,-0.060775935649871826
-0.15192338824272156,1.245927333831787,0.09526274353265762,0.03543978929519653,0.042550891637802124,-0.03740561008453369
-0.05978025123476982,1.0268076658248901,0.13751822710037231,0.028881072998046875,0.024917423725128174,-0.0016047954559326172
0.03693293407559395,0.780410647392273,0.1265425682067871,0.025661587715148926,0.011194109916687012,0.01332712173461914
0.07194171845912933,0.5499318838119507,0.087897390127182,0.011036455631256104,-0.005291491746902466,0.0553966760635376
0.0010534720495343208,0.4490668475627899,0.02115347981452942,-0.00513225793838501,-0.0025696754455566406,0.08028566837310791
-0.12210121750831604,0.4129442870616913,-0.04992655664682388,-0.008514702320098877,-0.022304415702819824,0.09598416090011597
-0.24657626450061798,0.44237154722213745,-0.09143345057964325,-0.023936688899993896,-0.012054294347763062,0.07273101806640625
-0.2958729863166809,0.394400954246521,-0.13110876083374023,-0.006873130798339844,-0.016742199659347534,0.04828345775604248
-0.2859784662723541,0.3766500651836395,-0.1646394431591034,-0.020379245281219482,-0.02510884404182434,0.0028084516525268555
-0.2769802212715149,0.42090126872062683,-0.1636083424091339,-0.015568256378173828,-0.01804545521736145,-0.023148000240325928
-0.21418587863445282,0.3968164622783661,-0.12896668910980225,-0.007440090179443359,-0.0027102530002593994,-0.03362476825714111
-0.12458660453557968,0.26036107540130615,-0.10102774202823639,0.010539233684539795,-0.008422255516052246,-0.0273435115814209
-0.03867827355861664,0.15636569261550903,-0.08955220878124237,0.004209458827972412,-0.004714310169219971,-0.03416872024536133
0.019489288330078125,0.11725182086229324,-0.06623075157403946,0.006458282470703125,-0.001955687999725342,-0.03893899917602539
0.03713373467326164,0.13772885501384735,-0.02917911671102047,0.004316091537475586,0.0027031004428863525,-0.03678399324417114
0.06286182254552841,0.0939653143286705,-0.01704581268131733,0.009596526622772217,0.009353220462799072,-0.026043951511383057
0.0706140398979187,0.06299664080142975,-0.010863748379051685,0.010547280311584473,0.0004216432571411133,-0.01549440622329712
0.06883279979228973,0.012211183086037636,-0.0008011800236999989,0.017344355583190918,-0.0003834366798400879,-0.0035486817359924316
0.05798477306962013,0.009623805992305279,0.006650727242231369,0.01903700828552246,0.002538233995437622,-0.00031876564025878906
0.06366816908121109,-0.0373527966439724,-0.0009639216586947441,0.015076518058776855,-0.006961196660995483,0.005035102367401123
0.02411545068025589,-0.06476185470819473,-0.010053128935396671,0.0140267014503479,0.002626955509185791,0.013396143913269043
-0.010736385360360146,-0.12022226303815842,-0.04432829096913338,0.009752511978149414,-0.0006018877029418945,0.0193941593170166
-0.016145294532179832,-0.17417193949222565,-0.07812760025262833,0.0021321773529052734,-0.003775298595428467,0.0058214664459228516
-0.013589106500148773,-0.20587055385112762,-0.09184213727712631,-0.0010449886322021484,-0.0028915703296661377,-0.005870640277862549
-0.00881654117256403,-0.21245114505290985,-0.07975558936595917,0.008405923843383789,0.003119051456451416,-0.011390209197998047
0.02427707612514496,-0.1773918867111206,-0.03713621571660042,0.015113115310668945,0.010050714015960693,-0.022628843784332275
0.040028929710388184,-0.16413861513137817,-0.005722493398934603,0.018216729164123535,0.013870835304260254,-0.020745396614074707
0.05325807258486748,-0.14417271316051483,0.018272310495376587,0.009517848491668701,0.01486310362815857,-0.01020902395248413
0.05995649844408035,-0.0923864021897316,0.04462079331278801,0.0024281740188598633,0.017618805170059204,-0.008074760437011719
0.07121331244707108,-0.09366563707590103,0.037661049515008926,-0.007581889629364014,0.00528794527053833,-0.0027596354484558105
0.056415192782878876,-0.09358707070350647,0.01472910214215517,-0.016268432140350342,-0.012225896120071411,0.011069416999816895
0.03635246679186821,-0.06413650512695312,-0.010656195692718029,-0.012309372425079346,-0.006804615259170532,0.011693358421325684
0.023549431934952736,-0.053545836359262466,-0.033019546419382095,-0.013071238994598389,-0.0041103363037109375,0.006431698799133301
0.005558616016060114,-0.05387302488088608,-0.04180436581373215,-0.007191836833953857,0.004133671522140503,0.012199163436889648
0.005248708184808493,-0.08226718753576279,-0.03959719091653824,0.0037964582443237305,0.011869370937347412,0.007439970970153809
0.02432958036661148,-0.12062782049179077,-0.015919100493192673,0.015074074268341064,0.013617396354675293,0.006048619747161865
0.032117970287799835,-0.13341543078422546,0.013878395780920982,0.025028645992279053,0.01757463812828064,0.0036298632621765137
0.04286739602684975,-0.1412665992975235,0.03557306155562401,0.023787856101989746,0.012436151504516602,-0.001754462718963623
0.04349946603178978,-0.12387418001890182,0.0567982941865921,0.028558433055877686,0.004518449306488037,-0.0030784010887145996
0.04046592488884926,-0.11278687417507172,0.060931846499443054,0.020816564559936523,-0.001116335391998291,0.00015717744827270508
0.03951195627450943,-0.09723019599914551,0.05973440408706665,0.011253833770751953,-0.005462288856506348,0.003716707229614258
0.04343114793300629,-0.09960954636335373,0.03456800803542137,0.004772067070007324,-0.0067205727100372314,-0.0031478404998779297
0.023942865431308746,-0.08288063108921051,0.024483103305101395,0.0038467049598693848,-0.006348967552185059,-3.325939178466797e-05
0.02418794482946396,-0.04083171486854553,0.03726232796907425,0.004484593868255615,0.007540196180343628,-0.00589144229888916
0.03366135433316231,-0.03166252747178078,0.05566360056400299,0.006835997104644775,0.006112277507781982,-0.00931316614151001
0.05488241836428642,-0.0359824039041996,0.06341656297445297,0.0006036758422851562,0.006724834442138672,-0.0026679039001464844
0.06971703469753265,-0.031066253781318665,0.06666792184114456,-0.005592703819274902,0.0018436312675476074,-0.0047168731689453125
0.06336361914873123,-0.011087857186794281,0.0554753839969635,-0.016479969024658203,0.007799267768859863,-0.0035590529441833496
0.03154352679848671,0.025567814707756042,0.060161735862493515,-0.017541348934173584,0.015893548727035522,0.004987537860870361
0.026633650064468384,0.017677968367934227,0.06754132360219955,-0.01798325777053833,0.021059483289718628,0.011869490146636963
0.004904920235276222,0.024303913116455078,0.09540997445583344,-0.018297791481018066,0.021650731563568115,0.014551639556884766
-0.0019257094245404005,0.015866031870245934,0.13055917620658875,-0.012925922870635986,0.00582614541053772,0.019313156604766846
0.005632664542645216,-0.005346807185560465,0.1668534129858017,-0.008972883224487305,-0.01510530710220337,0.01652240753173828
0.03624415770173073,-0.03586443513631821,0.18534068763256073,-0.01745086908340454,-0.030347466468811035,0.0018637776374816895
0.05460236221551895,-0.05859200283885002,0.18162418901920319,-0.021148085594177246,-0.033156394958496094,-0.006048083305358887
0.05287906154990196,-0.058423832058906555,0.18059280514717102,-0.024075448513031006,-0.028216034173965454,-0.017189383506774902
0.0724523589015007,-0.07373324781656265,0.196890190243721,-0.01583540439605713,-0.01062089204788208,-0.029791295528411865
0.11692841351032257,-0.11213146895170212,0.21450430154800415,-0.012735426425933838,-0.009038448333740234,-0.04308426380157471
0.17707476019859314,-0.15506508946418762,0.2380753755569458,-0.004258394241333008,-0.006533443927764893,-0.049430131912231445
0.21554826200008392,-0.19152885675430298,0.2291056513786316,-0.011611580848693848,-0.014732420444488525,-0.04687643051147461
0.24010397493839264,-0.2111561894416809,0.2205905318260193,-0.012675344944000244,-0.019281655550003052,-0.033782362937927246
0.2645251452922821,-0.2497960329055786,0.21694403886795044,-0.003966629505157471,-0.01702222228050232,-0.02032613754272461
0.25852513313293457,-0.24142181873321533,0.22851915657520294,-0.0045056939125061035,-0.012088954448699951,-0.008944988250732422
0.25508183240890503,-0.20757044851779938,0.2561962902545929,0.000125885009765625,0.0029726624488830566,-0.004873156547546387
0.26827505230903625,-0.21939727663993835,0.2622123658657074,-0.0033585429191589355,-0.0017385780811309814,0.005904436111450195
0.2527652978897095,-0.2337799370288849,0.246363565325737,-0.011388182640075684,-0.008695632219314575,0.012767374515533447
0.19827960431575775,-0.19937430322170258,0.2279070019721985,-0.017153143882751465,-0.01588103175163269,0.025175034999847412
0.15614767372608185,-0.17022022604942322,0.18470773100852966,-0.02774333953857422,-0.009753406047821045,0.01003873348236084
0.15040773153305054,-0.1469607800245285,0.15369346737861633,-0.031096696853637695,-0.010371118783950806,-0.005286037921905518
0.13438549637794495,-0.0705379843711853,0.1192350909113884,-0.02800309658050537,-0.015242546796798706,-0.01563560962677002
0.11631171405315399,-0.013590099290013313,0.05563861504197121,-0.025419533252716064,-0.021440625190734863,-0.014366388320922852
0.07340990006923676,0.06311380863189697,0.005116596817970276,-0.020539045333862305,-0.017163991928100586,-0.0034137964248657227
0.0599706806242466,0.07357459515333176,-0.022091081365942955,-0.00646817684173584,-0.00440552830696106,0.006531476974487305
0.07303249090909958,0.02306322008371353,-0.023776547983288765,0.009643912315368652,0.004742980003356934,0.012341141700744629
0.08640073239803314,-0.023067913949489594,-0.021761653944849968,0.01769840717315674,0.012896984815597534,0.012298345565795898
0.06704983115196228,-0.03154035285115242,-0.021885588765144348,0.022693514823913574,0.01782071590423584,0.015588879585266113
0.06518127024173737,-0.028131678700447083,-0.007113703526556492,0.02501136064529419,0.023308485746383667,0.00986248254776001
0.062408216297626495,0.010588938370347023,0.0135799590498209,0.025087356567382812,0.027280151844024658,0.0004818439483642578
0.07052763551473618,0.008175428956747055,0.015263274312019348,0.02253437042236328,0.023249030113220215,0.002341747283935547
0.06263002753257751,-0.035015981644392014,-0.005929363425821066,0.011046171188354492,0.018057674169540405,0.012999653816223145
0.03510105982422829,-0.057332705706357956,-0.017044944688677788,0.0057888031005859375,0.015754520893096924,0.025967180728912354
0.006715418770909309,-0.05544981732964516,-0.03320290893316269,-0.0005807876586914062,0.022064268589019775,0.02430593967437744
-0.00871398113667965,-0.024520771577954292,-0.048337679356336594,-0.004825592041015625,0.023715347051620483,0.01120990514755249
-0.03119533695280552,0.030205396935343742,-0.05347400903701782,-0.0025481581687927246,0.030794203281402588,0.006483495235443115
-0.05249232426285744,0.04838341474533081,-0.06606414169073105,0.005657196044921875,0.035103827714920044,0.00954592227935791
-0.06350282579660416,0.044706087559461594,-0.0725473016500473,0.0013786554336547852,0.02916043996810913,0.016247332096099854
-0.06641754508018494,0.01776725798845291,-0.057591237127780914,0.004029452800750732,0.02475053071975708,0.023041367530822754
-0.07483653724193573,0.010026820003986359,-0.047690264880657196,0.0008720755577087402,0.016424715518951416,0.02462148666381836
-0.09228019416332245,0.03010522946715355,-0.04876630753278732,-0.005002260208129883,0.009558111429214478,0.018943488597869873
-0.11043010652065277,0.05656670406460762,-0.03244419023394585,-0.007775783538818359,0.012147724628448486,0.009193837642669678
-0.08704939484596252,0.010429216548800468,0.002581789391115308,0.003008544445037842,0.017122477293014526,0.0047158002853393555
-0.05224057659506798,-0.03686415031552315,0.0367647260427475,0.00550466775894165,0.0153731107711792,-0.0025334954261779785
-0.03601463511586189,-0.0563272088766098,0.04947822540998459,0.0026633143424987793,0.0032692253589630127,-0.00704878568649292
-0.03241559490561485,-0.05029533430933952,0.034024666994810104,-0.0016764998435974121,-0.00797376036643982,-0.011680066585540771
-0.04321854189038277,-0.0214448980987072,0.02062433399260044,-0.006978869438171387,-0.013288170099258423,-0.012261688709259033
-0.06231173500418663,0.0043802750296890736,0.007089916616678238,-0.0026389360427856445,-0.007219880819320679,-0.011828005313873291
-0.0724884644150734,0.023715874180197716,-0.0084667494520545,-0.0031507015228271484,-0.012214332818984985,-0.011681556701660156
-0.07048402726650238,0.022483566775918007,-0.0065705133602023125,0.005489468574523926,-0.007322490215301514,-0.01820307970046997
-0.05236990749835968,-0.010561318136751652,-0.007672679610550404,0.014180541038513184,-0.008515268564224243,-0.017252743244171143
-0.04704319313168526,-0.0165600273758173,0.0012179540935903788,0.015379607677459717,-0.012915998697280884,-0.016174256801605225
-0.04148206114768982,-0.02132490463554859,-0.003075286280363798,0.014491140842437744,-0.010219156742095947,-0.019850552082061768
-0.054615359753370285,0.010876631364226341,0.004773522727191448,0.003950715065002441,-0.011339932680130005,-0.020717740058898926
-0.054128553718328476,0.021883027628064156,-0.012250815518200397,0.006697297096252441,-0.009078562259674072,-0.027375221252441406
-0.04219247028231621,0.00783035159111023,-0.020048756152391434,0.0006693005561828613,-0.02055501937866211,-0.023559749126434326
-0.030659271404147148,0.0060735419392585754,-0.014624154195189476,0.006814897060394287,-0.014275461435317993,-0.024747133255004883
-0.011886673979461193,0.017914840951561928,-0.023119186982512474,-0.000770270824432373,-0.0191042423248291,-0.026486873626708984
0.009162305854260921,-0.0008956772508099675,-0.02475597709417343,0.002907395362854004,-0.014833986759185791,-0.023316383361816406
0.009014233946800232,-0.0009225751855410635,-0.017151586711406708,0.0031122565269470215,-0.010499030351638794,-0.011149764060974121
0.007821068167686462,-0.0035971852485090494,-0.016418464481830597,0.006714224815368652,0.00015431642532348633,-0.009157717227935791
0.005196226295083761,-0.016879290342330933,-0.019482489675283432,-0.0009828805923461914,-0.005056709051132202,-0.005362510681152344
0.005136559251695871,-0.018098710104823112,-0.014190164394676685,-0.0019679665565490723,0.0006272196769714355,-0.0033321380615234375
0.013520944863557816,-0.029985014349222183,-0.029121140018105507,-0.00591355562210083,-0.004787415266036987,-0.005539000034332275
-0.0012452849186956882,-0.013090744614601135,-0.024018051102757454,-0.006212174892425537,-0.0011748671531677246,-0.0021660327911376953
0.005777203012257814,-0.0011973029468208551,-0.025433775037527084,0.0009590983390808105,0.0048136115074157715,-0.005108833312988281
0.010489355772733688,0.0010436647571623325,-0.015077770687639713,0.0017360448837280273,0.0033409595489501953,1.609325408935547e-05
0.0051084826700389385,0.002700499724596739,-0.002079184167087078,0.009340643882751465,0.007537782192230225,0.004777073860168457
-0.0033479779958724976,-0.0009864162420853972,-0.015671344473958015,0.006411612033843994,-0.00203549861907959,0.01112985610961914
-0.03104604408144951,0.018023457378149033,-0.016122937202453613,0.001792609691619873,-0.004017382860183716,0.010706305503845215
-0.05661445111036301,0.05959140509366989,-0.011376338079571724,0.006085693836212158,0.0037997066974639893,0.0029727816581726074
-0.03666149079799652,0.0425923615694046,-0.006001727655529976,0.009634435176849365,0.003199547529220581,-0.007145881652832031
0.014996156096458435,0.007558027282357216,-0.013643971644341946,0.008942723274230957,0.0009904801845550537,-0.013921856880187988
0.017205359414219856,0.0006575888255611062,-0.02486545592546463,0.0013371109962463379,0.0016479194164276123,-0.00914996862411499
-0.025780458003282547,0.019187862053513527,-0.05308191478252411,-0.005996406078338623,0.004513859748840332,0.006508529186248779
-0.060947712510824203,0.037932321429252625,-0.06255542486906052,-0.009381234645843506,0.011793762445449829,0.009331941604614258
-0.05664067715406418,0.03608044981956482,-0.04407215118408203,-0.0020609498023986816,0.012569159269332886,-0.0018407106399536133
-0.0184024628251791,0.022965403273701668,-0.023199984803795815,0.004342854022979736,0.011061131954193115,-0.009612083435058594
0.010779349133372307,0.032364387065172195,-0.005965048912912607,0.0008894205093383789,0.005647599697113037,-0.01474529504776001
0.0244921762496233,0.03908590227365494,-0.001939820358529687,-0.0005357265472412109,0.005605965852737427,-0.004973649978637695
0.01660396344959736,0.012203654274344444,-0.013133318163454533,-0.0078621506690979,0.0005514025688171387,0.01798713207244873
-0.022550590336322784,9.999331086874008e-05,-0.030049990862607956,-0.016690492630004883,-0.0001709461212158203,0.03676426410675049
-0.06570538133382797,0.014647475443780422,-0.040809616446495056,-0.02052384614944458,0.000168532133102417,0.03214186429977417
-0.06871487200260162,0.030201099812984467,-0.03391114994883537,-0.015041053295135498,0.005241811275482178,0.010345041751861572
-0.04432236775755882,0.043305110186338425,-0.01893465593457222,-0.007868468761444092,0.007329732179641724,-0.011915087699890137
-0.013295011594891548,0.040971677750349045,-0.015538358129560947,-0.008052349090576172,0.006218761205673218,-0.02303248643875122
-0.007619380950927734,0.03872062638401985,-0.0415053591132164,-0.013897716999053955,0.0003529191017150879,-0.017180979251861572
-0.06467582285404205,0.07048898935317993,-0.07835441082715988,-0.028727948665618896,0.00016504526138305664,0.0012161731719970703
-0.11802796274423599,0.08777518570423126,-0.09620657563209534,-0.027502596378326416,0.007441222667694092,0.014421463012695312
-0.12074869871139526,0.07821755111217499,-0.07587170600891113,-0.02519369125366211,0.013137459754943848,0.009693622589111328
-0.0773092582821846,0.04317323490977287,-0.04045943170785904,-0.020015835762023926,0.007094472646713257,-0.0018060803413391113
-0.030626777559518814,0.034468669444322586,-0.016771739348769188,-0.02629917860031128,-0.010016828775405884,-0.010167121887207031
0.0027017686516046524,0.028485560789704323,-0.05123543739318848,-0.034642696380615234,-0.03394550085067749,-0.012479662895202637
0.011705651879310608,0.04776762053370476,-0.13057449460029602,-0.05786943435668945,-0.044579386711120605,-0.012194156646728516
0.011087462306022644,0.09846864640712738,-0.1849602609872818,-0.05555224418640137,-0.02426314353942871,-0.010513603687286377
0.028168711811304092,0.15325653553009033,-0.19470663368701935,-0.04249352216720581,0.01011309027671814,-0.008182704448699951
0.03185446932911873,0.15332597494125366,-0.24201463162899017,-0.025457799434661865,0.0005882680416107178,0.014278411865234375
-0.031087521463632584,0.15412376821041107,-0.2903003990650177,-0.01090240478515625,0.008177071809768677,0.047275543212890625
-0.12256962805986404,0.14256830513477325,-0.3095299005508423,-0.0016422271728515625,0.030351370573043823,0.06606966257095337
-0.16799530386924744,0.13041098415851593,-0.28005415201187134,0.025312185287475586,0.05427813529968262,0.06014907360076904
-0.18968310952186584,0.10932974517345428,-0.23287779092788696,0.05351978540420532,0.06205371022224426,0.0491979718208313
-0.2109927386045456,0.08055409044027328,-0.1745971143245697,0.06681579351425171,0.05041247606277466,0.04428583383560181
-0.23108427226543427,0.018689315766096115,-0.1455918252468109,0.06903165578842163,0.04033598303794861,0.03974801301956177
-0.23641999065876007,-0.02364375628530979,-0.11516179889440536,0.06099224090576172,0.03809225559234619,0.017598211765289307
-0.2390209436416626,-0.022469379007816315,-0.06830082088708878,0.06222730875015259,0.04798531532287598,-0.010407865047454834
-0.22105929255485535,0.003506716340780258,-0.015838395804166794,0.06406188011169434,0.04935789108276367,-0.03245842456817627
-0.18615463376045227,0.03219005838036537,0.028163917362689972,0.06794160604476929,0.033084094524383545,-0.04985499382019043
-0.14703959226608276,0.05622188374400139,0.046173907816410065,0.06416308879852295,0.021929919719696045,-0.05830436944961548
-0.11803784221410751,0.059695180505514145,0.05509677901864052,0.057395756244659424,0.010096043348312378,-0.05402064323425293
-0.10015179961919785,0.08362080156803131,0.05871344357728958,0.048177480697631836,0.002911299467086792,-0.0450974702835083
-0.0995960608124733,0.10825557261705399,0.06337126344442368,0.03731822967529297,-0.006618499755859375,-0.030087947845458984
-0.09390278160572052,0.13207419216632843,0.057673096656799316,0.028554797172546387,-0.013461947441101074,-0.022857308387756348
-0.0983029305934906,0.1445380598306656,0.03591129556298256,0.016457855701446533,-0.020235836505889893,-0.01705038547515869
-0.13651081919670105,0.19280004501342773,-0.003518101293593645,-0.0020471811294555664,-0.02460840344429016,-0.012175917625427246
-0.16242428123950958,0.2369871437549591,-0.030849866569042206,-0.006214022636413574,-0.016601622104644775,-0.014784514904022217
-0.16279186308383942,0.2507849931716919,-0.06812511384487152,-0.02239137887954712,-0.023383408784866333,-0.022185087203979492
-0.1402745246887207,0.19246771931648254,-0.0947335809469223,-0.04158562421798706,-0.025807827711105347,-0.009451210498809814
-0.08141898363828659,0.04764760658144951,-0.11136205494403839,-0.061379432678222656,-0.03508073091506958,0.012068092823028564
-0.0021850343327969313,-0.10689980536699295,-0.12302562594413757,-0.07196676731109619,-0.040865182876586914,0.024751663208007812
-0.008778178133070469,-0.1439746618270874,-0.158345565199852,-0.08433175086975098,-0.04085510969161987,0.04438936710357666
-0.0723549947142601,-0.047754764556884766,-0.17359262704849243,-0.09139895439147949,-0.02469581365585327,0.04857689142227173
-0.11111078411340714,0.049350250512361526,-0.18364161252975464,-0.08655834197998047,-0.001714468002319336,0.03419679403305054
-0.12565159797668457,0.11707904934883118,-0.17992226779460907,-0.0686221718788147,0.015338867902755737,0.021633565425872803
-0.11798042058944702,0.10937954485416412,-0.16610701382160187,-0.039763569831848145,0.02609202265739441,0.01602005958557129
-0.10377047210931778,0.0737968161702156,-0.14952997863292694,-0.018554866313934326,0.0349690318107605,0.014024734497070312
-0.08572760224342346,0.038866978138685226,-0.1543491929769516,-0.007976770401000977,0.03787335753440857,0.0034061074256896973
-0.09672101587057114,0.023477980867028236,-0.17882947623729706,-0.008946597576141357,0.039976656436920166,0.003237485885620117
-0.14837229251861572,0.0467638224363327,-0.20005741715431213,-0.008948922157287598,0.04980713129043579,0.009083986282348633
-0.1911543905735016,0.04185725748538971,-0.23025305569171906,-0.005459606647491455,0.04736173152923584,0.014844655990600586
-0.21404504776000977,0.04017128050327301,-0.2575168013572693,-0.00484079122543335,0.04541438817977905,0.00879979133605957
-0.2289075404405594,0.0599275566637516,-0.26686224341392517,0.0022749900817871094,0.048490315675735474,0.003155231475830078
-0.23816362023353577,0.07867378741502762,-0.27731195092201233,0.013358473777770996,0.04696023464202881,9.697675704956055e-05
-0.2539912462234497,0.09247474372386932,-0.3001808226108551,0.018503129482269287,0.040603697299957275,0.003310680389404297
-0.2869858145713806,0.1177365779876709,-0.34211698174476624,0.020655155181884766,0.034460872411727905,0.010133624076843262
-0.34377026557922363,0.1566283106803894,-0.376690149307251,0.02404075860977173,0.036019742488861084,0.02081298828125
-0.3900976777076721,0.18502499163150787,-0.4037327170372009,0.03524845838546753,0.04064181447029114,0.027487099170684814
-0.43863633275032043,0.2406608611345291,-0.4114929437637329,0.03797954320907593,0.047006070613861084,0.024885177612304688
-0.4681418538093567,0.2656136751174927,-0.4240369498729706,0.04431557655334473,0.05032473802566528,0.019231855869293213
-0.49527621269226074,0.27193474769592285,-0.4321373403072357,0.04088038206100464,0.052270472049713135,0.022164583206176758
-0.50357586145401,0.25514549016952515,-0.4299424886703491,0.0427241325378418,0.056490689516067505,0.02184849977493286
-0.5086663961410522,0.24390265345573425,-0.4204992651939392,0.03420668840408325,0.053370773792266846,0.025678157806396484
-0.5171117782592773,0.21767732501029968,-0.4029659926891327,0.026099026203155518,0.05113133788108826,0.026875674724578857
-0.5167352557182312,0.16058675944805145,-0.412991464138031,0.004369139671325684,0.04445788264274597,0.03594332933425903
-0.5744301676750183,0.1579197198152542,-0.4358738660812378,-0.008653461933135986,0.0375857949256897,0.042424798011779785
-0.6766800284385681,0.22658118605613708,-0.4484044909477234,-0.005881965160369873,0.03566789627075195,0.048361122608184814
-0.7277865409851074,0.2884756624698639,-0.4463120698928833,0.002368748188018799,0.037189096212387085,0.02768021821975708
-0.736233115196228,0.33175334334373474,-0.42756888270378113,0.002187073230743408,0.03217881917953491,0.002133667469024658
-0.7292830348014832,0.35093215107917786,-0.39876502752304077,0.01984548568725586,0.03288388252258301,-0.009974002838134766
-0.6993189454078674,0.3373223841190338,-0.379210889339447,0.022625625133514404,0.02774450182914734,-0.0234907865524292
-0.6605153679847717,0.30388036370277405,-0.3508772850036621,0.03127497434616089,0.024032682180404663,-0.029178977012634277
-0.6440078020095825,0.2876276969909668,-0.33409419655799866,0.03231555223464966,0.01948431134223938,-0.027858257293701172
-0.6323984861373901,0.30359071493148804,-0.3336690068244934,0.0263097882270813,0.01235651969909668,-0.033960700035095215
-0.6082579493522644,0.28306010365486145,-0.3317444324493408,0.02054494619369507,0.0005787909030914307,-0.03576695919036865
-0.581519365310669,0.25470876693725586,-0.3213992118835449,0.014582157135009766,-0.004345297813415527,-0.028937697410583496
-0.5770415663719177,0.26369795203208923,-0.3211442530155182,0.014374136924743652,-0.010172903537750244,-0.02452266216278076
-0.5900338888168335,0.2923515737056732,-0.3112616240978241,0.01051861047744751,-0.018480271100997925,-0.018145382404327393
-0.5917336940765381,0.30006882548332214,-0.30039533972740173,0.009776413440704346,-0.021924257278442383,-0.015835046768188477
-0.5925395488739014,0.2813469171524048,-0.29149484634399414,0.010847032070159912,-0.032380521297454834,-0.01639038324356079
-0.5816584229469299,0.2611101269721985,-0.2794828414916992,0.011807382106781006,-0.03801000118255615,-0.023439109325408936
-0.5447386503219604,0.2721153199672699,-0.2581370770931244,0.012648999691009521,-0.032114267349243164,-0.046218037605285645
-0.4842703640460968,0.25748133659362793,-0.23709967732429504,0.004163146018981934,-0.033948659896850586,-0.0628589391708374
-0.4239165186882019,0.21169209480285645,-0.22224226593971252,-0.000307619571685791,-0.03755262494087219,-0.06351369619369507
-0.36827585101127625,0.1786232441663742,-0.22490215301513672,-0.006387770175933838,-0.043594300746917725,-0.06568825244903564
-0.3213609457015991,0.15823742747306824,-0.23721511662006378,-0.012508809566497803,-0.04337960481643677,-0.06633502244949341
-0.30938807129859924,0.171911358833313,-0.23007550835609436,-0.017572343349456787,-0.03384152054786682,-0.05217081308364868
-0.29326462745666504,0.16716402769088745,-0.22118541598320007,-0.016838669776916504,-0.034300267696380615,-0.03483098745346069
-0.23498117923736572,0.12521617114543915,-0.19911672174930573,-0.019256889820098877,-0.042419493198394775,-0.031145036220550537
-0.19104807078838348,0.08627589046955109,-0.17108972370624542,-0.013621151447296143,-0.05032205581665039,-0.0220184326171875
-0.17922914028167725,0.0812336876988411,-0.16096548736095428,-0.013809442520141602,-0.052937477827072144,-0.012860536575317383
-0.16628335416316986,0.10897009074687958,-0.16657902300357819,-0.01570272445678711,-0.050199657678604126,-0.017460107803344727
-0.18428188562393188,0.1668602079153061,-0.19262874126434326,-0.017082810401916504,-0.04623669385910034,-0.013285636901855469
-0.19785092771053314,0.17464397847652435,-0.20974986255168915,-0.011450052261352539,-0.027095526456832886,0.005008697509765625
-0.1990402787923813,0.14662426710128784,-0.176015704870224,0.007619678974151611,-0.009472191333770752,0.009697139263153076
-0.1838756799697876,0.10397518426179886,-0.12034740298986435,0.027154624462127686,0.012214243412017822,0.0037856698036193848
-0.15501669049263,0.043761491775512695,-0.06587816029787064,0.032540082931518555,0.01713964343070984,-0.01008915901184082
-0.1272662729024887,0.024662811309099197,-0.034355565905570984,0.02320849895477295,0.007056504487991333,-0.024976730346679688
-0.10389437526464462,0.014269869774580002,-0.04301793873310089,0.001923680305480957,-0.010320782661437988,-0.03334343433380127
-0.06704482436180115,-0.022063851356506348,-0.05102846771478653,-0.011045217514038086,-0.024067163467407227,-0.0312231183052063
-0.01936524361371994,-0.05118025466799736,-0.0663982629776001,-0.01592850685119629,-0.02742105722427368,-0.03525102138519287
0.007268012035638094,-0.05037219449877739,-0.07707919180393219,-0.011824071407318115,-0.021693110466003418,-0.03360110521316528
0.025870246812701225,-0.01976841129362583,-0.08761050552129745,-0.004073500633239746,-0.017622828483581543,-0.028458118438720703
0.01767757721245289,0.011808112263679504,-0.08735121041536331,0.004581332206726074,-0.007159322500228882,-0.012381315231323242
-0.00021760351955890656,0.017321128398180008,-0.08901173621416092,0.004202663898468018,-0.00892561674118042,0.008582651615142822
-0.015891246497631073,0.03900941461324692,-0.0910446047782898,0.002486109733581543,-0.012029409408569336,0.01508188247680664
-0.02377200312912464,0.05855780839920044,-0.09950355440378189,0.0037398934364318848,-0.012923717498779297,0.011297047138214111
-0.028599273413419724,0.08614026010036469,-0.09824130684137344,0.004804253578186035,-0.011753618717193604,0.007235169410705566
-0.035618122667074203,0.08787140995264053,-0.08623063564300537,0.006495535373687744,-0.007085174322128296,0.0045961737632751465
-0.037017107009887695,0.1014280766248703,-0.07360731810331345,-0.00034809112548828125,-0.007541954517364502,0.001546025276184082
-0.03705060854554176,0.1246226504445076,-0.06288743019104004,-0.00785762071609497,-0.012528955936431885,-0.006875097751617432
-0.009722243994474411,0.12586578726768494,-0.04162605106830597,-0.008616864681243896,-0.019998759031295776,-0.018141746520996094
0.04650416225194931,0.09444573521614075,-0.045359812676906586,-0.015334606170654297,-0.03790363669395447,-0.025965094566345215
0.10471674799919128,0.03047524020075798,-0.029358401894569397,-0.007332861423492432,-0.03998944163322449,-0.02002471685409546
0.15298067033290863,-0.019574077799916267,0.002477293834090233,0.008153796195983887,-0.026050686836242676,-0.018549621105194092
0.19838112592697144,-0.07510948181152344,0.048647690564394,0.01731628179550171,-0.018442243337631226,-0.012259602546691895
0.21005408465862274,-0.10004176199436188,0.09633428603410721,0.02895277738571167,-0.007290154695510864,-0.008181214332580566
0.1989775449037552,-0.0870455801486969,0.12921708822250366,0.01280444860458374,0.0004031062126159668,-0.02006518840789795
0.1910153478384018,-0.09867819398641586,0.14428207278251648,0.0040854811668396,-0.021773844957351685,-0.025166809558868408
0.2895765006542206,-0.17619837820529938,0.1688992828130722,-0.02309107780456543,-0.036730796098709106,-0.05304831266403198
0.42682039737701416,-0.2387593537569046,0.2383575141429901,-0.02008754014968872,-0.03518769145011902,-0.062233030796051025
0.49859797954559326,-0.2652027904987335,0.31175461411476135,-0.0070323944091796875,-0.025543153285980225,-0.0415271520614624
0.5091802477836609,-0.26057660579681396,0.3388077914714813,-0.00433349609375,-0.031621336936950684,-0.014623463153839111
0.49639031291007996,-0.23761340975761414,0.3429471552371979,-0.0012891292572021484,-0.0365656316280365,-0.0004814267158508301
0.47875022888183594,-0.2209896445274353,0.37539568543434143,0.013769865036010742,-0.02042636275291443,0.002121448516845703
0.5060181617736816,-0.2591663897037506,0.4475414454936981,0.03044450283050537,-0.0014734864234924316,0.002068758010864258
0.5213679671287537,-0.3184768259525299,0.502448558807373,0.026454687118530273,-2.777576446533203e-05,0.008879005908966064
0.5327414870262146,-0.3789369761943817,0.5412489175796509,0.024476468563079834,-0.008030235767364502,0.010543525218963623
0.5457995533943176,-0.4319212734699249,0.5510181784629822,0.02158057689666748,-0.021673917770385742,-0.0017861127853393555
0.5638068318367004,-0.46259093284606934,0.5524610877037048,0.010169506072998047,-0.02785852551460266,-0.020647883415222168
0.6046944260597229,-0.5050866007804871,0.5464164614677429,0.004140138626098633,-0.022820711135864258,-0.026691555976867676
0.6507180333137512,-0.5110181570053101,0.5088985562324524,-0.00790172815322876,-0.01450568437576294,-0.03910154104232788
