rotation_x,rotation_y,rotation_z,acceleration_x,acceleration_y,acceleration_z
-0.05428784713149071,-0.015711966902017593,-0.031765300780534744,-0.006220206618309021,-0.004290401935577393,-0.012739121913909912
0.017993096262216568,-0.008710486814379692,-0.004861502908170223,0.005628734827041626,-0.005241036415100098,-0.026485204696655273
0.008585836738348007,-0.021771222352981567,-0.006988323759287596,-0.01067061722278595,0.007858037948608398,-0.009842395782470703
-0.028598327189683914,0.0023030703887343407,-0.02055220678448677,-0.009665757417678833,-0.0016020536422729492,0.011284351348876953
-0.021732278168201447,-0.0020648385398089886,-0.014671079814434052,-0.0037256181240081787,-0.005648374557495117,-0.00887686014175415
0.008922656998038292,-0.009426496922969818,-0.00749195134267211,-0.000627472996711731,-0.0071152448654174805,-0.010807514190673828
0.028018996119499207,-0.040683601051568985,0.001978847198188305,0.013756051659584045,-0.007318615913391113,-0.01466226577758789
0.03369460254907608,-0.006949457339942455,0.020060498267412186,0.0044290125370025635,-0.005981028079986572,0.010575175285339355
0.014470532536506653,-0.010458584874868393,0.019808422774076462,0.006215929985046387,-0.005263566970825195,-0.010510683059692383
0.013530967757105827,0.0017329109832644463,0.009841050952672958,-0.004152432084083557,-0.0009137988090515137,-0.006893277168273926
0.01475575566291809,-0.04978673905134201,-0.007582946680486202,-0.009779630228877068,0.0038650035858154297,0.005102574825286865
0.09481915086507797,-0.06404107809066772,0.010498038493096828,-0.0012752711772918701,0.0005937814712524414,-0.03890717029571533
0.04872662201523781,-0.018085118383169174,0.030603716149926186,0.009787173941731453,-0.003911018371582031,0.008070826530456543
-0.04133327677845955,0.02238129824399948,-0.02764585241675377,-0.04054030776023865,0.008952140808105469,0.03332984447479248
-0.03701644763350487,-0.010230116546154022,-0.03725700452923775,0.0030575841665267944,-0.0064640045166015625,-0.008568167686462402
0.008444156497716904,-0.04430236294865608,-0.023857319727540016,0.010640725493431091,-0.006548702716827393,-0.010539710521697998
0.026736296713352203,-0.06567002832889557,-0.023221196606755257,0.0025330781936645508,0.0008440613746643066,-0.024043500423431396
0.010502598248422146,0.009872838854789734,-0.024382980540394783,-0.0101422518491745,0.0005110502243041992,-0.0047959089279174805
-0.009602749720215797,0.022748200222849846,-0.03836304694414139,-0.008780479431152344,-0.003063797950744629,-0.012860715389251709
0.015799205750226974,0.005421957932412624,-0.0203947015106678,-0.0007229447364807129,-0.007035553455352783,-0.005176663398742676
0.03050043247640133,0.003335967194288969,-0.02085772156715393,-0.002941116690635681,-0.0024126768112182617,-0.009261667728424072
-0.004871978424489498,-0.013853125274181366,-0.02824229747056961,-0.009116649627685547,0.0044574737548828125,-0.0030957460403442383
-0.027255896478891373,0.05211794748902321,-0.009181867353618145,0.0028400570154190063,-0.0006530284881591797,-0.009494662284851074
-0.010000321082770824,0.07717974483966827,0.014696601778268814,0.01133023202419281,-0.006961464881896973,-0.0006216168403625488
-0.014535288326442242,0.06582801043987274,-0.005542965140193701,-0.0024788230657577515,-0.005389869213104248,0.013887107372283936
-0.03413939103484154,0.017088552936911583,-0.009212142787873745,0.008496435359120369,-0.002212703227996826,0.01071852445602417
-0.0006034239195287228,0.0011745456140488386,-0.013434426859021187,-9.047985076904297e-05,0.001886129379272461,-0.005358099937438965
0.0017746887169778347,0.0006784559227526188,-0.0068737054243683815,0.009685322642326355,0.0018556714057922363,-0.013848066329956055
0.0004573133774101734,0.015852823853492737,0.0007365196943283081,0.0033898502588272095,-0.0028954744338989258,-0.021324336528778076
-0.014005184173583984,0.00616477383300662,-0.005532467737793922,0.0014137942343950272,-0.0011616349220275879,-0.010267317295074463
-0.019604768604040146,0.009154323488473892,-0.004955049604177475,0.006105288863182068,-0.008069992065429688,-0.006903588771820068
-0.006286080460995436,0.010213194414973259,-0.010928038507699966,-0.0006799101829528809,0.0035237669944763184,-0.001540541648864746
-0.0008878074586391449,-0.017641523852944374,0.0006107308436185122,0.0069582462310791016,-0.0075637102127075195,-0.006681382656097412
-0.015167389065027237,-0.023768357932567596,0.019067151471972466,0.0036382079124450684,-0.00469362735748291,0.010030150413513184
-0.011190865188837051,-0.003725287038832903,0.012841247953474522,-0.00769709050655365,-0.0009261965751647949,0.004654645919799805
-0.0023159680422395468,0.027053898200392723,-0.003694062354043126,2.1710991859436035e-05,-0.00826561450958252,-0.0061247944831848145
-0.009815056808292866,0.015726368874311447,-0.0006394119700416923,0.00972624309360981,-0.003103911876678467,-0.00037163496017456055
-0.007384316995739937,0.03854487091302872,0.00803129468113184,0.00454634428024292,0.001146554946899414,-0.010085582733154297
-0.0030519110150635242,0.0006746978033334017,0.018515437841415405,0.002574443817138672,0.0037900805473327637,-0.00674283504486084
0.016396574676036835,-0.020521193742752075,0.007039770483970642,-0.009608685970306396,0.003359973430633545,-0.015340626239776611
0.03916950896382332,-0.009113575331866741,0.011774154379963875,0.0014853030443191528,0.0009642839431762695,-0.015512585639953613
0.0032417569309473038,0.04184168949723244,-0.009586457163095474,-0.00717906653881073,-0.00795668363571167,0.013626456260681152
-0.052513159811496735,0.02191408909857273,-0.01920011080801487,-0.0013274233788251877,-0.007628977298736572,0.025231659412384033
-0.02133311703801155,-0.0033376184292137623,-0.01638200134038925,0.0019491612911224365,-0.006622374057769775,-0.002032041549682617
0.02715962938964367,0.02599964290857315,-0.0071966201066970825,-0.00826437771320343,0.0011280179023742676,-0.010871410369873047
-0.009869758039712906,0.013513855636119843,-0.002176326932385564,0.00023126602172851562,-0.005511939525604248,-0.0018389225006103516
-0.02744142897427082,-0.010352946817874908,-0.010257542133331299,0.0010130256414413452,-0.006743967533111572,-0.007143616676330566
-0.020419051870703697,-0.03940623253583908,-0.01496966928243637,0.005878940224647522,-0.006070435047149658,-0.01595163345336914
0.0051932125352323055,-0.013315447606146336,-0.013204862363636494,-0.0017827004194259644,-0.0032767653465270996,-0.015802860260009766
-0.018987160176038742,-0.006745166145265102,-0.0001142662949860096,-0.0067364126443862915,-0.0012634992599487305,0.012174904346466064
-0.058454450219869614,0.0040720924735069275,-0.0031387247145175934,-0.0025979727506637573,-0.00630265474319458,0.007841825485229492
-0.03489353135228157,-0.026720799505710602,-0.007467183750122786,-0.0002802163362503052,-0.004657387733459473,-0.0045008063316345215
0.04007631167769432,-0.02095179073512554,-0.00986291654407978,-0.003916442394256592,-0.0009673237800598145,-0.023156404495239258
0.02270478755235672,-0.023526525124907494,-0.010781015269458294,0.0016423910856246948,-0.0023120641708374023,-0.005542397499084473
-0.028288204222917557,-0.025543292984366417,-7.261778227984905e-05,-0.003049403429031372,0.0015285015106201172,0.021952271461486816
-0.06346112489700317,-0.005579296499490738,0.01087036170065403,-0.0015003234148025513,-0.0055713653564453125,0.008292198181152344
-0.04623160511255264,0.018735546618700027,-0.01516392920166254,-0.008075714111328125,-0.0013380050659179688,-0.0049915313720703125
0.0037986235693097115,-0.0367756225168705,-0.024533182382583618,0.009377390146255493,-0.002596139907836914,-0.03208082914352417
0.03843287378549576,-0.04030711203813553,-0.020234862342476845,0.003871472552418709,0.0033078789710998535,-0.028694331645965576
0.01485835574567318,0.014680234715342522,0.007484170608222485,0.008476361632347107,-0.002780437469482422,0.00405430793762207
-0.04353990778326988,0.013615765608847141,0.014572268351912498,-0.0004087686538696289,-0.0032393932342529297,0.007213771343231201
-0.024370605126023293,-0.002246728166937828,-0.002111789071932435,-0.011055663228034973,-0.005075573921203613,0.0013093352317810059
0.003577739465981722,-0.031234528869390488,-0.009762726724147797,-0.0016052573919296265,-0.0027790069580078125,-0.010254144668579102
-0.004557155072689056,0.017176497727632523,-0.011631961911916733,0.0006946325302124023,-0.006285607814788818,-0.0030568838119506836
-0.021327229216694832,0.03480143845081329,0.001789705827832222,0.00836685299873352,-0.00424504280090332,-0.013591468334197998
-0.02809785306453705,-0.007999727502465248,0.009207612834870815,0.006983757019042969,0.00035369396209716797,-0.016928553581237793
0.017230721190571785,-0.028341418132185936,0.011840257793664932,0.0006908029317855835,0.0006542205810546875,-0.023403048515319824
0.01377441082149744,0.013363847509026527,-0.0004586030263453722,-5.599856376647949e-05,-0.0032630562782287598,-0.004562020301818848
-0.017708327621221542,0.012953491881489754,-0.0016136091435328126,0.006186487153172493,-0.006419360637664795,0.009756982326507568
-0.01847958192229271,0.006614999379962683,0.003618997987359762,0.0075128525495529175,-0.007986664772033691,-0.000948786735534668
0.009648171253502369,-0.0017314683645963669,0.0197527427226305,0.004063993692398071,0.003555893898010254,-0.015406012535095215
0.01275559514760971,-0.021181022748351097,0.013816937804222107,-0.0034014713019132614,0.004152953624725342,-0.008212625980377197
-0.002189250197261572,0.00491346325725317,0.0001890268176794052,-0.011159626767039299,-0.00164717435836792,-0.006811320781707764
-0.03221909701824188,0.0145616065710783,-0.012954385951161385,-0.0034274011850357056,-0.0010159611701965332,-0.0057525634765625
-0.0050520142540335655,-0.006254672072827816,-0.012257678434252739,-0.0019812434911727905,-0.005178868770599365,-0.007642209529876709
-0.009667003527283669,0.016966942697763443,-0.011709635145962238,-0.00608581118285656,-0.0030727386474609375,0.0007874369621276855
-0.004135260824114084,0.01187437865883112,0.01414165087044239,0.006157591938972473,-0.0007732510566711426,-0.0023409128189086914
0.010964416898787022,0.04131432995200157,0.017311086878180504,-0.0014809202402830124,-0.0001417398452758789,-0.0035284757614135742
-0.009008913300931454,-0.0024141869507730007,0.008262130431830883,0.0006420314311981201,-0.0011724233627319336,-0.00545501708984375
-0.0035052066668868065,-0.00982555840164423,-0.008810608647763729,-0.0018341988325119019,-0.003075540065765381,-0.006351292133331299
0.00635844049975276,-0.018967386335134506,-0.0006062830798327923,0.001345708966255188,-0.0009946227073669434,-0.01647353172302246
-0.006230196915566921,-0.014784243889153004,0.0099123390391469,-0.0016681551933288574,0.0007255077362060547,-0.011438727378845215
0.003786955028772354,0.0016878452152013779,0.0169735886156559,0.00019562430679798126,0.0011990666389465332,-0.014748632907867432
-0.013007847592234612,0.01769178733229637,0.0004841627087444067,-0.0064475685358047485,-0.0031430721282958984,0.005074620246887207
0.025265369564294815,-0.010551383718848228,-0.012020830065011978,-0.0030383020639419556,0.0009429454803466797,-0.011768817901611328
0.026143858209252357,-0.011979137547314167,-0.010115614160895348,0.0014691203832626343,-0.003648042678833008,0.0018367171287536621
0.02015247941017151,-0.002243327908217907,0.0014251344837248325,-0.0024750810116529465,0.0021055936813354492,-0.004652559757232666
-0.0002833995968103409,0.049632858484983444,0.0025993911549448967,-0.002003401517868042,-0.002757728099822998,-0.0027465224266052246
0.003450690768659115,-0.01100778579711914,-0.004333308897912502,-0.0011084377765655518,-0.0017822980880737305,-0.0026529431343078613
0.01711423695087433,-0.015572614967823029,-0.012744965963065624,-0.003060072660446167,-0.004480838775634766,-0.0007404685020446777
0.007978366687893867,-0.010056687518954277,0.003772477386519313,0.004344269633293152,-0.004247307777404785,-0.00960230827331543
-0.013804446905851364,0.0012272761669009924,0.009245052933692932,0.00357113778591156,0.0028124451637268066,-2.1219253540039062e-05
-0.0004413067363202572,0.02543397806584835,0.013777203857898712,-0.003103315830230713,0.0018530488014221191,-0.013985633850097656
0.021271780133247375,-0.014809480868279934,0.013603049330413342,0.0034750699996948242,-0.0040857791900634766,-0.006051480770111084
0.02562946453690529,-0.0013523250818252563,-0.017409829422831535,-0.014735296368598938,-0.0019959211349487305,-0.005025982856750488
-0.008738960139453411,-0.0008958545513451099,-0.005801470950245857,0.010238885879516602,-0.0039536356925964355,0.0053157806396484375
-0.026319079101085663,0.007958504371345043,-0.0003905670018866658,-0.004085361957550049,-0.0027451515197753906,-0.004178225994110107
-0.01926334761083126,-0.005241757724434137,0.010689929127693176,0.00012367963790893555,0.0017505884170532227,-0.008260071277618408
0.00183798186480999,0.000787161523476243,0.0100291408598423,-0.011524572968482971,0.0012286901473999023,0.002573251724243164
-0.009622286073863506,-0.00484863668680191,-0.006750749424099922,0.006748080253601074,-0.003035247325897217,-0.0029466748237609863
0.006858817767351866,0.007432704791426659,-0.017812035977840424,0.007529914379119873,-0.0037076473236083984,-0.013050079345703125
0.005323309451341629,-0.014885563403367996,-0.006749773398041725,0.0077402591705322266,-0.0009248256683349609,-0.00448763370513916
0.008534747175872326,0.00406345259398222,0.012659817934036255,-0.005398957058787346,-0.0035274624824523926,-0.0010623335838317871
0.0006931787356734276,0.0047437711618840694,0.01302596740424633,-0.012684419751167297,-0.0019693374633789062,-0.008890926837921143
0.020439229905605316,0.005721563473343849,-0.0058991145342588425,-0.0004060417413711548,-0.008263587951660156,-0.025630831718444824
0.032059669494628906,0.016612209379673004,-0.012382881715893745,0.0019720513373613358,-0.0077738165855407715,-0.021155238151550293
0.02949107065796852,0.014271941967308521,0.011257418431341648,0.004489153623580933,-0.003017246723175049,-0.003845810890197754
0.010943951085209846,-0.02840212732553482,0.030931776389479637,0.0011145323514938354,-0.0048912763595581055,-0.0020020008087158203
0.002605216111987829,0.01459534466266632,0.033735353499650955,-0.008754029870033264,-0.004108071327209473,-0.010789275169372559
-0.01507661584764719,0.037811946123838425,0.011038878932595253,-0.009908154606819153,-0.00768733024597168,-0.003361046314239502
-0.0033905773889273405,-0.018244633451104164,-0.0095673194155097,0.003497764468193054,-0.0075637102127075195,-0.004603683948516846
0.043015047907829285,-0.0382448211312294,-0.015488719567656517,0.006765082478523254,-0.006382584571838379,-0.015656590461730957
0.03130073472857475,-0.03682544827461243,-0.007710007950663567,0.0079842209815979,0.0010533928871154785,0.00044727325439453125
0.04338134080171585,-0.018774578347802162,0.01269601471722126,0.00395829975605011,0.0009974241256713867,-0.013031363487243652
0.0322033055126667,0.002236931351944804,0.010002566501498222,-0.0062916576862335205,0.007393240928649902,0.003399074077606201
0.04006417840719223,-0.013021895661950111,0.002687853993847966,-0.0008417367935180664,0.0010402202606201172,-8.231401443481445e-05
0.011281289160251617,-0.004948659799993038,-0.0017777893226593733,0.003040492534637451,-0.0008769631385803223,0.0085945725440979
-0.013155100867152214,0.016884975135326385,0.0028263614512979984,0.003014087677001953,-0.00402069091796875,0.01018977165222168
0.008816797286272049,0.03308803215622902,-0.005747200921177864,-0.011653199791908264,0.00156480073928833,-0.009584367275238037
0.06063840538263321,0.014603950083255768,-0.0014244966441765428,0.0037453919649124146,-0.0005246400833129883,-0.02429795265197754
0.05879458785057068,0.03451181948184967,-0.011471735313534737,-0.012653917074203491,-0.0002734661102294922,-0.016531825065612793
0.021065928041934967,0.0045139300636947155,-0.008145429193973541,0.007103025913238525,-0.004738569259643555,0.0013682246208190918
0.02346043288707733,0.0035742302425205708,0.013507502153515816,0.00799967348575592,-0.009999632835388184,0.007373452186584473
0.001269906759262085,-0.0074385846965014935,0.010803408920764923,-0.008674010634422302,-0.008589088916778564,0.011166572570800781
-0.004219311289489269,0.01412312313914299,-0.005363608710467815,-0.009852796792984009,-0.01415705680847168,-0.0013538599014282227
0.0007817302830517292,0.01406892016530037,-0.005862121935933828,-0.006775928661227226,-0.0026071667671203613,-0.009074985980987549
0.012587832286953926,-0.016448359936475754,0.009580089710652828,0.0016981065273284912,-0.00502467155456543,-0.006503105163574219
0.019364919513463974,-0.0027954145334661007,0.01493446808308363,-0.0017052143812179565,-0.006899416446685791,-0.0017431378364562988
0.006187680643051863,0.010010529309511185,0.013060436584055424,-0.002013280987739563,-0.00317227840423584,-0.00741201639175415
-0.04596829041838646,-0.002568590920418501,0.0047087883576750755,0.006488621234893799,-0.007376372814178467,0.0044980645179748535
-0.027771616354584694,0.004473018925637007,-0.012387133203446865,-0.005710422992706299,0.0057773590087890625,-0.005902528762817383
0.02658085897564888,-0.0037209666334092617,-0.015241589397192001,0.0012602079659700394,0.00209200382232666,-0.013528645038604736
0.03881149739027023,-0.008598903194069862,-0.008797744289040565,0.00974498875439167,0.0029396414756774902,-0.013697385787963867
0.016108732670545578,0.009399479255080223,-0.0011038032826036215,0.007672473788261414,-0.0009136199951171875,0.00017547607421875
-0.046295635402202606,0.0058352043852210045,0.0025568597484380007,0.012724490836262703,-0.0010266900062561035,0.021383464336395264
-0.042183712124824524,0.010387720540165901,0.007924914360046387,-0.00013111531734466553,-0.004031181335449219,0.0029402971267700195
-0.013171992264688015,0.008719217032194138,0.0022727949544787407,-0.0012869220227003098,0.002246558666229248,-0.009378790855407715
0.021348189562559128,0.011211170814931393,-0.0069213188253343105,0.0005388408899307251,-0.004415452480316162,-0.02081465721130371
0.011006534099578857,0.004725997801870108,0.0029012064915150404,0.00957237184047699,-0.007381319999694824,-0.012181401252746582
-0.014346198178827763,0.0060140350833535194,-0.001775993499904871,-0.003068162128329277,-0.003552854061126709,-0.0030219554901123047
-0.01129930280148983,-0.017964400351047516,-0.00023786153178662062,-0.001223057508468628,-0.0007564425468444824,-0.006639838218688965
0.012559563852846622,-0.01949606090784073,-0.003905791789293289,-0.007609531283378601,-0.0013227462768554688,-0.008741676807403564
0.023079223930835724,0.004831002093851566,-0.0037555363960564137,-0.01351553201675415,-0.0043558478355407715,-0.009957075119018555
-0.026440966874361038,-0.007019499782472849,0.0010723345912992954,0.004872366786003113,-0.009463369846343994,0.007187366485595703
-0.024966424331068993,-0.014468079432845116,-0.0042982581071555614,0.004317805171012878,-0.0056607723236083984,-0.005880832672119141
0.027304723858833313,-0.004496550187468529,-0.004376696422696114,0.005785644054412842,-0.006085395812988281,-0.025054574012756348
0.01985495537519455,-0.02529624104499817,0.011616412550210953,0.011264294385910034,-0.0031414031982421875,0.001185297966003418
0.001057411078363657,-0.009325736202299595,0.01960342936217785,0.0008583515882492065,-0.01063525676727295,0.002715170383453369
0.007718264125287533,-0.018529772758483887,0.01438385620713234,0.000969424843788147,-0.01700371503829956,-0.013283729553222656
0.030153445899486542,-0.02143673039972782,0.01198536716401577,-0.0009248852729797363,-0.008226573467254639,-0.02498847246170044
0.06050054356455803,-0.0060720969922840595,0.01753639057278633,-0.004221752285957336,-0.0015472769737243652,-0.023191392421722412
0.034514907747507095,0.007454040460288525,0.025434596464037895,-0.0018821358680725098,-0.0036836862564086914,0.00031703710556030273
0.005811156705021858,-0.0024415594525635242,0.024621594697237015,-0.008775472640991211,0.00024503469467163086,0.013116240501403809
0.03635980933904648,-0.011279519647359848,0.01795871928334236,0.0002123713493347168,-0.003735065460205078,-0.010461509227752686
0.02708013728260994,-0.005326863378286362,-0.0025727502070367336,0.00047134049236774445,-0.002116084098815918,0.001694798469543457
0.009881198406219482,0.017341824248433113,-0.012776438146829605,-0.0005670618265867233,0.0024263858795166016,0.006909668445587158
0.008803620003163815,0.00704869395121932,-0.0011443670373409986,0.009212970733642578,0.005952596664428711,-0.006942033767700195
0.02156710997223854,0.006167738698422909,0.0024857146199792624,-0.002478674054145813,0.006003201007843018,-0.013054907321929932
-0.0071884202770888805,0.016134845092892647,0.005982061382383108,0.0035086125135421753,0.0016712546348571777,0.006447792053222656
-0.0163979884237051,0.019882244989275932,0.008453759364783764,0.008220568299293518,-0.002749919891357422,-0.00036722421646118164
0.01913277804851532,0.010553451254963875,-0.0002996055409312248,0.0033761411905288696,-0.005565166473388672,-0.003477931022644043
0.047616880387067795,-0.008890287950634956,0.0029033781029284,0.00022155046463012695,-0.0024570226669311523,-0.011497735977172852
0.01919848471879959,0.009035633876919746,0.015201559290289879,0.004313334822654724,-0.004520595073699951,-0.004057049751281738
-0.012188972905278206,0.02002493292093277,0.028704769909381866,0.0004460364580154419,-0.007775008678436279,-0.006150722503662109
-0.024460554122924805,0.007122183218598366,0.03298686817288399,0.000879751518368721,-0.00121992826461792,0.003372490406036377
0.005736874882131815,-0.0021793805062770844,0.028466081246733665,-0.0027872174978256226,-0.007338225841522217,-0.010269999504089355
0.035773053765296936,0.03339393436908722,0.01300461869686842,-0.011129273101687431,-0.00672602653503418,-0.00775301456451416
0.007610519416630268,0.007356393150985241,-0.004097788594663143,-0.008481679484248161,-0.006165206432342529,0.007616817951202393
0.010801615193486214,0.005940473172813654,0.0036178878508508205,0.0010822117328643799,-0.006408631801605225,-0.017774760723114014
0.013077477924525738,0.01567116752266884,0.010747423395514488,-0.0021556466817855835,-0.0007381439208984375,-0.0037781596183776855
0.03045251965522766,-0.011112453415989876,0.019048336893320084,0.0016979426145553589,-0.0022575855255126953,-0.012781679630279541
0.03324570506811142,0.02430705726146698,0.012934607453644276,-0.0038251858204603195,-0.0041342973709106445,-0.0010560154914855957
0.016037359833717346,-0.002731751650571823,0.0006940967869013548,-0.002271220088005066,-0.007313847541809082,0.008511543273925781
-0.007525309920310974,-0.013245945796370506,0.003252320922911167,-0.0005540400743484497,-0.005587220191955566,-0.0019162297248840332
0.014247403480112553,-0.020873527973890305,0.0092845493927598,-0.003025934100151062,0.0009263753890991211,-0.011570215225219727
0.015199311077594757,0.020036188885569572,0.010331392288208008,-0.0021076053380966187,-0.004918098449707031,-0.00023555755615234375
-0.005839330144226551,0.0046037170104682446,-0.0009083959739655256,-0.007319822907447815,-0.0008638501167297363,0.011112630367279053
-0.002242930233478546,-0.02681448496878147,-0.0026652230881154537,0.005655499175190926,-0.0029073357582092285,-0.004642307758331299
0.026705315336585045,-0.024016087874770164,0.0006417806725949049,-0.0046360790729522705,-0.0003293156623840332,-0.014989733695983887
0.03249241039156914,0.01482892781496048,-0.0016942054498940706,-0.004131242632865906,-0.0008322596549987793,-0.011897683143615723
-0.01793045923113823,0.01991497166454792,-0.015797793865203857,-0.0032977741211652756,-0.0033339262008666992,0.010556995868682861
-0.007785969413816929,0.0030360950622707605,-0.006410872098058462,0.007228272035717964,-0.008991658687591553,-0.004797399044036865
0.029425185173749924,0.023014415055513382,-0.003840802703052759,-0.006061166524887085,-0.0031949281692504883,-0.004275262355804443
0.014117441140115261,-0.00995776429772377,0.00874153058975935,0.0054640620946884155,-0.003792285919189453,0.0060253143310546875
0.013474909588694572,0.001627013785764575,0.0019065404776483774,0.0015506446361541748,-0.008245289325714111,-0.005420684814453125
-0.01375635527074337,-0.022026706486940384,0.000843914458528161,0.005561383441090584,-0.0028560757637023926,0.007131338119506836
0.011077710427343845,-0.029134120792150497,0.004786469973623753,-0.005044341087341309,0.0011861324310302734,-0.0030463337898254395
0.021915821358561516,0.01912960782647133,0.01588805392384529,-7.24494457244873e-05,-0.00015676021575927734,-0.0026381611824035645
-0.01690540462732315,0.024492038413882256,0.013143287971615791,-0.0008043199777603149,-0.005974113941192627,0.0062541961669921875
-0.033302582800388336,0.00719098187983036,-0.013438213616609573,-0.0028030704706907272,-0.006478726863861084,-0.002089202404022217
-0.008411943912506104,-0.026421576738357544,-0.02500334568321705,-0.00688055157661438,-0.0028438568115234375,-0.016571640968322754
0.01802922785282135,-0.0005311500281095505,-0.014760216698050499,-0.004493936896324158,-0.002394258975982666,-0.02158588171005249
0.02582579106092453,0.03511643409729004,0.0017807192634791136,0.0012930650264024734,-0.0078200101852417,-0.0057312846183776855
0.003770686686038971,0.03210671618580818,0.013690521009266376,-0.002455560490489006,-0.008727312088012695,0.0012893080711364746
-0.006567707750946283,-0.00044661015272140503,0.0022751784417778254,-0.0033017098903656006,-0.006881296634674072,-0.005735039710998535
-1.406623050570488e-05,-0.018410608172416687,-0.006189030595123768,-0.006894737482070923,-0.006814718246459961,-0.006347715854644775
-0.011910274624824524,-0.02340519055724144,-0.010554333217442036,0.00023567676544189453,-0.006912350654602051,-0.006423890590667725
-0.006890877149999142,0.005310067906975746,0.0010209192987531424,0.001654522493481636,-0.0029671192169189453,-0.0029363632202148438
0.013981509953737259,0.05853921175003052,0.01044442504644394,-0.005287423729896545,0.00108414888381958,-0.01295781135559082
-0.017000239342451096,0.005583675112575293,-0.001209185691550374,0.0041082799434661865,0.0008156299591064453,0.014426231384277344
0.023584535345435143,-0.010262136347591877,-0.012063870206475258,0.004428938031196594,-0.0008852481842041016,-0.004102110862731934
0.012997634708881378,-0.0057383025996387005,-0.011731434613466263,0.012738898396492004,-0.0034192800521850586,0.007966399192810059
-0.02682015672326088,-0.0008802316151559353,-0.00383626576513052,0.0033608675003051758,-0.0016324520111083984,0.010687291622161865
0.0031890524551272392,0.016408445313572884,0.006358838640153408,-0.004344955086708069,0.006047844886779785,-0.018141210079193115
0.03208259493112564,-0.0003441115841269493,-0.001248816610313952,-0.008438780903816223,-0.0001270771026611328,-0.026593923568725586
0.005327657796442509,0.004958482459187508,-0.005983838811516762,0.0004328060895204544,-0.005451023578643799,-0.002501070499420166
-0.026239167898893356,0.010160909034311771,-0.02156060002744198,-0.0024867653846740723,-0.007067084312438965,0.014008879661560059
-0.018705664202570915,-0.010236836038529873,-0.010904861614108086,0.004465460777282715,-0.0068547725677490234,0.0035315752029418945
-0.006038182880729437,-0.00012780353426933289,0.006112541072070599,-0.004758387804031372,-0.0023251771926879883,-0.00147324800491333
-0.010075461119413376,-0.0002948017790913582,0.020044071599841118,0.000316740944981575,-0.007425963878631592,-0.011987149715423584
-0.007722589652985334,0.016692664474248886,0.005672243423759937,-0.01419210433959961,-0.0067408084869384766,-0.009476304054260254
-0.01684311404824257,-0.023690856993198395,-0.0035975086502730846,0.008096009492874146,-0.005182504653930664,-0.012307882308959961
0.016223736107349396,0.004660061094909906,-0.009418564848601818,-0.002855433151125908,-0.0075917840003967285,-0.017850160598754883
-0.007652696222066879,0.013654608279466629,-0.0055574229918420315,0.002005338668823242,-0.0020824670791625977,0.01548832654953003
-0.010815026238560677,-0.005271342117339373,0.004219056572765112,-4.806928336620331e-05,-0.0029591917991638184,0.00010991096496582031
0.014412371441721916,-0.03572798892855644,0.00623537739738822,0.005420416593551636,-0.0036343932151794434,-0.014357686042785645
0.03135794773697853,-0.026047784835100174,-0.0004791321698576212,0.004978613927960396,-0.00497061014175415,-0.010259687900543213
0.02681446261703968,0.0029754340648651123,0.004239306785166264,0.00514577329158783,-0.002204298973083496,-0.004621028900146484
-0.0050854128785431385,0.028516747057437897,0.017511967569589615,0.0003202855587005615,0.002520442008972168,0.006630897521972656
-0.01820228062570095,0.01577378809452057,0.01975834369659424,0.001422196626663208,-0.0032106637954711914,6.175041198730469e-05
-0.004404442850500345,0.0013280026614665985,0.006211910396814346,0.0009001363068819046,-0.006348609924316406,-0.0043596625328063965
0.0009686839766800404,-0.012174934148788452,-0.005529759451746941,0.0035936683416366577,-0.004187345504760742,0.006811380386352539
0.016192380338907242,0.01967397890985012,0.01185213215649128,0.002839028835296631,-0.002452850341796875,-0.005970180034637451
-0.01971597783267498,0.018627246841788292,0.012719482183456421,-0.00555063784122467,-0.0036860108375549316,0.012105762958526611
-0.014970796182751656,0.014609884470701218,0.009081440977752209,-0.00710587203502655,-0.0017284154891967773,-0.0066983699798583984
0.0186360701918602,0.003942751791328192,-0.0013498463667929173,-0.0061474572867155075,-0.003485381603240967,-0.014255225658416748
0.022880196571350098,-0.016809072345495224,0.0012511932291090488,0.004044802859425545,-0.0028684139251708984,-0.004862606525421143
0.03662155941128731,0.02016576938331127,-0.0031422022730112076,-0.003881990909576416,-0.0009300708770751953,0.0007630586624145508
0.013196563348174095,0.008483441546559334,-0.011176377534866333,-0.003976449370384216,-0.002731025218963623,0.015744447708129883
-0.0382806733250618,0.03437034413218498,-0.020720556378364563,-0.006099879741668701,-0.0056258440017700195,0.026460111141204834
-0.04545099288225174,0.036472342908382416,-0.022233949974179268,-0.002107171341776848,-0.003663182258605957,-0.0018935799598693848
-0.011654767207801342,-0.0015709372237324715,-0.011306213214993477,0.009169936180114746,-0.005460679531097412,-0.028470277786254883
0.015676988288760185,-0.007952595129609108,-0.005481571424752474,0.00233440101146698,-0.0002059340476989746,-0.01487952470779419
0.01435659360140562,0.01378671359270811,-0.01352728996425867,-0.0025142431259155273,-0.00707697868347168,-0.002268970012664795
-0.020690275356173515,0.0026794590521603823,-0.01186511293053627,-0.0025664865970611572,-0.007645308971405029,0.004522204399108887
-0.030166156589984894,0.005539669655263424,-0.011713594198226929,-0.007336540147662163,-0.011516153812408447,-0.0010047554969787598
-0.020613420754671097,-0.009116541594266891,-0.0018678029300644994,-0.0030135810375213623,-0.00491178035736084,-0.005797445774078369
-0.026841377839446068,-1.406203955411911e-05,0.003454454243183136,-0.001171991229057312,-0.003631114959716797,-0.009561657905578613
-0.015961632132530212,-0.0133162010461092,0.007609196472913027,0.004278585314750671,-0.0038657784461975098,-0.01888984441757202
-0.0003809388726949692,0.01998424530029297,0.010321966372430325,0.0006854236125946045,0.0005553960800170898,-0.025151968002319336
-0.0031904210336506367,0.018166661262512207,0.01728224568068981,0.005119785666465759,-0.0019092559814453125,-0.006186246871948242
-0.013621291145682335,0.006122332997620106,0.006527545861899853,-0.0007964521646499634,-0.003468036651611328,0.013315856456756592
-0.014690680429339409,0.010105099529027939,-0.011994928121566772,-0.002259671688079834,-0.006845057010650635,0.013808369636535645
-0.01868801936507225,-0.01422580610960722,-0.015399156138300896,0.009381026029586792,-0.004356443881988525,-0.00075531005859375
-0.016023196280002594,-0.004372119437903166,-0.011159838177263737,0.004042031243443489,-0.001466214656829834,-0.011614084243774414
-0.0005956590175628662,0.010248429141938686,-0.0028926576487720013,0.0029568076133728027,-0.0015576481819152832,-0.01445770263671875
0.010879237204790115,0.009551841765642166,-0.0050089601427316666,-0.001936284825205803,-0.004267275333404541,-0.01744312047958374
-0.007087778765708208,-0.001215584110468626,-0.015971064567565918,0.0027479976415634155,-0.006363868713378906,7.593631744384766e-05
-0.009949524886906147,-0.006346606649458408,-0.011623390018939972,0.0044156331568956375,-0.008076012134552002,-0.011384069919586182
-9.866710752248764e-05,0.00809346791356802,0.003164801513776183,0.004046350717544556,-0.002341151237487793,-0.006514072418212891
0.005328298080712557,0.014936495572328568,0.0069697885774075985,-0.002951173111796379,-0.0074408650398254395,-0.008095204830169678
0.006052324548363686,-0.0021264725364744663,0.007550298236310482,-0.00444340705871582,0.0017666816711425781,0.00044864416122436523
0.02618386782705784,-0.0017778933979570866,-0.002854150952771306,-0.002927333116531372,-0.0032067298889160156,-0.012647092342376709
-0.01068333350121975,-0.01579597406089306,-0.0068781874142587185,0.007758231833577156,-0.002843201160430908,-0.004119575023651123
-0.007085316814482212,-0.006451371591538191,0.01219196431338787,0.004354879260063171,-0.0011313557624816895,-0.005661189556121826
0.015179464593529701,0.006822744384407997,0.02014322392642498,-0.0056069642305374146,0.0027968287467956543,-0.006707489490509033
0.014580320566892624,0.008159833028912544,0.0054450263269245625,-0.008412420749664307,-0.0004937648773193359,0.000560760498046875
-0.010350484400987625,-0.0038786595687270164,-0.02207694947719574,-0.0075731705874204636,-0.006369531154632568,0.009542286396026611
0.0032649263739585876,-0.045611992478370667,-0.027884503826498985,3.769993782043457e-06,0.004011809825897217,-0.007831454277038574
0.025610025972127914,-0.027471810579299927,-0.010619034990668297,0.005302326753735542,-0.0005193352699279785,-0.018248021602630615
0.03335196524858475,-0.0012442977167665958,0.009714089334011078,0.005730852484703064,0.00047838687896728516,-0.0010745525360107422
-0.011811606585979462,0.0076879216358065605,0.01631205528974533,0.0004974473267793655,-0.002080857753753662,0.01347261667251587
-0.0475492924451828,-0.01106543280184269,0.017650313675403595,0.0072870999574661255,-0.0012381672859191895,0.014900028705596924
-0.02190130203962326,-0.019643981009721756,0.005624383222311735,0.003728508949279785,-0.0013869404792785645,0.0010616779327392578
0.006544986739754677,-0.008053104393184185,-0.0034820297732949257,0.0010648518800735474,0.002328217029571533,-0.013870477676391602
0.012292912229895592,0.0232701376080513,0.006972894072532654,0.006512641906738281,-0.0008580684661865234,-0.015215754508972168
-0.07316528260707855,0.012899314984679222,0.008048925548791885,-0.0033821165561676025,-0.001637876033782959,0.008220970630645752
-0.04667302593588829,0.004228680860251188,0.006515687331557274,0.002426132559776306,0.001589655876159668,-0.01674973964691162
0.005673954728990793,-0.017297178506851196,-0.003361640265211463,0.0031914860010147095,-0.0001672506332397461,-0.021216988563537598
0.024054916575551033,-0.012066514231264591,-0.003341428004205227,-0.002142876386642456,0.004808306694030762,-0.013976037502288818
-0.004840049892663956,0.0343363955616951,-0.011042126454412937,-0.009354904294013977,-0.004943907260894775,0.0023431777954101562
-0.07577851414680481,0.024447407573461533,0.0009724872652441263,0.0060387104749679565,-0.007207989692687988,0.014409124851226807
-0.05106586590409279,0.003278798423707485,-0.001460113562643528,0.004313260316848755,-0.003222942352294922,-0.0013557672500610352
0.02997412532567978,-0.03476791828870773,-0.0006912590470165014,0.0030581504106521606,-0.0029931068420410156,-0.030396640300750732
0.031518734991550446,-0.01737351529300213,-0.006328822113573551,-0.008093325421214104,-0.0043389201164245605,-0.01498645544052124
0.00040626805275678635,0.02726849541068077,0.0006425215397030115,-0.002425670623779297,-0.01212090253829956,-0.004457592964172363
-0.04077461361885071,0.010521076619625092,-0.010637326166033745,-0.01236775517463684,-0.009451746940612793,0.0060100555419921875
-0.0011702473275363445,-0.014704828150570393,0.000329083064571023,-7.140636444091797e-05,-0.004708290100097656,-0.01891881227493286
0.03266032412648201,-0.005009403917938471,0.01304650865495205,-0.004961444064974785,-0.0014505386352539062,-0.025009870529174805
0.0023288908414542675,0.008144697174429893,0.006365446373820305,-0.0006710141897201538,0.002409815788269043,-0.0020806193351745605
-0.011868152767419815,0.016941048204898834,0.012562576681375504,0.007426917552947998,-0.0023197531700134277,-0.009461402893066406
0.013280519284307957,0.007128148339688778,0.007779834792017937,-0.004341393709182739,0.007805287837982178,-0.004548549652099609
0.02749265916645527,-0.024037066847085953,0.010819247923791409,0.0008594244718551636,0.005052447319030762,0.0012758374214172363
0.024714380502700806,-0.0057228743098676205,-0.0015767194563522935,-0.004198327660560608,0.00030475854873657227,0.007072806358337402
-0.00880955345928669,-0.01057523675262928,0.006196385249495506,0.00784166157245636,-0.00021374225616455078,0.008543014526367188
-0.03418431058526039,0.0034336752723902464,0.0074088843539357185,0.0003259330987930298,0.0002897977828979492,0.003137052059173584
-0.016222665086388588,0.019509967416524887,0.009912915527820587,-0.006079226732254028,0.0013824105262756348,-0.010376393795013428
-0.009954780340194702,-0.01870550960302353,0.0008380452636629343,-0.008463144302368164,-0.0021678805351257324,-0.009709298610687256
0.0012790770269930363,-0.0124286450445652,-0.01774369738996029,-0.01350151002407074,-0.006641685962677002,-0.01469266414642334
-0.017977556213736534,0.008127257227897644,-0.027673721313476562,-0.0018634945154190063,-0.007168412208557129,-0.00561213493347168
-0.004328100476413965,0.018121687695384026,-0.02139785699546337,-0.006850183010101318,-0.0024884939193725586,-0.011879324913024902
0.02418973669409752,0.025228915736079216,-0.006785329896956682,0.00048801302909851074,-0.0020525455474853516,-0.01885586977005005
0.008557692170143127,-0.02173994854092598,-0.00934677291661501,-0.006832391023635864,-0.003778994083404541,-0.009418606758117676
0.011742151342332363,-0.03246062994003296,-0.008158867247402668,0.0017330795526504517,-0.006601691246032715,-0.011390149593353271
-0.02369121089577675,-0.010758694261312485,-0.030851904302835464,-0.0005148202180862427,-0.006389260292053223,0.0010485649108886719
-0.009583672508597374,0.01021241582930088,-0.0011737830936908722,0.010908707976341248,-0.004278421401977539,-0.001578688621520996
0.028751952573657036,0.015854177996516228,-0.0037204385735094547,-0.0020928382873535156,-0.0017017126083374023,-0.007820844650268555
-0.0028978949412703514,-0.02625560387969017,-0.003027358092367649,0.0012127310037612915,-0.0019475817680358887,0.008265316486358643
-0.025361990556120872,0.007935740053653717,-0.015139203518629074,-0.003544718027114868,-0.004071354866027832,0.007649362087249756
0.0013343128375709057,-0.004046198446303606,-0.012049362063407898,0.007215561345219612,-0.001887500286102295,-0.015583813190460205
0.014095960184931755,-0.01877075619995594,-0.01674680784344673,0.0004539787769317627,-0.0006618499755859375,-0.013337910175323486
0.03249889239668846,0.009311950765550137,-0.013274949043989182,-0.000632062554359436,-0.0015749931335449219,-0.02185535430908203
-0.0015345090068876743,0.0004289783537387848,-0.0014692482072860003,0.002520158886909485,0.0008973479270935059,-0.009921789169311523
-0.010008113458752632,-0.006954404525458813,0.010995587334036827,0.00896596908569336,-0.005630850791931152,-0.0034810304641723633
-0.0014562583528459072,-0.008309446275234222,0.02300669439136982,0.003271551802754402,-0.0011393427848815918,0.007142424583435059
-0.006549197249114513,-0.007900974713265896,0.011591830290853977,0.005380526185035706,-0.00592958927154541,0.006209731101989746
0.023930655792355537,-0.002854183316230774,0.0034312838688492775,0.0001115649938583374,-0.007180571556091309,-0.014509201049804688
0.01455741748213768,-0.001330074854195118,0.014194576069712639,0.0010037273168563843,-0.0003216862678527832,-0.0035429000854492188
-0.015621591359376907,0.0024482361041009426,0.0315287709236145,0.005852922797203064,0.00205230712890625,-0.0019426345825195312
0.02108817547559738,-0.010478563606739044,0.029646890237927437,0.0035771429538726807,0.005224943161010742,-0.012952625751495361
0.034332141280174255,0.006057721562683582,0.01619611494243145,-0.0009345710277557373,-0.0034127235412597656,-0.012436509132385254
-0.021474087610840797,0.0023219180293381214,-0.0002565351314842701,-0.00279436819255352,-0.0007588863372802734,0.01725757122039795
-0.03992484137415886,-0.00473267026245594,-0.008323218673467636,0.0011315662413835526,-0.0009129047393798828,0.007078945636749268
-0.004775087349116802,-0.013831065967679024,0.013620084151625633,0.012094572186470032,-0.0026584863662719727,-0.014225423336029053
0.015437283553183079,0.013186318799853325,0.036361753940582275,-0.0020236968994140625,0.007744908332824707,-0.007296264171600342
0.006258252542465925,-0.0038820370100438595,0.01941930502653122,-0.008313357830047607,-0.004269957542419434,0.000555872917175293
-0.0011976631358265877,-0.010703183710575104,-0.0027317246422171593,-0.012695014476776123,-0.007035017013549805,-0.001747429370880127
-0.013084995560348034,-0.013209543190896511,-0.006675705313682556,-0.0046364665031433105,-0.0072782039642333984,-0.008315563201904297
-0.00808999128639698,-0.004251053091138601,0.00800368469208479,0.0002946406602859497,-0.0030823349952697754,-0.01916062831878662
0.007442565634846687,-0.0019807168282568455,0.027412183582782745,-0.0035947561264038086,0.0030919909477233887,-0.013859272003173828
-0.01534748263657093,-0.023009885102510452,0.03155648335814476,0.0012755393981933594,-5.936622619628906e-05,-0.0030039548873901367
0.003912674728780985,-0.0030374526977539062,0.011333261616528034,-0.006225526332855225,-0.002400219440460205,-0.0011837482452392578
0.0006142593920230865,-0.0034587159752845764,-0.004738087300211191,-0.006181133911013603,-0.00433582067489624,0.004475533962249756
-0.008744794875383377,-0.0057166810147464275,-0.0022278546821326017,0.0009719133377075195,-0.004014134407043457,0.0033631324768066406
0.004804946482181549,-0.003221773076802492,-0.001474248943850398,0.0011048614978790283,-0.002698063850402832,-0.0038645267486572266
0.007999783381819725,-0.0021944427862763405,0.002416592324152589,0.0018955487757921219,-0.0035185813903808594,-0.010527312755584717
-0.015297881327569485,-0.0004117228090763092,-0.005108526907861233,0.0006128847599029541,-0.0019423961639404297,-0.0032889246940612793
-0.003011855063959956,0.0019329243805259466,-0.013574091717600822,-0.0023036301136016846,-0.003719151020050049,-0.014837145805358887
0.012527115643024445,0.008843053132295609,-0.008432762697339058,0.0022955387830734253,-0.00907135009765625,-0.016926288604736328
0.010964326560497284,-0.004597175400704145,-0.0008436612552031875,0.0005832165479660034,-0.003977775573730469,-0.004596531391143799
0.03489093855023384,-0.011966048739850521,0.008140427991747856,-0.00026926398277282715,-0.008573532104492188,-0.016024231910705566
0.020639391615986824,-0.007835401222109795,-0.0008459996897727251,-0.010063260793685913,-0.004483938217163086,-0.005022168159484863
-0.01791013404726982,-0.0016591153107583523,-0.010869519785046577,-0.005485311150550842,-0.006039798259735107,0.008437812328338623
-0.003923718351870775,-5.601579323410988e-05,-0.003840003628283739,-0.003078252077102661,-0.007074713706970215,-0.004101753234863281
0.0020548533648252487,-0.006863084156066179,0.012101850472390652,0.0016777068376541138,-0.002656221389770508,-0.009879052639007568
0.020871860906481743,0.00020332029089331627,0.030254743993282318,0.0014884918928146362,-0.0016672015190124512,-0.013024747371673584
0.003860502503812313,-0.011437924578785896,0.012489762157201767,-0.001432865858078003,-0.005021572113037109,-0.0023151636123657227
0.011160887777805328,-0.006555282510817051,-0.008894175291061401,-0.004730433225631714,-0.003819704055786133,-0.00474095344543457
0.018389731645584106,-0.0053432476706802845,-0.009417393244802952,-0.004211053252220154,-0.00010132789611816406,-0.007600963115692139
0.011073583737015724,-0.000888812355697155,0.0006046241614967585,0.0019429773092269897,-0.0011441707611083984,-0.008993268013000488
0.01268739253282547,0.01443430595099926,0.0048147570341825485,-0.0020115822553634644,-0.0021463632583618164,-0.007770359516143799
0.012618881650269032,-0.014554380439221859,-0.00036594783887267113,0.01029922068119049,-0.003313779830932617,0.0022324323654174805
0.009685562923550606,0.007629498839378357,-0.01140889897942543,0.0010063368827104568,-0.002632319927215576,0.002336561679840088
0.012988284230232239,0.017338069155812263,-0.001988426549360156,0.011824220418930054,0.0028911232948303223,9.59634780883789e-06
0.011492561548948288,0.036619797348976135,0.011546948924660683,0.015484452247619629,-0.002227783203125,-0.007456362247467041
0.009434272535145283,0.019482683390378952,0.011726667173206806,0.008177131414413452,-0.0018398761749267578,-0.0075997114181518555
0.021866463124752045,-0.019854489713907242,0.014768486842513084,0.013633176684379578,-0.00017791986465454102,-0.011783719062805176
0.02725137397646904,0.0011275545693933964,0.017743287608027458,0.004865884780883789,-0.005831420421600342,-0.006838321685791016
0.016395358368754387,0.04172137379646301,0.008626914583146572,-0.008804736658930779,-0.004105508327484131,-1.9788742065429688e-05
0.0008141999132931232,0.0005194353871047497,0.0057272049598395824,-0.007815346121788025,-0.0005273222923278809,0.00048029422760009766
0.04123876243829727,0.012111704796552658,0.011596832424402237,-0.015092357993125916,-0.0007198452949523926,-0.0015732049942016602
0.020560141652822495,0.006413101218640804,0.006488543935120106,-0.009771911427378654,-0.0060623884201049805,0.005633175373077393
0.00790888536721468,0.011092741042375565,-0.011949603445827961,-0.012183278799057007,-0.004786252975463867,-0.0033668875694274902
0.004536541644483805,-0.012221423909068108,-0.00017472007311880589,-0.0031959116458892822,-0.00247037410736084,-0.010425925254821777
0.015162555500864983,0.00013076281175017357,0.00956069678068161,-0.004791244864463806,-0.0010828971862792969,-0.012810826301574707
0.02136121690273285,0.0023539962712675333,0.016666915267705917,0.0004500150680541992,-0.0016483664512634277,-0.010615110397338867
0.012441541999578476,-0.001369939185678959,0.002007887000218034,-0.001048235222697258,-0.005371034145355225,-0.002437114715576172
-0.0039256541058421135,-0.003769280854612589,-0.0077154142782092094,-0.0023318976163864136,-0.0038411617279052734,0.006079554557800293
0.010325541719794273,0.02266574651002884,0.0008482143748551607,0.004329249262809753,-0.0003179311752319336,-0.00671154260635376
0.019366778433322906,0.03588790446519852,0.008456086739897728,-0.0007645636796951294,0.0034868717193603516,-0.012584209442138672
0.0002743098884820938,0.008298618718981743,0.0051865242421627045,-0.00023274123668670654,0.004389584064483643,-0.0035486817359924316
-0.0007910220883786678,0.00026768073439598083,-0.008501917123794556,-0.0003897082060575485,0.002490699291229248,0.0034279227256774902
-0.008282296359539032,-0.007155982777476311,-0.013102543540298939,0.00594860315322876,-1.609325408935547e-05,0.0076819658279418945
-0.01697336509823799,-0.002508902456611395,-0.009504584595561028,0.004189373925328255,-0.0033912062644958496,0.012202560901641846
-0.021862110123038292,-0.013990476727485657,-0.0029854762833565474,0.0024818778038024902,0.00035828351974487305,0.003811657428741455
0.002871445380151272,0.007933352142572403,-0.01255923043936491,-0.01523485779762268,0.0008510351181030273,-0.01267993450164795
0.024688702076673508,0.006788652390241623,-0.023452866822481155,-0.011147899553179741,-0.0013529062271118164,-0.02825981378555298
-0.004655026830732822,0.011815454810857773,-0.0400991328060627,-0.007641732692718506,-0.005465209484100342,-0.004989981651306152
0.001115136779844761,0.03792033717036247,-0.02496146596968174,-0.000871686264872551,-0.007853925228118896,-0.004458487033843994
-0.01585894450545311,0.0029643666930496693,-0.00018212012946605682,0.0023271292448043823,-0.004807710647583008,0.01050710678100586
-0.025059454143047333,-0.017980359494686127,0.0004833920393139124,-0.002763092517852783,-0.004877448081970215,0.0014712810516357422
-0.0021070907823741436,0.006889359559863806,-0.013853976503014565,-0.004966184496879578,-0.008585214614868164,-0.019322097301483154
4.394259303808212e-05,0.0007399215828627348,-0.01690804213285446,0.003075048327445984,-0.007188081741333008,-0.025178849697113037
0.008554407395422459,-0.018941985443234444,-0.020159708335995674,-0.005832657217979431,-0.003681361675262451,-0.013591885566711426
0.02867836505174637,-0.00581820635125041,-0.0023084795102477074,0.0016876161098480225,0.00013709068298339844,-0.009488403797149658
0.012278683483600616,-0.013893975876271725,-0.00047986151184886694,0.002034606412053108,-0.002716958522796631,0.005027472972869873
0.010026227682828903,-0.008189070969820023,-0.005203903187066317,0.005916103720664978,-0.0023363828659057617,-0.006014645099639893
0.0143446559086442,0.010158481076359749,-0.010053355246782303,0.0027425289154052734,-0.0015081167221069336,-0.0017387866973876953
-0.009973820298910141,-0.00814812257885933,-0.008946554735302925,0.0027807671576738358,0.000969231128692627,0.007708549499511719
0.001902296207845211,-0.0018097888678312302,-0.013113570399582386,-0.004633516073226929,-0.001683950424194336,-0.010953783988952637
0.010692372918128967,-0.010727920569479465,-0.025709468871355057,-0.00034345686435699463,-0.005554080009460449,-0.010300874710083008
0.009218135848641396,0.01248155813664198,-0.030258668586611748,0.0008208155632019043,-0.006600618362426758,-0.0063533782958984375
0.003976212348788977,0.016911961138248444,-0.01474860217422247,0.005378903821110725,-0.003679037094116211,0.0030013322830200195
-0.0011386717669665813,-0.02252008020877838,-0.0021491709630936384,0.0068999528884887695,-0.0008347034454345703,-0.002462923526763916
0.018750496208667755,-0.025923484936356544,-0.00154875626321882,0.0035081207752227783,-0.003129243850708008,-0.01486194133758545
0.01739148609340191,-0.012625789269804955,-0.009334773756563663,0.0022310465574264526,-0.004360556602478027,-0.020658373832702637
0.018965885043144226,-0.004536252003163099,-0.007163628935813904,0.0012453347444534302,-0.0014590024948120117,-0.008754551410675049
0.013081559911370277,0.01755591295659542,-0.004999302327632904,-0.005108444020152092,-0.003756582736968994,0.0023590922355651855
0.012780267745256424,-0.0034920661710202694,-0.0015313045587390661,0.002216234803199768,0.0003248453140258789,0.002314448356628418
0.004780977964401245,-0.014294132590293884,0.004322919994592667,0.0056570470333099365,-0.002862989902496338,0.003859996795654297
-0.022342052310705185,-0.012802138924598694,0.007178035564720631,0.00013051927089691162,-0.0027354955673217773,0.011287927627563477
-0.0018757504876703024,-0.02225550264120102,0.013415980152785778,0.0045727211982011795,0.00033217668533325195,0.00671309232711792
0.0012886826880276203,-0.023693352937698364,0.0007985539268702269,0.0013497192412614822,-0.0010142922401428223,-0.007749497890472412
0.004382655024528503,-0.01503757108002901,-0.01253670733422041,-0.0027033518999814987,0.0005509853363037109,-0.012762188911437988
0.006068035494536161,-0.00015805521979928017,-0.01603541150689125,-0.0012311190366744995,-0.003915071487426758,-0.012389659881591797
-0.0035049188882112503,-0.004556654952466488,-0.005968255922198296,0.0030445456504821777,-0.002778172492980957,0.0038728713989257812
-0.0026474876794964075,-0.0060112266801297665,0.006029276642948389,-0.00014513731002807617,-0.0025780200958251953,-0.001259446144104004
0.012805458158254623,0.00026791589334607124,0.005292274057865143,-0.0020947158336639404,-0.000870823860168457,-0.011025667190551758
-0.012893915176391602,0.012638471089303493,0.008978242054581642,0.0019132345914840698,-0.007268548011779785,-0.00924527645111084
-0.039138589054346085,-0.002475879155099392,0.003288175445050001,0.005657032132148743,-0.003177344799041748,0.00029355287551879883
0.015485507436096668,-0.016599953174591064,0.013431623578071594,0.0060679614543914795,0.0031694769859313965,-0.01032024621963501
0.027872826904058456,0.004427682142704725,0.01337919756770134,0.0008283406496047974,0.0016614198684692383,-0.005646228790283203
-0.024472694844007492,0.023287449032068253,-0.0026816795580089092,-0.003901153802871704,-0.0029235482215881348,0.028017044067382812
-0.0457458458840847,0.0013368488289415836,-0.008142771199345589,0.0049377381801605225,-0.005788326263427734,0.01735055446624756
-0.012589536607265472,-0.018116891384124756,-0.0014221575111150742,-0.005790114402770996,0.0002040266990661621,-0.00862818956375122
0.0068668099120259285,-0.02105601504445076,0.006210440304130316,-0.00023283064365386963,-0.0016905665397644043,-0.023633718490600586
-0.0096612349152565,0.007603859528899193,-0.0018449978670105338,-0.007690740749239922,-0.004189193248748779,-0.014030754566192627
-0.03160322085022926,0.01201271265745163,-0.017904825508594513,-0.0020114779472351074,-0.006422579288482666,0.0009592175483703613
-0.007554054260253906,0.017628822475671768,-0.0199747197329998,-0.006794840097427368,-0.004563808441162109,-0.004642128944396973
0.002505726646631956,0.0016409221570938826,-0.005331468768417835,0.0017634034156799316,-0.0047602057456970215,-0.004494309425354004
-0.02867596223950386,-0.01304579246789217,0.0006182431243360043,0.001763463020324707,-0.006872355937957764,0.0010842084884643555
-0.003096473403275013,0.009557902812957764,0.0036227665841579437,0.0006634760648012161,-0.006324410438537598,-0.013884484767913818
0.007699068170040846,0.0020997575484216213,0.006089750677347183,0.0034226030111312866,-0.0019214153289794922,-0.011368870735168457
0.01448291726410389,-0.003972902428358793,0.015775982290506363,0.0035002678632736206,-0.0034095048904418945,-0.011892080307006836
0.005100930575281382,0.009667616337537766,0.018004650250077248,0.0001286286860704422,-0.0048184990882873535,-0.0025009512901306152
-0.005642703268676996,-0.007314343936741352,0.012800270691514015,-0.0008395016193389893,-0.003816962242126465,0.003740072250366211
-0.022843750193715096,-0.01099974662065506,0.002630065195262432,-0.004062384366989136,-0.0006451606750488281,0.00580751895904541
-0.03057248517870903,0.006068664137274027,-0.013812407851219177,-0.00873616337776184,-0.0013469457626342773,-0.002514660358428955
0.007089626044034958,0.024333897978067398,-0.011004211381077766,-0.003313034772872925,0.000952601432800293,-0.02360081672668457
0.005579434800893068,0.00936349667608738,-0.01688419096171856,0.00360746867954731,-0.0032064318656921387,-0.008642435073852539
-0.008760444819927216,-0.007837813347578049,-0.017519058659672737,-0.004432469606399536,-0.005463898181915283,-0.008501768112182617
0.010941089130938053,0.01164979301393032,-0.017902331426739693,0.0018364936113357544,-0.0064656734466552734,0.0015971660614013672
-0.002631731331348419,0.010373221710324287,-0.009580704383552074,-0.006235701963305473,-0.0027716755867004395,0.001252293586730957
-0.010145554319024086,-0.005729462951421738,-0.0023523997515439987,0.0034187883138656616,-0.0009429454803466797,0.0016840100288391113
0.004507334437221289,-0.002398595679551363,0.005674927495419979,0.0032466650009155273,-0.007054388523101807,-0.009029686450958252
-0.007776071783155203,-0.0042786612175405025,0.003386237658560276,-0.000664813444018364,-0.00286787748336792,0.00198441743850708
-0.012307928875088692,0.00974809005856514,0.0004632908385246992,-0.0027268975973129272,-0.0034897327423095703,-0.011157453060150146
0.010743103921413422,0.013275455683469772,-0.0036281519569456577,-0.0007022172212600708,-0.0022401809692382812,-0.01480090618133545
0.010706953704357147,0.006899898871779442,-0.011519938707351685,0.002211630344390869,-0.0027692317962646484,-0.0027570724487304688
0.0014702649787068367,-0.00579299870878458,0.0030238006729632616,-0.0003040861338376999,-0.002034127712249756,-0.0007497072219848633
-0.013751741498708725,-0.005832452792674303,0.010156510397791862,-0.0015896391123533249,-0.004102110862731934,0.02036195993423462
-0.03464037925004959,0.008268550969660282,0.013177444227039814,0.002106413245201111,-0.0021404623985290527,0.00793600082397461
-0.019047701731324196,-0.017107553780078888,0.0013834827113896608,0.001835450530052185,-0.0012460947036743164,-0.020670950412750244
0.03417765721678734,-0.013267876580357552,-0.011438405141234398,-0.0017757248133420944,-0.004246771335601807,-0.022175371646881104
0.017126189544796944,-0.020758099853992462,-0.00977801438421011,-0.0022809207439422607,-0.0024941563606262207,0.004317522048950195
-0.015209977515041828,0.005408012308180332,-0.006873143836855888,0.0031765997409820557,-0.008506298065185547,-0.004717230796813965
-0.024526668712496758,-0.009578598663210869,0.013147365301847458,-0.0027012061327695847,-0.002544105052947998,-0.00040858983993530273
-0.002731845946982503,0.002170804189518094,0.01706603914499283,-0.0023592114448547363,-0.001736760139465332,-0.010320425033569336
0.002172563225030899,0.004989916924387217,0.014268909581005573,-0.002043887972831726,-0.0029621124267578125,-0.004114508628845215
-0.013469401746988297,-0.009524853900074959,0.006627120077610016,-0.0009128283709287643,-0.0011590123176574707,-0.010427117347717285
0.01108669862151146,0.005155229475349188,0.002813277067616582,0.0025679320096969604,-0.002940058708190918,-0.010061323642730713
0.0023888135328888893,-0.0014664540067315102,0.013602274470031261,0.004303589463233948,-0.0011115074157714844,0.005327820777893066
-0.01238824799656868,0.014649774879217148,0.01676420494914055,0.004051879048347473,-0.0055474042892456055,0.008677423000335693
-0.014661232009530067,0.020443253219127655,0.009620988741517067,-0.003609403967857361,-0.007016420364379883,0.00578838586807251
-0.01468651182949543,-0.014959104359149933,-0.005847755819559097,-0.006637081503868103,-0.0023647546768188477,-0.006314635276794434
0.012202763929963112,-0.00973157212138176,-0.009426970966160297,-0.0021783094853162766,-0.0024506449699401855,-0.020786583423614502
-0.0008636610582470894,0.004192376043647528,-0.0011722701601684093,-0.00602470338344574,-0.0009372234344482422,-0.012099802494049072
-0.017877019941806793,0.0024193963035941124,0.0064414856024086475,0.0010396838188171387,-0.00525277853012085,-0.02251720428466797
0.01215284876525402,0.0011898083612322807,0.006786460522562265,-0.0050848424434661865,-0.004871189594268799,-0.01060950756072998
0.01951216161251068,0.005777720361948013,0.002771157305687666,0.0029055625200271606,-0.0033941268920898438,0.012337565422058105
-0.01434473879635334,-0.006549621466547251,0.00391168100759387,0.00461830198764801,-0.007395625114440918,0.005934596061706543
-0.025828510522842407,-0.008724014274775982,0.012559058144688606,0.001380234956741333,-0.003867030143737793,0.0045743584632873535
-0.019960565492510796,-0.007608944084495306,0.009938412345945835,-0.0008842051029205322,4.4345855712890625e-05,-0.018800020217895508
0.0076520610600709915,-0.010284233838319778,0.01649199239909649,-0.001425907015800476,0.0019663572311401367,-0.01115792989730835
0.019829057157039642,0.00879124365746975,0.005972584709525108,0.0007978826761245728,-0.0008903145790100098,-0.008819639682769775
0.003603147342801094,0.006117782089859247,-0.007038344629108906,-0.00039412081241607666,-0.004910647869110107,0.008235931396484375
-0.004490084946155548,-0.0041018580086529255,-0.012432150542736053,-0.00250244140625,-0.002070486545562744,-0.009080171585083008
0.009187976829707623,-0.007978444918990135,-0.0005296256858855486,0.00013546645641326904,0.0008586645126342773,-0.0133209228515625
-0.005689908750355244,0.004558380227535963,0.0028972504660487175,-0.008059248328208923,-0.0014565587043762207,-0.0011684298515319824
-0.01068799290806055,-0.01378786563873291,-0.007542527746409178,-0.004411771893501282,-0.0012215375900268555,-0.0016891956329345703
0.00815739668905735,0.0021925116889178753,-0.007008698768913746,-0.002409905195236206,-0.005514085292816162,-0.0027739405632019043
-0.00754155870527029,0.015473413281142712,-0.001975968014448881,0.004310475662350655,-0.0033908486366271973,0.003853023052215576
-0.021129272878170013,0.007741723675280809,0.007889978587627411,-0.004884064197540283,-0.004803061485290527,-0.0038607120513916016
-0.0053753661923110485,0.004020989406853914,-0.002205982804298401,-8.270144462585449e-05,-0.0047040581703186035,-0.017498254776000977
0.0011396128684282303,-0.008700905367732048,-0.006881680805236101,-0.0017763376235961914,-0.001633286476135254,-0.010736525058746338
0.010694057680666447,0.0177546925842762,-0.01103752851486206,0.007631227374076843,-0.007770240306854248,-0.013146162033081055
0.010796166956424713,0.01996011845767498,-0.00014180829748511314,0.0034899581223726273,-0.000765681266784668,-0.0008146762847900391
0.004956476390361786,0.0116167226806283,0.003561599412932992,0.0016149282455444336,-0.006376445293426514,0.007000565528869629
-0.01742570474743843,-0.01995236799120903,0.00039538461714982986,-0.004149913787841797,-0.000409543514251709,0.00012308359146118164
-0.0024206789676100016,-0.013768612407147884,-0.0038957295473665,-0.0015996098518371582,-0.004047274589538574,-0.017929494380950928
0.0008406089618802071,0.02153591997921467,0.0025621759705245495,0.0025513768196105957,-0.0008373856544494629,-0.003025531768798828
-0.003415036713704467,0.013469583354890347,-0.008760470896959305,-0.004023462533950806,-7.170438766479492e-05,-0.007374942302703857
0.009050201624631882,0.006295627448707819,-0.005718241911381483,-0.0025460701435804367,-0.0029368996620178223,-0.00016921758651733398
-0.004135527182370424,0.0010073499288409948,0.005409679375588894,0.00565434992313385,-0.001524209976196289,0.008227646350860596
-0.016696710139513016,-0.023221174255013466,0.011285549961030483,0.00883665680885315,-0.004439949989318848,-0.001101851463317871
0.0040518236346542835,-0.006232277024537325,0.00895334966480732,0.006636619567871094,-0.0030449628829956055,-0.008649766445159912
-0.0011488627642393112,0.004048332571983337,0.00879958737641573,-0.005611196160316467,-0.004809558391571045,0.005721986293792725
-0.01782100647687912,-0.0012394213117659092,0.002565044676885009,-0.001821562647819519,-0.004098474979400635,-0.00808042287826538
-0.007445110008120537,-0.014847729355096817,-0.004466054029762745,-0.00784185528755188,-0.0030408501625061035,-0.01568889617919922
0.023866942152380943,-0.003341319505125284,-0.0018336728680878878,0.009905204176902771,-0.004482746124267578,-0.021234989166259766
-0.006264330819249153,0.0055707525461912155,0.0033965546172112226,-0.0036761611700057983,-0.002399921417236328,-0.01076817512512207
0.00811789371073246,0.020126480609178543,0.015305647626519203,0.0018771011382341385,-0.0007725954055786133,-0.012373030185699463
0.0009780693799257278,-0.003941776230931282,0.006035645492374897,-0.0013072788715362549,0.003045022487640381,0.0012788772583007812
0.01787271909415722,-0.026334144175052643,0.0007290453650057316,0.00888773798942566,-0.00276339054107666,-0.007577657699584961
0.012444463558495045,0.001593074994161725,-0.001394987222738564,-0.0008902251720428467,-0.004891097545623779,0.008279561996459961
-0.0073509677313268185,0.032841335982084274,0.006017584353685379,0.005019336938858032,-0.005073606967926025,0.011821627616882324
-0.029944714158773422,0.005264468025416136,0.006608576513826847,-0.00929686427116394,-0.00022923946380615234,-0.004274308681488037
0.0071391817182302475,-0.008165343664586544,-0.006396452896296978,-0.0010267328470945358,0.000661313533782959,-0.02672255039215088
0.025860317051410675,-0.002819339744746685,-0.012629061937332153,0.005134716629981995,-0.004904747009277344,-0.005729198455810547
-0.010929700918495655,0.0061040399596095085,-0.006607485003769398,0.00027817487716674805,-0.0047495365142822266,-0.00822991132736206
0.013308815658092499,0.012099183164536953,0.01002045813947916,-0.001431003212928772,-0.002473115921020508,-0.0028252601623535156
-0.010004919022321701,-0.00762306060642004,0.0037888556253165007,-0.011332660913467407,-0.001236259937286377,0.003992319107055664
0.004150538705289364,0.006292811594903469,-0.005508428905159235,-0.004171550273895264,-0.0029851794242858887,-0.010024547576904297
-0.003438224084675312,0.008434673771262169,-0.009994834661483765,0.0034790486097335815,-0.00238955020904541,-0.0001252889633178711
-0.0044961245730519295,-0.021150505170226097,-0.0011802450753748417,0.00034912116825580597,-0.0022892355918884277,-0.002847015857696533
0.00895665679126978,-0.013031377457082272,-0.003072182647883892,-0.002349957823753357,-0.0005816817283630371,-0.0016080737113952637
-0.00470287399366498,0.002281558234244585,0.007932011969387531,-0.004308683797717094,-0.0011833906173706055,-0.005216002464294434
-0.012960316613316536,0.022761989384889603,-0.0008144358871504664,-0.0023885518312454224,-0.0008590221405029297,-0.006865382194519043
-0.010090291500091553,0.01011696644127369,-0.005976579152047634,-0.00023868493735790253,-0.0027540922164916992,-0.011810243129730225
-0.004347254056483507,-0.004806953016668558,-0.012295214459300041,0.0035354644060134888,-0.0001804828643798828,-0.0097121000289917
0.00649043545126915,-0.020243044942617416,0.0027262051589787006,0.0027058571577072144,-0.0030896663665771484,-0.0017669200897216797
0.004243749193847179,-0.01139856781810522,0.004533552564680576,-0.0010889451950788498,-0.004668056964874268,-0.003918170928955078
-0.006123576778918505,-0.00010665040463209152,0.00036645098589360714,0.0006773471832275391,-0.005780518054962158,0.0016214251518249512
-0.011091599240899086,-0.0005204719491302967,-0.008856294676661491,-0.0018027126789093018,-0.006201982498168945,-0.0040798187255859375
-0.014994773082435131,0.002420314820483327,-0.0002554918173700571,0.002164602279663086,0.0009624958038330078,-0.008031189441680908
0.006764895748347044,-0.005670758895576,0.011349109001457691,0.0014084875583648682,-0.005949854850769043,-0.007532358169555664
0.0006168126128613949,-0.005184314213693142,0.004930280614644289,-0.006702154874801636,-0.005378782749176025,-0.006452441215515137
0.01330510899424553,-0.013400008901953697,0.0013523120433092117,-0.004031747579574585,-0.004318594932556152,-0.012847602367401123
0.01645824685692787,0.015876565128564835,-0.0157236959785223,-0.0032899975776672363,-0.004093766212463379,-0.012372970581054688
0.015223274007439613,0.0128317316994071,-0.007458731532096863,0.007018327713012695,-0.002490997314453125,0.003782987594604492
-0.015417104586958885,-0.00338955782353878,-0.002793392166495323,0.003335997462272644,-0.003614068031311035,0.0036232471466064453
0.00038664741441607475,-0.013470316305756569,0.0009331305045634508,-0.00021731853485107422,-0.0008428692817687988,-0.009402334690093994
0.020117830485105515,-0.005538402125239372,0.0015549471136182547,0.0016345679759979248,0.0012912750244140625,-0.003869295120239258
0.007252166513353586,0.012616814114153385,-0.00019655795767903328,0.002290487289428711,-0.004205942153930664,7.128715515136719e-05
-0.0054304287768900394,0.005208480637520552,0.002307642251253128,-0.005014702677726746,-0.0031110048294067383,-0.0011843442916870117
0.004041858017444611,-0.005756430793553591,0.00852172076702118,0.0013398975133895874,-0.004588305950164795,-0.008309364318847656
-0.0009720749221742153,0.0013795096892863512,0.0058218082413077354,-0.0008716732263565063,-0.005966126918792725,-0.01699221134185791
0.007153946440666914,-0.009823286905884743,0.0016943647060543299,-0.0051177144050598145,-0.007138490676879883,-0.004053950309753418
0.0037723490968346596,-0.0006917081773281097,0.005773031618446112,-8.334219455718994e-05,-0.009915828704833984,0.0006055831909179688
0.023154057562351227,0.013739009387791157,0.0076944585889577866,0.0023433715105056763,-0.004748046398162842,-0.003612697124481201
0.018803829327225685,-0.025850415229797363,-0.002926658373326063,0.0056737978011369705,-0.0075116753578186035,-0.0070607662200927734
0.02809588424861431,-0.029237041249871254,-0.006791483610868454,-0.006528317928314209,-0.0061730146408081055,-0.018389105796813965
0.03091246634721756,-0.0059702214784920216,-0.004123304039239883,-0.001640230417251587,-0.007164418697357178,-0.01464235782623291
0.02344289794564247,0.015651099383831024,0.004227891564369202,-0.00574183464050293,-0.00868678092956543,-0.00846397876739502
0.017628293484449387,0.0409209243953228,-0.0007913049776107073,-0.0023839473724365234,-0.00214385986328125,-0.005955934524536133
0.02586868405342102,0.004746493883430958,0.001384953735396266,0.0016629267483949661,-0.0009546875953674316,-0.008749425411224365
0.037469565868377686,-0.01209532655775547,-0.00020537094678729773,0.00843726098537445,-0.0014709830284118652,-0.004326581954956055
0.007394429761916399,0.00021949270740151405,0.010401835665106773,0.0012926310300827026,0.002536773681640625,0.0026906728744506836
0.005811506882309914,0.02185145579278469,0.01603378728032112,0.0011093616485595703,0.003043532371520996,0.002213120460510254
0.023029113188385963,0.014269810169935226,0.009344911202788353,0.0009307283908128738,-0.0006524920463562012,0.007910847663879395
0.00476410798728466,-0.02071620523929596,-0.00017429888248443604,-0.0003530830144882202,0.0019965171813964844,0.011620521545410156
0.01860271394252777,-0.017937161028385162,0.000878630205988884,0.0045120567083358765,-0.0011243820190429688,-0.0056612491607666016
0.012319829314947128,0.005887092091143131,-0.00026825303211808205,-0.004736125469207764,0.0014402270317077637,0.004663825035095215
-0.0040863752365112305,0.02513597160577774,-0.004672377835959196,-0.003524109721183777,-0.0005946159362792969,-0.001950383186340332
-0.013723867014050484,0.01412392221391201,-0.01435390766710043,-0.006121903657913208,0.0005689859390258789,-0.0046648383140563965
-0.0050977556966245174,0.0038541406393051147,-0.022520599886775017,0.00511971116065979,-0.0026430487632751465,-0.013578355312347412
0.012128901667892933,0.008856888860464096,-0.01535616535693407,0.0053338706493377686,-0.004857420921325684,-0.003980517387390137
0.004359643440693617,0.010675638914108276,-0.012531082145869732,0.007058531045913696,-0.010440647602081299,0.006114602088928223
-0.005130997393280268,0.006385463289916515,-0.0009521315805613995,-0.001994222402572632,-0.00811755657196045,0.0032331347465515137
-0.019996365532279015,0.011871032416820526,0.0012387745082378387,-0.008280694484710693,-0.00618898868560791,0.0045174360275268555
-0.01643376797437668,-0.00012542074546217918,-0.0012102524051442742,-0.00440455786883831,-0.0063803791999816895,-0.010160505771636963
0.005259854253381491,0.01164642721414566,-0.0033475635573267937,-0.003435371443629265,-0.0059798359870910645,-0.01699131727218628
0.02027571201324463,-0.0008487212471663952,0.006953300908207893,0.00746580958366394,-0.0016860365867614746,-0.010391473770141602
0.015187719836831093,-0.012921134009957314,0.014919167384505272,-0.0018078237771987915,-0.002042531967163086,-0.008011579513549805
