rotation_x,rotation_y,rotation_z,acceleration_x,acceleration_y,acceleration_z
-0.822303295135498,0.3673107624053955,-0.37801575660705566,-0.07464250922203064,-0.0038688182830810547,-0.08741539716720581
-0.7690598964691162,0.46376997232437134,-0.0907912328839302,0.019376486539840698,0.06087806820869446,-0.035633623600006104
-0.9042256474494934,0.41368991136550903,0.2709314823150635,0.09268772602081299,0.11538630723953247,0.08783107995986938
-1.1399468183517456,0.2126072347164154,0.46063172817230225,0.09309834241867065,0.1149420440196991,0.17817085981369019
-1.1471036672592163,-0.08073233813047409,0.49866512417793274,0.06285271048545837,0.06326472759246826,0.14928030967712402
-0.9348520636558533,-0.27600881457328796,0.515352189540863,0.038344115018844604,0.01424938440322876,0.027764558792114258
-0.7856539487838745,-0.6163328886032104,0.6067517995834351,0.06135904788970947,0.0021202564239501953,-0.021057963371276855
-0.8896380066871643,-0.7957649230957031,0.7304984927177429,0.07082688808441162,-0.006687164306640625,-0.009130716323852539
-1.075061559677124,-0.44767406582832336,0.7214288115501404,0.04439908266067505,-0.053747475147247314,0.0023452043533325195
-1.4223679304122925,-0.3008502721786499,0.614612877368927,-0.03235131502151489,-0.05850815773010254,-0.014605998992919922
-1.6763156652450562,-0.27658525109291077,0.5823030471801758,-0.028089001774787903,-0.05489262938499451,-0.050592899322509766
-1.30125093460083,0.17244750261306763,0.4896378815174103,-0.09057165682315826,-0.08351296186447144,-0.2358061671257019
-0.6601831316947937,0.520841658115387,0.4443378150463104,-0.05959509313106537,-0.07448065280914307,-0.28186506032943726
-0.16867907345294952,0.4228154122829437,0.5614108443260193,0.024482280015945435,-0.022732138633728027,-0.21241116523742676
0.069699726998806,0.20765550434589386,0.6237577795982361,0.06986989080905914,-0.0013077259063720703,-0.15387141704559326
0.0681050717830658,-0.029458925127983093,0.47441890835762024,0.014278560876846313,-0.050184160470962524,-0.06041175127029419
-0.031322114169597626,-0.3068208396434784,0.3495699465274811,-0.015740007162094116,-0.056780844926834106,-0.025625646114349365
-0.06612543761730194,-0.49952393770217896,0.3198772370815277,-0.0327896922826767,-0.028805851936340332,-0.06032615900039673
-0.010951273143291473,-0.5286980271339417,0.38406121730804443,-0.06203863024711609,0.021444112062454224,-0.10032761096954346
-0.0023338592145591974,-0.32080724835395813,0.6625639200210571,-0.07808414101600647,0.056614041328430176,-0.15207165479660034
-0.11723600327968597,-0.05203814432024956,0.8644325137138367,-0.09114931523799896,0.08816424012184143,-0.11032265424728394
-0.3156672716140747,-0.033100176602602005,0.9270570278167725,-0.07025495171546936,0.0822468101978302,-0.00776749849319458
-0.5058087706565857,-0.052598774433135986,0.90693199634552,-0.03511679172515869,0.054388612508773804,0.07620799541473389
-0.5485842823982239,-0.02376439794898033,0.8600552678108215,-0.05575287342071533,0.01944252848625183,0.0748060941696167
-0.42761874198913574,-0.06545332074165344,0.8350113034248352,-0.018381550908088684,0.028861820697784424,0.07853084802627563
-0.2053530216217041,0.0378774031996727,0.8177828192710876,0.04875558614730835,0.023279398679733276,0.051377952098846436
-0.003570505417883396,0.21195921301841736,0.7742675542831421,0.07589821517467499,0.016213148832321167,-0.01081472635269165
0.03424862399697304,0.02648504264652729,0.5838914513587952,-0.013848885893821716,-0.005686581134796143,0.009421825408935547
-0.012532070279121399,-0.48634785413742065,0.3225604295730591,-0.042075082659721375,-0.017408519983291626,-0.003531515598297119
-0.003638277528807521,-0.8082176446914673,0.13385672867298126,-0.05792459845542908,0.010797649621963501,-0.02926933765411377
0.10636652261018753,-0.5569763779640198,0.11273225396871567,-0.0641600638628006,0.055502235889434814,-0.11930227279663086
0.12215681374073029,-0.2194574773311615,0.13636550307273865,-0.06028589606285095,0.10845077037811279,-0.15240252017974854
0.0071203503757715225,-0.038037560880184174,0.1332794427871704,-0.0624668151140213,0.1700405776500702,-0.09327417612075806
-0.19884930551052094,0.07866713404655457,0.07468438148498535,-0.045597292482852936,0.17777374386787415,-0.008021533489227295
-0.4366115927696228,0.08941880613565445,-0.04284238442778587,-0.06363675743341446,0.1805088222026825,0.034284770488739014
-0.5792633295059204,0.04999314621090889,-0.04215493053197861,-0.04540114104747772,0.14845514297485352,0.019794106483459473
-0.5800693035125732,0.012405216693878174,0.02327914535999298,0.016513966023921967,0.14757603406906128,-0.014070451259613037
-0.46367084980010986,0.12956871092319489,0.14545080065727234,0.03602181375026703,0.18659725785255432,-0.04802745580673218
-0.3380030691623688,0.4182436764240265,0.28149908781051636,0.025291278958320618,0.20947220921516418,-0.07587277889251709
-0.1585826277732849,0.6211718916893005,0.2651554048061371,-0.017866432666778564,0.20106342434883118,-0.07371670007705688
0.09340548515319824,0.4468165636062622,0.13155394792556763,-0.03809107840061188,0.1384701430797577,-0.033975064754486084
0.39820611476898193,-0.06967303156852722,-0.0637516975402832,-0.02528730034828186,0.09129154682159424,-0.0023745298385620117
0.6970723271369934,-0.2952703535556793,-0.26673609018325806,-0.028908252716064453,0.07455813884735107,-0.01599276065826416
0.8130020499229431,-0.04403770714998245,-0.3912821114063263,-0.04930533468723297,0.06995710730552673,-0.043206632137298584
0.6896929144859314,0.2836957275867462,-0.25074830651283264,-0.013685137033462524,0.10955360531806946,0.002583742141723633
0.40119269490242004,0.5542754530906677,-0.038225214928388596,0.011679962277412415,0.12514376640319824,0.0230712890625
0.04118488356471062,0.6193183064460754,0.05581311881542206,-0.011550307273864746,0.09988045692443848,0.06796270608901978
-0.21136046946048737,0.45178383588790894,-0.005184244830161333,-0.0017819851636886597,0.04815483093261719,0.07894039154052734
-0.36399421095848083,0.1281854659318924,-0.09498666971921921,0.035502344369888306,0.02245008945465088,0.08363211154937744
-0.4131366014480591,-0.05986422300338745,-0.10842017084360123,0.07676401734352112,0.02759912610054016,0.05099451541900635
-0.329973042011261,-0.0835520476102829,0.0037424429319798946,0.07427145540714264,0.052549928426742554,-0.03289669752120972
-0.16229674220085144,-0.0397021509706974,0.12617836892604828,0.04755491018295288,0.06829923391342163,-0.10867196321487427
-0.03138171508908272,-0.03670351579785347,0.21000711619853973,0.028443291783332825,0.07844796776771545,-0.143729567527771
0.06311506032943726,-0.10470078885555267,0.34397727251052856,0.016926676034927368,0.08741667866706848,-0.140546977519989
0.17157360911369324,0.00035966408904641867,0.5413877367973328,-0.013063132762908936,0.09546858072280884,-0.12439006567001343
0.25442513823509216,0.29182156920433044,0.7248552441596985,-0.05989557504653931,0.0945507287979126,-0.09749233722686768
0.21286174654960632,0.4330068826675415,0.7337231040000916,-0.10444670915603638,0.04896619915962219,-0.007174491882324219
0.11208553612232208,0.25101736187934875,0.7013666033744812,-0.0470971018075943,0.024079173803329468,0.07496309280395508
0.06663870811462402,0.003373142331838608,0.7334845066070557,-0.00536482036113739,0.020534217357635498,0.10528093576431274
0.02224717289209366,-0.10497905313968658,0.6929020285606384,-0.04290199279785156,0.011847525835037231,0.10419434309005737
-0.05154615640640259,-0.2769228518009186,0.5847760438919067,-0.0767228901386261,0.006678521633148193,0.06121546030044556
-0.0247966255992651,-0.42464470863342285,0.4869665205478668,-0.07131054997444153,0.0041246116161346436,-0.003110229969024658
0.10034243762493134,-0.2815924286842346,0.3737295866012573,-0.08161789178848267,0.010909736156463623,-0.09666812419891357
0.2640508711338043,0.13654804229736328,0.3067418932914734,-0.09095083177089691,0.018970012664794922,-0.19946414232254028
0.3050035238265991,-0.00019724143203347921,0.31038689613342285,-0.05879673361778259,0.06629204750061035,-0.11733770370483398
0.27521422505378723,-0.27995070815086365,0.24509504437446594,0.005830734968185425,0.05602720379829407,-0.0500415563583374
0.29510584473609924,-0.5255823731422424,0.1837518960237503,0.011906281113624573,0.061055988073349,-0.01678401231765747
0.3747687041759491,-0.5302633047103882,0.14708304405212402,-0.030171237885951996,0.05565518140792847,-0.0547943115234375
0.4604932367801666,-0.3501436710357666,0.14749763906002045,-0.040850840508937836,0.057576000690460205,-0.06595003604888916
0.5497186183929443,-0.15474945306777954,0.07069268077611923,-0.01920303702354431,0.04963201284408569,-0.05992007255554199
0.5706614851951599,-0.22139327228069305,0.012844638898968697,-0.015955306589603424,0.040984153747558594,-0.030616819858551025
0.4554980993270874,-0.48920223116874695,-0.06840101629495621,-0.02398582547903061,0.034600645303726196,0.036334455013275146
0.3491717576980591,-0.587401270866394,-0.18604639172554016,-0.03682037442922592,0.010511189699172974,0.06542396545410156
0.3096590042114258,-0.44979116320610046,-0.2829427123069763,-0.06089772284030914,0.00394853949546814,0.025713801383972168
0.3604966402053833,-0.17323049902915955,-0.3167368173599243,-0.06441468000411987,0.018468767404556274,-0.013801157474517822
0.4120122194290161,0.00830935500562191,-0.21849733591079712,-0.04616942256689072,0.034112513065338135,-0.0033270716667175293
0.3678658902645111,0.14788755774497986,-0.022563060745596886,0.05465540289878845,0.017010033130645752,0.02746683359146118
0.3167908787727356,0.24688437581062317,0.09784402698278427,0.031528592109680176,0.032056331634521484,0.027110695838928223
0.2888193130493164,0.13492843508720398,0.08006953448057175,-0.00018064677715301514,0.0028284788131713867,0.033316850662231445
0.28908050060272217,0.04647427797317505,-0.06577283143997192,-0.051385775208473206,-0.0193156898021698,0.022903501987457275
0.2544081509113312,0.04643074795603752,-0.045996297150850296,-0.0378524512052536,-0.0008854269981384277,0.008787572383880615
0.2039063274860382,-0.044522397220134735,0.13546308875083923,0.04195217788219452,0.01800978183746338,0.029796838760375977
0.18760542571544647,-0.10206817090511322,0.29980912804603577,0.07380175590515137,0.025002241134643555,0.024930119514465332
0.12981446087360382,-0.058637190610170364,0.2815714478492737,0.0016458630561828613,0.005330890417098999,0.016055703163146973
0.08608748763799667,0.033558811992406845,0.1379532814025879,-0.07610486447811127,-0.027111738920211792,-0.0014043450355529785
0.09300007671117783,0.012459548190236092,0.08167902380228043,-0.05361960083246231,-0.034145474433898926,-0.005400598049163818
0.0996471419930458,-0.16742219030857086,0.08157190680503845,-0.008208028972148895,-0.024290889501571655,0.019317924976348877
0.10724446922540665,-0.33118972182273865,0.1231195330619812,0.01767076551914215,-0.02116873860359192,0.024974703788757324
0.07054203003644943,-0.41863805055618286,0.0735272690653801,-0.010138288140296936,-0.015398919582366943,0.016932308673858643
0.007836893200874329,-0.35774239897727966,-0.0736553817987442,-0.05855855345726013,-0.02287435531616211,0.01016920804977417
-0.06901631504297256,-0.18504343926906586,-0.2143932431936264,-0.09422332048416138,-0.024911195039749146,0.006018936634063721
-0.1712995320558548,-0.05155223235487938,-0.21221424639225006,-0.04422462359070778,-0.012438088655471802,0.00872427225112915
-0.1929067075252533,0.026576662436127663,-0.16123078763484955,-0.00486055389046669,0.013773471117019653,0.0006931424140930176
-0.1955353021621704,0.04649448022246361,-0.15004554390907288,-0.0005578696727752686,0.003620356321334839,-0.013622820377349854
-0.20182809233665466,0.04045785218477249,-0.18767663836479187,-0.026542261242866516,0.012225449085235596,-0.011199235916137695
-0.2001284807920456,0.05307282879948616,-0.20532681047916412,-0.026018664240837097,0.014057308435440063,-0.01565873622894287
-0.19198907911777496,0.06269833445549011,-0.1846581995487213,-0.01221424713730812,0.02155330777168274,-0.013605296611785889
-0.16583001613616943,0.02824539691209793,-0.1228785589337349,0.017521023750305176,0.027308762073516846,-0.008883357048034668
-0.14587146043777466,-0.02935086190700531,-0.03574029728770256,0.03394715487957001,0.02536696195602417,-0.001802206039428711
-0.10999080538749695,-0.051032569259405136,0.06746401637792587,0.035556893795728683,0.02020031213760376,-0.013436496257781982
-0.08343208581209183,-0.047981925308704376,0.10475043952465057,0.002804100513458252,-0.009433507919311523,-0.02610921859741211
-0.08404093235731125,-0.10266844928264618,0.0037860358133912086,-0.06039096415042877,-0.041601598262786865,-0.02428412437438965
-0.012707598507404327,-0.13692428171634674,-0.103818379342556,-0.08893036842346191,-0.055368244647979736,-0.041600584983825684
0.11385618150234222,-0.08703067898750305,-0.1062215194106102,-0.06464430689811707,-0.03136458992958069,-0.07443255186080933
0.18405239284038544,-0.027118373662233353,-0.130390465259552,-0.03787100315093994,-0.02402055263519287,-0.06645411252975464
0.17276056110858917,0.03435738384723663,-0.17386555671691895,-0.04035261273384094,-0.03188440203666687,-0.03040987253189087
0.11520136147737503,0.05879010632634163,-0.2171100527048111,-0.02018122375011444,-0.023595184087753296,-0.0012897849082946777
0.06597895920276642,0.00852187443524599,-0.2703778147697449,-0.0018830746412277222,-0.01882624626159668,0.015817344188690186
0.08018481731414795,-0.03591494634747505,-0.2977430522441864,0.007425025105476379,-0.004716396331787109,-3.1828880310058594e-05
0.10076960921287537,-0.08103828877210617,-0.26131340861320496,0.03263652324676514,0.02635893225669861,-0.007472634315490723
0.07257606089115143,-0.12364433705806732,-0.2213319092988968,0.05530659481883049,0.03861001133918762,0.0026800036430358887
0.035762496292591095,-0.07915323227643967,-0.17595642805099487,0.04943178594112396,0.04409375786781311,0.008008837699890137
-0.02467166818678379,-0.00043026614002883434,-0.07864347100257874,0.05712713301181793,0.06881755590438843,0.002881348133087158
-0.07556629925966263,0.04051751270890236,-0.045476533472537994,0.05054935812950134,0.06746098399162292,0.0020782947540283203
-0.044170014560222626,0.05967385694384575,0.010839906521141529,0.042568594217300415,0.06832978129386902,-0.013659477233886719
-0.0014060114044696093,0.005333805922418833,0.09974054992198944,0.0700128972530365,0.07494819164276123,-0.014759838581085205
-0.004419924225658178,-0.061059292405843735,0.12868735194206238,0.06361508369445801,0.05580270290374756,0.001977086067199707
-0.025759484618902206,-0.10422278195619583,0.13615666329860687,0.03644171357154846,0.0448458194732666,0.009431719779968262
-0.049272097647190094,-0.11187605559825897,0.15206307172775269,0.037665367126464844,0.03976091742515564,0.0004552602767944336
-0.05751284584403038,-0.04842758551239967,0.17227202653884888,0.013255193829536438,0.03764551877975464,-0.02147090435028076
-0.03829837590456009,-0.043172214180231094,0.17921416461467743,0.010566722601652145,0.03704071044921875,-0.03678351640701294
0.022001827135682106,-0.006974451709538698,0.15041688084602356,-0.0045443326234817505,0.03500935435295105,-0.05188453197479248
0.03343423455953598,0.012943636626005173,0.10853717476129532,-0.03249375522136688,0.02618810534477234,-0.04504215717315674
0.0024565812200307846,0.04683779925107956,0.07842500507831573,-0.025787636637687683,0.012692034244537354,-0.018280208110809326
0.007017551921308041,0.10374168306589127,0.07233139872550964,-0.02416256070137024,0.01578885316848755,-0.011898338794708252
-0.044583939015865326,0.0636342465877533,0.05356575548648834,-0.016413509845733643,0.007263898849487305,0.014825582504272461
-0.06451974809169769,0.08966980129480362,0.013575144112110138,-0.023151744157075882,-0.0012173354625701904,0.018643558025360107
-0.06946353614330292,0.1289243847131729,-0.00621043611317873,-0.03674723207950592,-0.004205375909805298,0.010209381580352783
-0.1118239015340805,0.07755836099386215,0.025282591581344604,-0.00586286187171936,0.002230226993560791,0.03193867206573486
-0.1214568093419075,0.0546380840241909,0.034688517451286316,-3.874301910400391e-06,-0.0038159191608428955,0.030054092407226562
-0.13670974969863892,0.04721109941601753,0.023903915658593178,-0.024822521954774857,-0.0069751739501953125,0.013195991516113281
-0.13493026793003082,0.0924203172326088,-0.0011891548056155443,-0.028763581067323685,-0.004012316465377808,-0.006178379058837891
-0.09849360585212708,0.10538420081138611,-0.017520252615213394,-0.04184602200984955,-0.004334479570388794,-0.024651288986206055
-0.026580732315778732,0.08086634427309036,0.006957969628274441,-0.023184314370155334,0.0005643367767333984,-0.030555307865142822
-0.013023141771554947,0.027749743312597275,0.023348331451416016,-0.012213394045829773,0.00039255619049072266,-0.018262743949890137
-0.05000431090593338,0.033615510910749435,-0.012662239372730255,-0.03294570744037628,-0.017386555671691895,0.0009899735450744629
-0.06376567482948303,0.046991050243377686,-0.006621292792260647,-0.03141885995864868,-0.017056047916412354,-0.009748458862304688
-0.054683391004800797,0.039047446101903915,-0.0055618733167648315,-0.012995101511478424,-0.018300265073776245,-0.00961756706237793
-0.021291330456733704,0.030478153377771378,-0.00867627002298832,-0.0249994695186615,-0.02037176489830017,-0.02347201108932495
-4.0427315980196e-05,-0.021305453032255173,-0.008795186877250671,-0.015397414565086365,-0.023511052131652832,-0.018433213233947754
0.03367064893245697,-0.01612689718604088,-0.013189306482672691,-0.011945217847824097,-0.02434748411178589,-0.026816904544830322
0.06286823004484177,0.021085945889353752,-0.029335349798202515,-0.02449338138103485,-0.027072608470916748,-0.036522746086120605
0.03945140540599823,-0.016528083011507988,-0.04894452914595604,-0.015321597456932068,-0.030190736055374146,-0.009511411190032959
0.03588756546378136,-0.018780851736664772,-0.07606776058673859,-0.011570066213607788,-0.02407658100128174,-0.0065346360206604
0.010859455913305283,0.019970232620835304,-0.10340040922164917,-0.027740806341171265,-0.015360593795776367,-0.0038585662841796875
0.0015606246888637543,0.04648280143737793,-0.10098154842853546,-0.014655165374279022,-0.0052780210971832275,0.0004736185073852539
0.01676110550761223,0.11049073189496994,-0.07816222310066223,-0.005158707499504089,0.00964096188545227,-0.001391768455505371
0.011935458518564701,0.11195387691259384,-0.061152078211307526,0.004622317850589752,0.01246383786201477,0.009272754192352295
-0.007196440361440182,0.1183796301484108,-0.07449787855148315,-0.007284887135028839,0.008732140064239502,0.031706035137176514
-0.025485796853899956,0.09054119139909744,-0.04527219384908676,0.009151339530944824,0.007187068462371826,0.03283601999282837
-0.04941562935709953,0.0020648143254220486,-0.020049666985869408,0.03418068587779999,0.0051313042640686035,0.03874766826629639
-0.05191700905561447,-0.04757057875394821,-0.0007676584646105766,0.024877287447452545,0.004272758960723877,0.02152806520462036
-0.05318164825439453,-0.035463232547044754,-0.013536876998841763,0.010380417108535767,0.007064938545227051,0.00012439489364624023
-0.07094729691743851,0.011193405836820602,-0.028855042532086372,0.0009819716215133667,0.0032444000244140625,-0.01170504093170166
-0.09297177940607071,0.04894135519862175,-0.004958047531545162,0.008229739964008331,0.00928071141242981,-0.009141981601715088
-0.09662884473800659,0.05595909059047699,0.020437419414520264,0.015291206538677216,0.011437535285949707,-0.00724869966506958
-0.08226320892572403,0.06993132084608078,0.03992314264178276,0.009760960936546326,0.006444305181503296,-0.013920485973358154
-0.06385639309883118,0.08485788851976395,0.07489098608493805,0.017944559454917908,0.009207814931869507,-0.018599390983581543
-0.04898299276828766,0.1163857951760292,0.08297666907310486,0.0030530765652656555,0.009043663740158081,-0.018532097339630127
-0.03440992161631584,0.10181597620248795,0.09197080135345459,0.0031687840819358826,0.003114640712738037,-0.014952123165130615
-0.017264503985643387,0.07300195097923279,0.08014006912708282,-0.006084650754928589,0.0019585490226745605,-0.0144578218460083
-0.004864658694714308,0.05680977925658226,0.0871959999203682,-0.0021720752120018005,0.00021925568580627441,-0.014267027378082275
0.0023005609400570393,0.019639847800135612,0.09951242059469223,0.003530338406562805,0.0020089447498321533,-0.0068062543869018555
-0.0030479629058390856,-0.02563404105603695,0.10640856623649597,0.010995760560035706,-0.0013234615325927734,0.004049718379974365
-0.008410768583416939,-0.03131885826587677,0.09311619400978088,-0.0007486641407012939,-0.004057765007019043,0.0013633370399475098
-0.0005702138878405094,-0.02488999255001545,0.0899474248290062,-0.006214991211891174,-0.000977635383605957,-0.008116424083709717
0.007632322609424591,-0.050081897526979446,0.07700792700052261,-0.004812680184841156,0.0008895397186279297,-0.011330723762512207
0.029644958674907684,-0.05824349448084831,0.06687662750482559,-0.009211316704750061,0.001788020133972168,-0.021886229515075684
0.04166166111826897,-0.07007212191820145,0.07041953504085541,-0.005116276443004608,0.005305349826812744,-0.021230578422546387
0.03473601117730141,-0.06938700377941132,0.0675346851348877,-0.009907960891723633,0.010373711585998535,-0.018701910972595215
-0.020748917013406754,-0.04872049391269684,0.011309383437037468,-0.037518516182899475,0.004337012767791748,-0.014515697956085205
-0.05835907161235809,-0.002166873775422573,-0.015385838225483894,-0.040494345128536224,0.008876234292984009,-0.028943181037902832
-0.042988888919353485,0.07729435712099075,-0.015062093734741211,-0.024191193282604218,0.016708046197891235,-0.057379722595214844
0.01073814369738102,0.11056990921497345,-0.019453130662441254,-0.015675947070121765,0.014228343963623047,-0.06516742706298828
0.09011835604906082,0.09584274142980576,-0.032064907252788544,-0.013840124011039734,0.01387593150138855,-0.057178497314453125
0.10972438007593155,0.05094842240214348,-0.031108185648918152,-0.0023346394300460815,0.012912064790725708,-0.023857831954956055
0.07696020603179932,0.06964792311191559,-0.014655289240181446,0.00503915548324585,0.010049939155578613,0.006721854209899902
0.041363585740327835,0.09157133847475052,0.018408482894301414,0.015718169510364532,0.007360249757766724,0.017657458782196045
0.027743631973862648,0.08897056430578232,0.03144528716802597,0.01106531172990799,0.0018065273761749268,0.01980280876159668
0.02569912187755108,0.026943188160657883,0.025895528495311737,0.006148800253868103,-0.0023872852325439453,0.01962268352508545
0.03389863297343254,-0.006172343157231808,0.016881944611668587,-0.009605087339878082,-0.003225266933441162,0.013216078281402588
0.055355511605739594,0.019580498337745667,0.02483934536576271,-0.003468841314315796,0.004959017038345337,-0.00430452823638916
0.08182257413864136,0.027761310338974,0.019316455349326134,-0.00966539978981018,-0.0010476112365722656,-0.009822726249694824
0.09083078056573868,-0.0049423049204051495,0.013204104267060757,-0.005148284137248993,-0.0016284584999084473,0.006594955921173096
0.060159921646118164,-0.017231348901987076,-0.01450482476502657,-0.008521005511283875,-0.009237170219421387,0.020381808280944824
0.015208177268505096,0.01481519266963005,-0.02657569944858551,-0.010931916534900665,-0.012407839298248291,0.023454725742340088
0.009857142344117165,0.0034020254388451576,-0.023712661117315292,-0.0002642497420310974,-0.004460543394088745,0.01831454038619995
0.028589535504579544,-0.020029723644256592,-0.029853809624910355,-0.00021436065435409546,-0.003509014844894409,0.012934446334838867
0.02884252369403839,-0.029886042699217796,-0.0413641631603241,-0.01028585433959961,-0.0007422864437103271,0.012919843196868896
0.004262680187821388,-0.012780560180544853,-0.05305033549666405,-0.01343834400177002,-0.0005115270614624023,0.012484073638916016
-0.017366236075758934,0.023836499080061913,-0.038240376859903336,-0.01016312837600708,0.0012814998626708984,0.01550835371017456
-0.024781346321105957,0.023651711642742157,-0.012278854846954346,0.006728962063789368,0.008608996868133545,0.011887073516845703
-0.028577683493494987,0.0031147459521889687,-0.006508850492537022,0.0043116360902786255,0.005941629409790039,0.011475145816802979
-0.02565462328493595,-0.019839761778712273,-0.01681029424071312,-0.0013064071536064148,0.005107253789901733,0.008524477481842041
-0.013695042580366135,-0.015502729453146458,-0.019285518676042557,-0.003846488893032074,0.00374448299407959,0.000690460205078125
-0.023528706282377243,-0.01777067594230175,-0.017649667337536812,0.004481546580791473,0.004490256309509277,0.006504237651824951
-0.025801673531532288,0.001216711476445198,-0.030017415061593056,-0.007329978048801422,0.0008950531482696533,0.004809200763702393
-0.033534109592437744,-0.028943248093128204,-0.03264687582850456,0.0013294443488121033,0.00014904141426086426,0.006582379341125488
-0.016405241563916206,-0.021488867700099945,-0.00588225107640028,0.008590489625930786,9.387731552124023e-06,-0.0025437474250793457
-0.010472912341356277,-0.022997817024588585,0.012727738358080387,0.01058824360370636,0.0014733076095581055,-0.008025646209716797
-0.02358902245759964,-0.019898008555173874,-0.012404752895236015,-0.005829237401485443,-0.008398443460464478,-0.0035381317138671875
-0.007278548087924719,-0.028715774416923523,-0.007470320910215378,-0.006637215614318848,-0.00905713438987732,-0.01218491792678833
0.0005149524658918381,-0.029812810942530632,-0.017310358583927155,0.0002255663275718689,-0.007532089948654175,-0.009478747844696045
0.012929882854223251,0.009486055001616478,-0.02609635889530182,-0.017361894249916077,-0.011598944664001465,-0.017288625240325928
0.0013258745893836021,0.015201807953417301,-0.03609407693147659,-0.007583461701869965,-0.005409836769104004,-0.009754061698913574
-0.006450781598687172,0.007133341860026121,-0.05064534768462181,-0.011260583996772766,-0.012483417987823486,-0.0026078224182128906
0.004509219899773598,0.013281401246786118,-0.03764239698648453,-0.003147497773170471,-0.005217313766479492,-0.012586057186126709
0.03815251216292381,-0.012975657358765602,-0.012702139094471931,0.010454826056957245,-0.0025333166122436523,-0.021627843379974365
0.051850929856300354,-0.05216216668486595,-0.014607579447329044,-0.0038813650608062744,-0.01061132550239563,-0.017611324787139893
0.04777224734425545,-0.07248535752296448,-0.043448157608509064,-0.03413185477256775,-0.019242405891418457,-0.02139514684677124
0.061228226870298386,0.02280965819954872,-0.10926806181669235,-0.08737103641033173,-0.023701578378677368,-0.04835587739944458
0.09815782308578491,0.09540499746799469,-0.17288535833358765,-0.11256244778633118,-0.019917547702789307,-0.0621790885925293
0.0779503583908081,0.07430925965309143,-0.2672903835773468,-0.10454757511615753,-0.025710225105285645,-0.025892794132232666
0.049977172166109085,0.06200708821415901,-0.31102514266967773,-0.0883135125041008,-0.022862404584884644,0.006019711494445801
0.05217202007770538,0.04126346483826637,-0.29183992743492126,-0.03816324472427368,-0.00070953369140625,0.023785650730133057
0.048035167157649994,0.023593805730342865,-0.27004316449165344,-0.0009747743606567383,0.013578474521636963,0.04534733295440674
-0.005142074543982744,-0.0011247405782341957,-0.2032364159822464,0.027096331119537354,0.01786625385284424,0.0766000747680664
-0.06881541013717651,-0.05181976035237312,-0.12505580484867096,0.06797929108142853,0.024393022060394287,0.09361773729324341
-0.09626952558755875,-0.05669475719332695,-0.04940100759267807,0.0770278200507164,0.02257174253463745,0.07769882678985596
-0.06979950517416,-0.06432657688856125,0.04739571735262871,0.08286131918430328,0.026968538761138916,0.03697085380554199
-0.020689019933342934,-0.11740147322416306,0.12950412929058075,0.09170826524496078,0.02838161587715149,0.015539467334747314
0.0352436862885952,-0.14081251621246338,0.17905406653881073,0.08185964822769165,0.024022161960601807,-0.003344416618347168
0.020413506776094437,-0.1409708708524704,0.17471538484096527,0.06414642930030823,0.009745866060256958,-0.002012908458709717
-0.07243108749389648,-0.08597066253423691,0.15185073018074036,0.0481138750910759,-0.007379770278930664,0.0007723569869995117
-0.13654126226902008,-0.035532474517822266,0.1622740924358368,0.06273303925991058,-0.00998196005821228,-0.019562363624572754
-0.07928849011659622,0.0601983480155468,0.20789769291877747,0.0748835951089859,0.009713351726531982,-0.07389384508132935
0.0038114027120172977,0.08077841997146606,0.2521004378795624,0.06337985396385193,0.01797577738761902,-0.10487431287765503
0.09337013214826584,0.007866320200264454,0.2557220160961151,0.047307856380939484,0.01310664415359497,-0.08811718225479126
0.14362762868404388,-0.03231484442949295,0.2292928397655487,0.02223604917526245,0.008508175611495972,-0.07659417390823364
0.12773524224758148,-0.017719505354762077,0.23369379341602325,0.007618747651576996,0.008580684661865234,-0.05848962068557739
0.1263124793767929,0.05351244658231735,0.2726469337940216,0.0053057074546813965,0.027461230754852295,-0.06056010723114014
0.15941108763217926,0.13149870932102203,0.2797703146934509,-0.019105099141597748,0.04011550545692444,-0.07109189033508301
0.22547683119773865,0.18350452184677124,0.28689044713974,-0.036309078335762024,0.03700035810470581,-0.05866044759750366
0.2817757725715637,0.17694497108459473,0.2511374354362488,-0.04336399585008621,0.027022749185562134,-0.026733815670013428
0.24671036005020142,0.15403763949871063,0.1700354665517807,-0.0603875070810318,-0.004504531621932983,0.03973698616027832
0.14951935410499573,0.17181716859340668,0.06691423058509827,-0.06595790386199951,-0.020858734846115112,0.08604633808135986
0.020034484565258026,0.175420343875885,-0.02192084491252899,-0.06280364096164703,-0.044596850872039795,0.1023436188697815
-0.06009134277701378,0.1695556640625,-0.07474608719348907,-0.03997049480676651,-0.03253260254859924,0.09304076433181763
-0.10554282367229462,0.15474791824817657,-0.10792136192321777,-0.024404197931289673,-0.02816721796989441,0.059357285499572754
-0.12292281538248062,0.1736813485622406,-0.1189151257276535,-0.02179969847202301,-0.014477550983428955,0.018549740314483643
-0.06778070330619812,0.17686878144741058,-0.125605970621109,-0.027191713452339172,-0.00045117735862731934,-0.025542020797729492
0.008796952664852142,0.13854405283927917,-0.11748985201120377,-0.027859821915626526,0.012232601642608643,-0.04607248306274414
0.06295813620090485,0.10033994913101196,-0.11233729869127274,-0.02416890859603882,0.010931462049484253,-0.04141944646835327
0.05339474976062775,0.08946824073791504,-0.10026140511035919,-0.02064201980829239,0.00879281759262085,-0.021095097064971924
0.024508703500032425,0.08923258632421494,-0.09537853300571442,-0.016378790140151978,0.002078533172607422,-0.001340031623840332
0.04753926023840904,0.1000140905380249,-0.09364105015993118,-0.018488392233848572,0.004827767610549927,-0.001764535903930664
0.07017915695905685,0.043574895709753036,-0.08337018638849258,0.0010686665773391724,0.0012940168380737305,0.019991934299468994
0.03949762135744095,0.006347061600536108,-0.06554631888866425,0.018839314579963684,-0.005163788795471191,0.050045013427734375
-0.04317786172032356,-0.007991738617420197,-0.058018606156110764,0.022780656814575195,-0.00859302282333374,0.06515645980834961
-0.08430234342813492,0.0038303746841847897,-0.024136662483215332,0.02926906943321228,-0.005609273910522461,0.05049937963485718
-0.08008342981338501,-0.005167951807379723,0.00087330536916852,0.03137332201004028,0.00045630335807800293,0.023704171180725098
-0.04833896830677986,-0.0030796914361417294,0.02413203753530979,0.02795371413230896,0.002940922975540161,0.00033605098724365234
-0.00872673187404871,-0.0021629161201417446,0.03553863614797592,0.024526134133338928,-0.00044530630111694336,-0.015662789344787598
0.009007536806166172,-0.017738718539476395,0.03225912153720856,0.01704511046409607,-0.010102391242980957,-0.01586848497390747
-0.008252423256635666,-0.023777397349476814,0.0004885061644017696,0.005594782531261444,-0.012611299753189087,-0.009534299373626709
-0.040400393307209015,0.008232809603214264,-0.02972637489438057,-0.017475292086601257,-0.018750518560409546,-0.0069408416748046875
-0.04435834288597107,0.035202756524086,-0.04296976700425148,-0.023133397102355957,-0.0047716498374938965,-0.021583914756774902
-0.01339250523597002,0.06286048144102097,-0.057432375848293304,-0.03254444897174835,0.0028507113456726074,-0.033299386501312256
-0.014836360700428486,0.07405360043048859,-0.07793470472097397,-0.03313368558883667,0.014403104782104492,-0.02361208200454712
-0.04608052223920822,0.0632937029004097,-0.06958865374326706,-0.017984390258789062,0.006581544876098633,0.0036853551864624023
-0.055932749062776566,0.051748327910900116,-0.038902293890714645,0.004020944237709045,0.01677614450454712,0.011654257774353027
-0.03100694715976715,0.03201453387737274,-0.010559210553765297,0.006111010909080505,0.013866424560546875,0.010093629360198975
-0.024483773857355118,-0.03092513233423233,0.023339170962572098,0.01919633150100708,0.01930844783782959,0.019242405891418457
-0.037136733531951904,-0.03604475408792496,0.056298285722732544,0.016635671257972717,0.012350857257843018,0.025532901287078857
-0.05121638625860214,-0.041353803128004074,0.09618057310581207,0.019820861518383026,0.01203206181526184,0.021049439907073975
-0.046492598950862885,-0.04397595301270485,0.09672368317842484,0.014906398952007294,0.0014668405055999756,0.016762256622314453
-0.06463474035263062,-0.07471568137407303,0.06556497514247894,-0.0034353509545326233,-0.014719903469085693,0.017417967319488525
-0.08342736214399338,-0.04282558336853981,0.03504534810781479,-0.004604071378707886,-0.01664113998413086,0.005478918552398682
-0.09937724471092224,-0.011193809099495411,0.028501568362116814,-0.010119646787643433,-0.016164839267730713,-0.013329744338989258
-0.08824388682842255,-0.00845931377261877,0.04016132652759552,0.004318892955780029,-0.009388089179992676,-0.027711451053619385
-0.05962768569588661,-0.006928262300789356,0.02829054929316044,-0.010099545121192932,-0.011587560176849365,-0.05060863494873047
-0.02845235913991928,0.01660114713013172,-0.005238271318376064,-0.028234809637069702,-0.0029871463775634766,-0.06491494178771973
0.03392272815108299,0.04413081333041191,-0.02198990434408188,-0.03623051941394806,-0.0007447600364685059,-0.07330560684204102
0.08708758652210236,0.04271173104643822,-0.02174687199294567,-0.02313651144504547,0.00818943977355957,-0.05981457233428955
0.10060141235589981,0.03694404289126396,-0.040164243429899216,-0.02483963966369629,0.007151514291763306,-0.028329670429229736
0.08508995920419693,0.03491688519716263,-0.041510555893182755,-0.01633426547050476,0.003023684024810791,0.002059042453765869
0.04184584319591522,0.03249591961503029,-0.030374739319086075,-0.0011833906173706055,0.006653398275375366,0.0317116379737854
0.013489918783307076,0.034542519599199295,-0.013318583369255066,0.008619546890258789,0.011099278926849365,0.04069238901138306
-0.008993847295641899,0.03653893992304802,-0.026379326358437538,0.004862338304519653,0.010538488626480103,0.04177910089492798
-0.0438261553645134,0.0038285115733742714,-0.014032715931534767,0.016673199832439423,0.0029808878898620605,0.04429197311401367
-0.07986889034509659,-0.014997264370322227,-0.010325031355023384,0.02755749225616455,0.00020834803581237793,0.037150025367736816
-0.0857735201716423,-0.0150864003226161,0.006623237393796444,0.01928393542766571,0.0009580254554748535,0.008814513683319092
-0.07499518990516663,-0.016680531203746796,0.01608102023601532,0.014849558472633362,0.005475938320159912,-0.013670384883880615
-0.03901622071862221,-0.0026248604990541935,0.02694001793861389,-0.0008965060114860535,0.009418904781341553,-0.039595842361450195
0.010456591844558716,0.00343805318698287,0.012025026604533195,-0.012738116085529327,0.007141232490539551,-0.05133509635925293
-0.0014754352159798145,-0.003867757972329855,-0.011208124458789825,-0.02770952135324478,0.000479966402053833,-0.033313095569610596
-0.01515655405819416,0.03760876506567001,-0.02092861756682396,-0.02446218580007553,-0.002399265766143799,-0.02735680341720581
-0.0003297850489616394,0.05952681601047516,-0.026045631617307663,-0.029851891100406647,-0.0021430253982543945,-0.03767383098602295
0.046373605728149414,0.0383107028901577,-0.012949761934578419,-0.015859544277191162,-0.0005186796188354492,-0.03031134605407715
0.09076172858476639,-0.016201883554458618,-0.0005194719415158033,-0.006876423954963684,0.004246950149536133,-0.017212510108947754
0.0782162994146347,-0.036139827221632004,-0.023201026022434235,-0.00855913758277893,0.0008066296577453613,0.006087541580200195
0.019505271688103676,-0.008857723325490952,-0.04017172381281853,-0.015829704701900482,-0.006838172674179077,0.01924079656600952
-0.01626439020037651,0.00282723898999393,-0.012171110138297081,0.011351995170116425,-0.0036939680576324463,0.021642327308654785
0.013455523177981377,-0.020021503791213036,0.015878213569521904,0.02375812828540802,0.005163103342056274,0.00371474027633667
0.04639439657330513,-0.046302489936351776,0.006550869904458523,0.011890873312950134,0.00657382607460022,-0.0036554932594299316
0.040568772703409195,-0.048581283539533615,0.009995907545089722,0.009872689843177795,0.004731178283691406,0.004790544509887695
-0.002645094646140933,-0.010038606822490692,0.028249535709619522,0.021502986550331116,0.004822731018066406,0.012924671173095703
-0.03274206817150116,0.005111013539135456,0.017099006101489067,0.017788097262382507,0.0012794137001037598,0.014426946640014648
-0.025035129860043526,0.017206745222210884,0.008296896703541279,0.007300376892089844,-0.0034709274768829346,-0.0026593804359436035
-0.016411982476711273,0.03976041078567505,0.013631585985422134,0.008628733456134796,0.0031299591064453125,-0.01266169548034668
0.014787690714001656,0.01130210142582655,0.020487487316131592,0.01022280752658844,0.0034582018852233887,-0.011443793773651123
0.00985419936478138,-0.004134722985327244,0.00344742089509964,0.0017748773097991943,-0.001989394426345825,-0.004494428634643555
0.003299879841506481,0.00862535834312439,0.0003428037744015455,-0.007938966155052185,-0.007673144340515137,-0.005233705043792725
-0.021129325032234192,0.02954540215432644,-0.0031840908341109753,-0.009341351687908173,-0.0014869272708892822,-0.007379591464996338
-0.019104762002825737,0.032187409698963165,0.006118667311966419,-0.007066197693347931,0.0019195973873138428,-0.014780223369598389
0.021508948877453804,0.04337386414408684,0.0008260970935225487,-0.013253718614578247,0.006514757871627808,-0.028855621814727783
0.07291197776794434,0.010317531414330006,0.008409518748521805,-0.013580359518527985,0.00857633352279663,-0.0286065936088562
0.0798930898308754,-0.010460338555276394,0.015655603259801865,-0.004081279039382935,0.0077717602252960205,0.0004830360412597656
0.053086135536432266,-0.0013140534283593297,0.023436544463038445,-0.0028678476810455322,0.003584831953048706,0.019937098026275635
-0.018658246845006943,0.0149235799908638,0.012843570671975613,0.001506522297859192,-0.0047457218170166016,0.04185694456100464
-0.06769407540559769,0.01882450468838215,0.010722348466515541,-0.003966093063354492,-0.011202394962310791,0.04299020767211914
-0.06575681269168854,-0.02035599760711193,0.025765422731637955,0.009839087724685669,-0.0034247934818267822,0.032588064670562744
-0.03386388719081879,-0.029908908531069756,0.028969136998057365,0.007886171340942383,0.00021278858184814453,0.0029181838035583496
-0.025228600949048996,-0.04983433708548546,0.030759410932660103,0.004562973976135254,-0.0005756616592407227,0.00018286705017089844
-0.026894114911556244,-0.033468034118413925,0.039136722683906555,0.0066864341497421265,0.003848940134048462,-0.0018489956855773926
-0.02614692971110344,0.006005265284329653,0.03809105232357979,0.0017814040184020996,0.0009485185146331787,-0.013445675373077393
-0.030171891674399376,0.006147173698991537,0.02579239010810852,-0.007781326770782471,-0.005031019449234009,-0.009760797023773193
-0.013604339212179184,-0.0027782584074884653,0.01435231976211071,-0.010585486888885498,-0.009709388017654419,-0.008800089359283447
-0.008165364153683186,-0.007443890441209078,-0.009365524165332317,-0.016720712184906006,-0.011087119579315186,-0.009832143783569336
-0.014511494897305965,-0.0034727740567177534,-0.020510531961917877,-0.01991085708141327,-0.00869441032409668,-0.005292296409606934
-0.03191690519452095,0.011291220784187317,-0.038476355373859406,-0.01960490643978119,-0.0026758313179016113,-0.0011904239654541016
-0.03664834797382355,0.020358484238386154,-0.034240905195474625,-0.01446148008108139,0.0035736560821533203,0.0006071329116821289
-0.010523846372961998,0.02099117636680603,-0.014932694844901562,-0.0018677040934562683,0.0083237886428833,-0.00571054220199585
0.011620912700891495,0.007283427752554417,-0.004962379112839699,0.0009204000234603882,0.007174968719482422,-0.00472259521484375
-0.0016302631702274084,-0.010999588295817375,0.0022654933854937553,0.0028801187872886658,0.0007466971874237061,0.009057700634002686
-0.03490874543786049,-0.008243140764534473,-0.0015460087452083826,0.003007441759109497,-0.0019494891166687012,0.017873644828796387
-0.051266930997371674,-0.000256664352491498,-0.011350800283253193,0.0019179731607437134,-0.007441878318786621,0.012319207191467285
-0.04896282032132149,0.0021990370005369186,-0.01285083219408989,0.0003089532256126404,-0.008842229843139648,0.0034134984016418457
-0.03458800166845322,-0.008490702137351036,-0.01258869282901287,0.00550571084022522,-0.0029341578483581543,-0.009637296199798584
-0.02809825725853443,0.004226615186780691,-0.01900133304297924,0.0016614124178886414,-0.004591435194015503,-0.01358705759048462
-0.002444319659844041,-0.0008969259797595441,0.005696485750377178,0.012213289737701416,0.0006844103336334229,-0.021356403827667236
0.01642015390098095,-0.017973799258470535,0.018284112215042114,0.012559235095977783,0.0019788742065429688,-0.01677536964416504
0.013683979399502277,-0.011384455487132072,0.005564885213971138,-0.002301357686519623,-0.003218322992324829,-0.013162970542907715
-0.010268112644553185,0.026356607675552368,-0.0087421340867877,-0.01587817817926407,-0.008325785398483276,-0.005715906620025635
-0.008702173829078674,0.023920878767967224,-0.007307223044335842,-0.0034872666001319885,-0.005291551351547241,-0.009111762046813965
0.001277321483939886,0.005642959848046303,-0.014231862500309944,-0.004049047827720642,-0.008503943681716919,-0.0033062100410461426
0.02024087682366371,-0.018773088231682777,-0.008739529177546501,-0.002349480986595154,-0.0035802721977233887,-0.011126279830932617
0.020752107724547386,-0.0016416601138189435,-0.008719934150576591,-0.0011479780077934265,-0.0020377933979034424,-0.008132100105285645
0.01738295704126358,0.011788050644099712,-0.0072193387895822525,-0.006874874234199524,0.0014805793762207031,-0.008970499038696289
0.025096381083130836,0.012788716703653336,-0.009930158033967018,-0.004332110285758972,0.0036599338054656982,0.0032604336738586426
0.05004676803946495,-0.005777666810899973,-0.01933157630264759,-0.010064907371997833,0.0008757114410400391,0.0038608908653259277
0.013658160343766212,-0.061373356729745865,-0.017145851626992226,0.009855233132839203,-0.0038551688194274902,0.03849899768829346
-0.042284607887268066,-0.04932788014411926,-0.018847694620490074,0.005793049931526184,-0.005001693964004517,0.03859609365463257
-0.09054594486951828,-0.006502613425254822,-0.011665992438793182,6.538629531860352e-05,-0.0046500563621521,0.02152496576309204
-0.05003279447555542,0.025987299159169197,-0.00014973431825637817,0.0022532716393470764,0.006356596946716309,-0.015041708946228027
-0.012217337265610695,-0.012914630584418774,-0.004885219968855381,-0.0023705214262008667,0.0025311708450317383,-0.023174405097961426
0.019749358296394348,-0.045389942824840546,0.00680598895996809,0.00975007563829422,0.003494441509246826,-0.0133017897605896
-0.018412817269563675,-0.04662557318806648,0.0064074937254190445,0.0075679197907447815,-0.0015908479690551758,0.004087686538696289
-0.04827191308140755,-0.015431470237672329,0.028144747018814087,0.008353650569915771,-0.003199458122253418,0.0068625807762146
-0.038891881704330444,-0.01822078973054886,0.028537312522530556,0.0019360184669494629,-0.0018248558044433594,-0.013120710849761963
0.025290708988904953,-0.028874006122350693,0.029028750956058502,-0.0027084723114967346,0.0011607110500335693,-0.03440052270889282
0.06745785474777222,-0.006677279248833656,0.018871549516916275,-0.010877594351768494,-0.0011459290981292725,-0.03849291801452637
0.07038088142871857,0.006514076143503189,0.008952472358942032,-0.007538296282291412,-0.0050459206104278564,-0.016318678855895996
0.013122949749231339,-0.0036014802753925323,-0.007826177403330803,0.004246257245540619,-0.010239779949188232,0.019724249839782715
-0.026674937456846237,0.007022665347903967,-0.02942875400185585,0.0033078938722610474,-0.01438283920288086,0.024276316165924072
-0.042791493237018585,0.017371635884046555,-0.019458036869764328,0.008559241890907288,-0.007777750492095947,0.007874250411987305
-0.023852743208408356,0.010458258911967278,0.0014218055875971913,0.016487643122673035,0.0030069053173065186,-0.011915862560272217
0.011407369747757912,0.003721032990142703,0.0016973575111478567,0.004797540605068207,0.006850332021713257,-0.024989604949951172
0.04757238179445267,0.005191820207983255,0.001644305419176817,-0.005323641002178192,0.006772071123123169,-0.028963923454284668
0.05313405767083168,0.0025158743374049664,0.014159257523715496,-0.0007630288600921631,0.008355498313903809,-0.01495271921157837
0.05056602880358696,0.021177789196372032,0.02206898294389248,-0.005800195038318634,0.005573004484176636,-0.0041103363037109375
0.056111570447683334,0.024022875353693962,0.016778860241174698,-0.011721648275852203,0.003764629364013672,0.003941059112548828
0.03921155631542206,-0.006433031056076288,0.01334718894213438,-0.006104715168476105,-0.0015837550163269043,0.02086341381072998
-0.004735717549920082,-0.009467740543186665,-0.010362807661294937,-0.007667921483516693,-0.0049301981925964355,0.03262603282928467
-0.033590298146009445,0.009238682687282562,-0.01590518280863762,-0.005658850073814392,-0.006268173456192017,0.02537006139755249
-0.03606412187218666,0.006114606745541096,-0.00833132304251194,0.0044184401631355286,0.001952141523361206,0.01123720407485962
-0.018878012895584106,0.0039574452675879,-0.0038010599091649055,0.004877954721450806,0.0066329240798950195,-0.001797020435333252
-0.02682872675359249,-0.0020161005668342113,-0.01111464761197567,0.0010564550757408142,0.005107402801513672,-0.00406038761138916
-0.026572110131382942,0.0189152043312788,-0.004079389851540327,0.004759006202220917,0.0070600807666778564,-0.008714675903320312
-0.018922826275229454,0.02149173617362976,0.012019405141472816,0.008483439683914185,0.007779926061630249,-0.013346672058105469
0.002393465954810381,0.0009227363625541329,0.023425666615366936,0.010876670479774475,0.007528960704803467,-0.00958561897277832
0.008904797956347466,-0.02173589915037155,0.02740911953151226,0.008020564913749695,0.004784673452377319,-0.004416227340698242
-0.00994829460978508,-0.026522738859057426,0.03962825983762741,0.009759634733200073,0.0004603862762451172,0.0068323612213134766
-0.03261401131749153,-0.0074358307756483555,0.042575109750032425,0.0037591680884361267,-0.00040334463119506836,0.004295647144317627
-0.0254439115524292,0.015340324491262436,0.035566773265600204,-0.010801509022712708,-0.005497455596923828,-0.007634758949279785
0.005978067871183157,0.005026927217841148,0.019095739349722862,-0.01886199414730072,-0.004960775375366211,-0.013343572616577148
0.02541114017367363,-0.02630295231938362,0.015093369409441948,-0.012221075594425201,-0.007203608751296997,-0.004017472267150879
0.004626892041414976,-0.017316875979304314,-0.0076458510011434555,-0.015013456344604492,-0.011739253997802734,0.00790935754776001
-0.03852708265185356,0.00794233288615942,-0.02383122593164444,-0.016831688582897186,-0.014208972454071045,0.013480305671691895
-0.05717066675424576,0.016631122678518295,-0.026715878397226334,-0.007869057357311249,-0.009296208620071411,0.012093842029571533
-0.043783754110336304,0.012558838352560997,-0.03577141463756561,-0.004302032291889191,-0.0050244927406311035,0.00019633769989013672
-0.01628178171813488,-0.0005802811356261373,-0.035086482763290405,-0.0007761865854263306,0.002100825309753418,-0.008425474166870117
-0.02563915029168129,-0.02449534833431244,-0.028229594230651855,0.009601891040802002,0.0034988224506378174,-0.0006836652755737305
-0.041279979050159454,-0.003614224959164858,-0.018883707001805305,0.010321341454982758,0.00474122166633606,-0.0023120641708374023
-0.03402106836438179,0.017252441495656967,0.003878556890413165,0.010962605476379395,0.00773349404335022,-0.015022993087768555
-0.0050374530255794525,-0.02077343687415123,0.016738060861825943,0.015586532652378082,0.007539570331573486,-0.015278279781341553
-0.006198451388627291,-0.0546397864818573,0.015491245314478874,0.003470383584499359,0.0023052096366882324,-0.009006023406982422
-0.009943192824721336,-0.030477194115519524,0.022322747856378555,-0.0027083978056907654,0.0039032399654388428,-0.013421356678009033
0.02138630487024784,0.015023668296635151,0.0217579398304224,-0.018216334283351898,0.0055498480796813965,-0.0324549674987793
0.053493306040763855,0.0020336112938821316,0.005784250795841217,-0.021022215485572815,0.0026812851428985596,-0.02214115858078003
0.05523098632693291,-0.03300042450428009,-0.01923222281038761,-0.021057233214378357,-0.006338745355606079,0.008031249046325684
0.005198644008487463,-0.030656801536679268,-0.04728094860911369,-0.013159357011318207,-0.013481885194778442,0.036549508571624756
-0.0680251345038414,-0.006679985206574202,-0.05342660844326019,-0.00533488392829895,-0.01595321297645569,0.04979097843170166
-0.12117014080286026,0.009245832450687885,-0.04533199965953827,0.013354755938053131,-0.01028376817703247,0.04550403356552124
-0.11781802028417587,0.0001655183732509613,-0.03654276952147484,0.015423819422721863,-0.0039629340171813965,0.014821112155914307
-0.06436531990766525,-0.028601108118891716,-0.022710133343935013,0.020419254899024963,0.004014134407043457,-0.014614284038543701
-0.03387400880455971,-0.025671863928437233,-0.006775271613150835,0.015104137361049652,0.0077919065952301025,-0.03593510389328003
-0.015851667150855064,-0.02554026059806347,0.003638440277427435,0.011086411774158478,0.007337689399719238,-0.029462099075317383
-0.007197248749434948,-0.006271262653172016,0.01205442100763321,0.004189148545265198,0.0053681135177612305,-0.033425092697143555
0.006229595746845007,0.008820326998829842,-0.007591338828206062,-0.008995257318019867,0.00025597214698791504,-0.028884291648864746
0.02168683335185051,-0.002610327210277319,-0.0028473695274442434,-0.00953405350446701,0.00028324127197265625,-0.020228266716003418
0.031058482825756073,-0.0018883065786212683,-0.003201205050572753,-0.006627127528190613,0.0036493539810180664,-0.008765757083892822
0.016768481582403183,0.010550779290497303,-0.01013996358960867,-0.011197291314601898,-0.0002040863037109375,0.00840604305267334
-0.016677863895893097,-0.00576093140989542,-0.01445101760327816,-0.004120625555515289,-0.004763752222061157,0.028152823448181152
-0.0480458103120327,-0.013838366605341434,-0.011479627341032028,0.0033970996737480164,-0.008793920278549194,0.03302872180938721
-0.055529095232486725,-0.012026620097458363,-0.009724111296236515,0.0011434033513069153,-0.00663408637046814,0.015592336654663086
-0.04990573227405548,-0.03618590906262398,-0.011729087680578232,-0.0038887187838554382,-0.007304102182388306,0.011570394039154053
-0.04546966403722763,-0.03197183087468147,-0.0176546573638916,-0.005919300019741058,-0.0032860636711120605,0.0015195608139038086
-0.03573206812143326,-0.016390550881624222,-0.013980123214423656,-0.006187885999679565,-0.002108752727508545,-0.008499562740325928
-0.03394893929362297,-0.009324470534920692,-0.018647752702236176,0.0032845139503479004,-0.0038717985153198242,-0.005997836589813232
-0.04710965231060982,-0.025157030671834946,-0.023247994482517242,0.013714790344238281,-0.006592661142349243,0.005128800868988037
-0.0577063262462616,-0.0028535621240735054,-0.014522960409522057,0.010206811130046844,-0.0018326938152313232,-0.0022762417793273926
-0.03614373505115509,0.0011916756629943848,0.0020328050013631582,0.013188451528549194,0.0055480897426605225,-0.016745567321777344
0.0009983628988265991,-0.0056933569721877575,0.01190634910017252,0.013347364962100983,0.008637011051177979,-0.027403831481933594
0.012393580749630928,-0.004690487403422594,0.0038518295623362064,0.004174269735813141,0.006593853235244751,-0.02436375617980957
-0.004952177405357361,-0.01087221410125494,-0.0012722357641905546,-0.0012406781315803528,-0.00012058019638061523,-0.011218786239624023
-0.02585151419043541,0.004591313190758228,0.00758112408220768,0.007033348083496094,0.0015693306922912598,-0.006439268589019775
-0.008213385008275509,0.016988247632980347,0.011156590655446053,-0.007130317389965057,0.000370025634765625,-0.022120654582977295
0.053629953414201736,0.020029541105031967,0.008696488104760647,-0.017513297498226166,0.0014380216598510742,-0.03375685214996338
0.12403052300214767,0.03172355890274048,-0.029535263776779175,-0.04141766577959061,-0.0024183690547943115,-0.03853762149810791
0.1653345227241516,0.05025322735309601,-0.0845702663064003,-0.04787614941596985,-0.013274550437927246,-0.00984489917755127
0.07497615367174149,0.004905028734356165,-0.14638720452785492,-0.030015766620635986,-0.030400454998016357,0.06600654125213623
-0.07345473766326904,0.012389617040753365,-0.17646265029907227,-0.005972899496555328,-0.02234014868736267,0.11627435684204102
-0.20483139157295227,0.07110878080129623,-0.18884404003620148,0.014100000262260437,-0.01854550838470459,0.09918373823165894
-0.2213255614042282,0.07880037277936935,-0.17193908989429474,0.009422361850738525,0.004556596279144287,0.04584312438964844
-0.1686955988407135,0.0029911668971180916,-0.09668216854333878,0.04978328198194504,0.034295231103897095,0.01715487241744995
-0.0990670695900917,-0.02465316653251648,-0.054426804184913635,0.04151039570569992,0.0487610399723053,-0.025958240032196045
-0.05983509123325348,-0.0035383254289627075,-0.011901471763849258,0.015503637492656708,0.040245622396469116,-0.03999924659729004
-0.03259144350886345,0.006488283164799213,0.012421419844031334,0.0011157020926475525,0.030505716800689697,-0.0362434983253479
0.0010621808469295502,-0.005945758428424597,-0.012539970688521862,-0.023078426718711853,0.009479761123657227,-0.031341493129730225
0.011325022205710411,-0.021738290786743164,-0.07603965699672699,-0.0399508997797966,-0.01423671841621399,-0.01940375566482544
-0.02422133833169937,-0.038793716579675674,-0.11631429940462112,-0.029958955943584442,-0.02117335796356201,0.00044804811477661133
-0.11138409376144409,-0.03192370757460594,-0.16146446764469147,-0.020368367433547974,-0.02080017328262329,0.013372957706451416
-0.15477420389652252,0.013759206049144268,-0.17911064624786377,-0.02015051245689392,-0.016355454921722412,-0.00641024112701416
-0.10803129523992538,0.033304788172245026,-0.1814199835062027,-0.013681933283805847,0.0002245008945465088,-0.04874342679977417
-0.01718522422015667,0.023468218743801117,-0.18821942806243896,-0.005044087767601013,0.009196639060974121,-0.071799635887146
0.037568651139736176,0.010211413726210594,-0.19300676882266998,-0.005127139389514923,0.010127872228622437,-0.055181026458740234
0.04897813871502876,0.0366533026099205,-0.16660001873970032,0.015826597809791565,0.017825037240982056,-0.03162264823913574
0.03786793351173401,0.0731690376996994,-0.16285912692546844,0.02206842601299286,0.012929558753967285,-0.011563301086425781
0.03636664152145386,0.0683993548154831,-0.14954151213169098,0.026186048984527588,0.011964589357376099,0.0027706027030944824
0.04695935174822807,0.03074100986123085,-0.12120884656906128,0.034724265336990356,0.01993444561958313,0.010907351970672607
0.09293189644813538,0.019933102652430534,-0.07385864108800888,0.0412120521068573,0.027744293212890625,-0.0019094347953796387
0.12448106706142426,0.00820198468863964,-0.05308244004845619,0.02576461434364319,0.018880069255828857,-0.011404335498809814
0.1087527647614479,-0.008667727001011372,-0.06250457465648651,0.005708560347557068,0.006181150674819946,0.0013965964317321777
0.06174618750810623,-0.013463092036545277,-0.08542592078447342,-0.006771072745323181,-0.0006546974182128906,0.007857859134674072
0.004161749966442585,-0.014849693514406681,-0.09951423108577728,0.0013630092144012451,-0.001958191394805908,0.006067097187042236
-0.04816088452935219,-0.032660987228155136,-0.07559582591056824,0.0295400470495224,0.004554033279418945,0.0021741390228271484
-0.055359743535518646,-0.022685054689645767,-0.02932184375822544,0.04915937781333923,0.015375226736068726,-0.025326251983642578
0.036469340324401855,-0.007570927031338215,0.04489310830831528,0.052538782358169556,0.03436321020126343,-0.06769096851348877
0.09876738488674164,-0.025685099884867668,0.11562664061784744,0.05344994366168976,0.04246234893798828,-0.05719047784805298
0.09170960634946823,-0.04558347910642624,0.16506831347942352,0.04027223587036133,0.029558807611465454,-0.009266078472137451
0.07502881437540054,-0.021308956667780876,0.2291450798511505,0.03225621581077576,0.02140110731124878,0.011065542697906494
0.0732865035533905,-0.011546874418854713,0.270433634519577,0.021871626377105713,0.012216329574584961,0.02492457628250122
0.07826834172010422,-0.031429778784513474,0.2784059941768646,0.002923622727394104,0.0009284913539886475,0.03778970241546631
0.06958454847335815,-0.05273357406258583,0.26188924908638,-0.004263013601303101,-0.012537062168121338,0.05136919021606445
0.02477685920894146,-0.06507758796215057,0.21743817627429962,-0.019775331020355225,-0.0318354070186615,0.06483203172683716
-0.052626390010118484,-0.06001488119363785,0.1667025089263916,-0.02032230794429779,-0.047262340784072876,0.07741749286651611
-0.11889318376779556,-0.04004886373877525,0.1112336739897728,-0.02237890660762787,-0.05358251929283142,0.06593948602676392
-0.12652666866779327,-0.041203081607818604,0.06392470747232437,-0.018962189555168152,-0.0478610098361969,0.030906975269317627
-0.09032516181468964,-0.08645078539848328,0.0503418892621994,0.004411324858665466,-0.03569844365119934,-0.006623208522796631
-0.07987763732671738,-0.144170880317688,0.025712575763463974,0.01542549580335617,-0.0268973708152771,-0.03003370761871338
-0.13134336471557617,-0.169902041554451,-0.004481898155063391,-0.001569010317325592,-0.020190805196762085,-0.045449018478393555
-0.17796091735363007,-0.1131320595741272,-0.004892117343842983,-0.012705057859420776,-0.006936967372894287,-0.0945175290107727
-0.12249688804149628,0.020232774317264557,0.019514618441462517,-0.03208065778017044,0.02166140079498291,-0.16988134384155273
0.09893567115068436,0.09218644350767136,0.0412832647562027,-0.0654556006193161,0.05070909857749939,-0.21450161933898926
0.37513697147369385,0.01474468782544136,0.01044959295541048,-0.08849688619375229,0.05465295910835266,-0.17983967065811157
0.4960428476333618,-0.06795453280210495,-0.01914145238697529,-0.0871129110455513,0.039252400398254395,-0.048702239990234375
0.4497480094432831,-0.0997280552983284,-0.08249051868915558,-0.0763104185461998,0.016836941242218018,0.09563326835632324
0.27706968784332275,-0.11548080295324326,-0.1435299664735794,-0.06022408604621887,-0.005417943000793457,0.2068415880203247
0.018321692943572998,-0.12024128437042236,-0.15156060457229614,-0.004811152815818787,-0.028881847858428955,0.26944589614868164
-0.265652060508728,-0.1165149137377739,-0.14845556020736694,0.028967268764972687,-0.025870174169540405,0.2820358872413635
-0.46231573820114136,-0.1326347142457962,-0.1415620595216751,0.04293125122785568,-0.020096540451049805,0.2333332896232605
-0.5242717266082764,-0.112213633954525,-0.09940671920776367,0.05942689627408981,0.0035590827465057373,0.1281135082244873
-0.5521731376647949,-0.07614743709564209,-0.03179627284407616,0.07346352189779282,0.022892028093338013,0.037982285022735596
-0.5955489277839661,-0.07104093581438065,0.050960276275873184,0.07152639329433441,0.036655545234680176,-0.018298566341400146
-0.5645543336868286,-0.05213269218802452,0.12024923413991928,0.0612800195813179,0.04501140117645264,-0.10364443063735962
-0.3769577443599701,0.03693113848567009,0.19714246690273285,0.041049569845199585,0.05189836025238037,-0.2130548357963562
-0.05027215555310249,0.05853542685508728,0.25177159905433655,0.028340362012386322,0.06365486979484558,-0.27909862995147705
0.17710945010185242,-0.04602685943245888,0.2806674540042877,0.02627067267894745,0.04643732309341431,-0.23743075132369995
0.23860323429107666,-0.054255008697509766,0.2741166353225708,0.00814705342054367,0.02052333950996399,-0.1477874517440796
0.19173502922058105,0.05282814800739288,0.25972992181777954,-0.011900611221790314,0.00023680925369262695,-0.07793068885803223
0.1602054387331009,0.12677741050720215,0.23798583447933197,-0.020802654325962067,-0.011487722396850586,-0.03127121925354004
0.13478809595108032,0.13152821362018585,0.19586893916130066,-0.027296245098114014,-0.017821848392486572,0.010061919689178467
0.1312243938446045,0.09540080279111862,0.16016028821468353,-0.03481671214103699,-0.019180238246917725,0.036348819732666016
0.10488821566104889,0.08763277530670166,0.10967565327882767,-0.03813944756984711,-0.02139607071876526,0.05243736505508423
0.07567337900400162,0.09540186822414398,0.0687689334154129,-0.04330773651599884,-0.026227176189422607,0.055777132511138916
0.010681461542844772,0.0920577347278595,0.03508519381284714,-0.04098714888095856,-0.02269601821899414,0.06642323732376099
-0.059519506990909576,0.09497649222612381,0.0118789654225111,-0.03514625132083893,-0.019014596939086914,0.06496083736419678
-0.07217028737068176,0.09273207932710648,-0.008995073847472668,-0.03664736449718475,-0.012051284313201904,0.033706605434417725
-0.04253557324409485,0.09202717989683151,-0.03975041210651398,-0.043775416910648346,-0.005934983491897583,-0.009449958801269531
0.0032867747358977795,0.09527330845594406,-0.08027280122041702,-0.055037662386894226,-0.002716362476348877,-0.033655405044555664
0.04468657821416855,0.09954331070184708,-0.11541866511106491,-0.054641060531139374,0.0028496384620666504,-0.03202086687088013
0.009852265939116478,0.07547696679830551,-0.15012778341770172,-0.04205923527479172,0.0032420754432678223,-0.0007416009902954102
-0.03889993950724602,0.09235414862632751,-0.1662527173757553,-0.031132079660892487,0.008810192346572876,0.023443937301635742
-0.08461510390043259,0.07149337977170944,-0.1581200361251831,-0.012227542698383331,0.017276883125305176,0.025675833225250244
-0.09959311038255692,0.030700944364070892,-0.11955711990594864,0.006342113018035889,0.021807372570037842,0.015932321548461914
-0.0788724347949028,0.017860880121588707,-0.08454263210296631,0.013209186494350433,0.025828123092651367,-0.013602852821350098
-0.03803785890340805,0.021742522716522217,-0.06760373711585999,-0.004915021359920502,0.018986403942108154,-0.04055070877075195
0.002142414916306734,0.012244467623531818,-0.08573068678379059,-0.026408635079860687,0.0012682676315307617,-0.04339134693145752
0.010214470326900482,0.011343486607074738,-0.12268827110528946,-0.03565353900194168,-0.01579529047012329,-0.03161734342575073
-0.019976314157247543,0.01692196913063526,-0.1664375364780426,-0.03938761353492737,-0.02770233154296875,-0.013013839721679688
-0.03100680559873581,0.04951297491788864,-0.17382659018039703,-0.03674408048391342,-0.021041005849838257,-0.007888376712799072
-0.0036699343472719193,0.0421360544860363,-0.17234361171722412,-0.020152099430561066,-0.00715145468711853,-0.011817872524261475
0.026652159169316292,0.0009635424939915538,-0.15766045451164246,-0.0038035735487937927,0.0022970736026763916,-0.0018734931945800781
0.03257498890161514,-0.023590873926877975,-0.14376644790172577,-0.0015586093068122864,0.0048944950103759766,0.015094757080078125
0.03322114050388336,-0.014949976466596127,-0.10565099120140076,0.009279094636440277,0.012666702270507812,0.021797895431518555
0.029857665300369263,-0.03657868504524231,-0.07662774622440338,0.014647379517555237,0.012417852878570557,0.02951526641845703
0.0321836993098259,-0.07311870157718658,-0.06679928302764893,0.009158678352832794,0.009996503591537476,0.036514341831207275
0.02074340172111988,-0.11209723353385925,-0.07416129857301712,0.0036233514547348022,0.00870811939239502,0.03316372632980347
-0.024279633536934853,-0.12022583931684494,-0.06840662658214569,0.0055963099002838135,7.87973403930664e-05,0.024765372276306152
-0.01700975000858307,-0.08046796172857285,-0.08598260581493378,-0.005451038479804993,0.00349271297454834,-0.005855202674865723
-0.008425386622548103,-0.09106308221817017,-0.10344072431325912,-0.006491057574748993,-6.702542304992676e-05,-0.02230590581893921
-0.018014561384916306,-0.11533539742231369,-0.1094980463385582,0.010591655969619751,0.001412421464920044,-0.01677793264389038
-0.023451978340744972,-0.09560096263885498,-0.11846993863582611,0.008065670728683472,0.0030541419982910156,-0.02666449546813965
0.00598576245829463,-0.05714184045791626,-0.12053518742322922,-0.002984441816806793,0.009803295135498047,-0.04191482067108154
0.05441189929842949,-0.055692579597234726,-0.11873631924390793,-9.995698928833008e-05,0.012958556413650513,-0.051444053649902344
0.07811649888753891,-0.05439987778663635,-0.13203611969947815,-0.004521951079368591,0.003014504909515381,-0.03822749853134155
0.08137162029743195,-0.04855960234999657,-0.16748584806919098,-0.014525488018989563,-0.0039948225021362305,-0.025446772575378418
0.07132336497306824,-0.0535050667822361,-0.1788114458322525,-0.010216325521469116,-0.003014504909515381,-0.009585976600646973
0.06741839647293091,-0.07104182988405228,-0.1873774379491806,-0.0018053054809570312,0.005490660667419434,-0.007133841514587402
0.103805311024189,-0.07526799291372299,-0.17875590920448303,0.013023503124713898,0.017681926488876343,-0.018145203590393066
0.1471678465604782,-0.07859094440937042,-0.14310656487941742,0.05066671222448349,0.033664435148239136,-0.02607494592666626
0.17478150129318237,0.020666178315877914,-0.11255568265914917,0.04771161079406738,0.03987354040145874,-0.031077206134796143
0.17341257631778717,0.1557677686214447,-0.10907240957021713,0.04773174971342087,0.028929203748703003,-0.013368368148803711
0.0843566358089447,0.176321879029274,-0.10417816042900085,0.08155649900436401,-0.004393398761749268,0.04238253831863403
-0.09062778204679489,0.11378668993711472,-0.058182381093502045,0.11217334121465683,-0.024297326803207397,0.09253257513046265
-0.229208305478096,0.08358385413885117,0.005033962428569794,0.1346198320388794,-0.03853985667228699,0.06642699241638184
-0.27905791997909546,0.09810817241668701,0.08963659405708313,0.1176675483584404,-0.0221080482006073,-0.01767653226852417
-0.24104027450084686,0.12605860829353333,0.189012810587883,0.09262573719024658,0.002761244773864746,-0.10011523962020874
-0.10419114679098129,0.16074202954769135,0.2745572626590729,0.06818047165870667,0.027920275926589966,-0.17143875360488892
0.1456020176410675,0.18055316805839539,0.37892767786979675,0.04718156158924103,0.04234302043914795,-0.22021210193634033
0.46842652559280396,0.0968053936958313,0.4403340816497803,0.02958156168460846,0.04272723197937012,-0.21412628889083862
0.6840798854827881,0.06651695817708969,0.44816678762435913,0.003986194729804993,0.029879719018936157,-0.1514270305633545
0.7372803688049316,0.22774480283260345,0.3886619806289673,-0.03459411859512329,0.007323533296585083,-0.0711907148361206
0.6390621066093445,0.36664658784866333,0.3349493741989136,-0.05276459455490112,-0.017513304948806763,0.004668474197387695
0.5230626463890076,0.3648413419723511,0.3085612952709198,-0.03667140007019043,-0.033172816038131714,0.05872219800949097
0.47010770440101624,0.290229856967926,0.2205551415681839,-0.039790794253349304,-0.02452981472015381,0.050135016441345215
0.4840763807296753,0.29062044620513916,-0.010716059245169163,-0.11876839399337769,-0.03102734684944153,0.002554655075073242
0.49680033326148987,0.29131603240966797,-0.1417582780122757,-0.12173455953598022,-0.0018745362758636475,-0.0210648775100708
0.45689359307289124,0.27562105655670166,-0.2055656909942627,-0.0925537645816803,0.02772003412246704,0.003611326217651367
0.4281463921070099,0.2708328366279602,-0.22992555797100067,-0.08097024261951447,0.050686657428741455,0.020560801029205322
0.41664260625839233,0.23682022094726562,-0.3242732882499695,-0.09967388212680817,0.05263710021972656,0.04804760217666626
0.3667106628417969,0.20333819091320038,-0.40519097447395325,-0.09847328066825867,0.04219287633895874,0.08526611328125
0.1979343295097351,0.17118437588214874,-0.4623565375804901,-0.06402628123760223,0.03698992729187012,0.14545196294784546
6.276695057749748e-05,0.1906522661447525,-0.4477446675300598,-0.03273041546344757,0.0336645245552063,0.16794997453689575
-0.15492117404937744,0.16555526852607727,-0.37135830521583557,0.005194857716560364,0.044180601835250854,0.16118305921554565
-0.21197697520256042,0.0475621335208416,-0.27151110768318176,0.03057008981704712,0.04843127727508545,0.13762903213500977
-0.1958368569612503,-0.12425155192613602,-0.18540862202644348,0.023278817534446716,0.04238325357437134,0.09900552034378052
-0.13152961432933807,-0.24686728417873383,-0.1035020649433136,0.018182575702667236,0.028544068336486816,0.057979702949523926
-0.08542784303426743,-0.28688231110572815,-0.04370703548192978,0.005526438355445862,0.016067445278167725,0.019850432872772217
-0.08365704119205475,-0.26376378536224365,-0.03683760389685631,-0.02773907780647278,-0.00926467776298523,0.003106236457824707
-0.10839476436376572,-0.22731077671051025,-0.07181531190872192,-0.04868850111961365,-0.029500365257263184,-0.007033348083496094
-0.08939627557992935,-0.21800021827220917,-0.12077825516462326,-0.048385024070739746,-0.039155393838882446,-0.02817612886428833
-0.04257018119096756,-0.20893694460391998,-0.16430096328258514,-0.039683520793914795,-0.037710607051849365,-0.05056697130203247
0.014145785011351109,-0.17936725914478302,-0.20877118408679962,-0.028094977140426636,-0.037716686725616455,-0.06558650732040405
0.060300108045339584,-0.1417393833398819,-0.24464310705661774,-0.019399136304855347,-0.03506729006767273,-0.06822365522384644
0.07506878674030304,-0.12768056988716125,-0.27410411834716797,-0.002350538969039917,-0.029378682374954224,-0.05614054203033447
0.1168895736336708,-0.10639674216508865,-0.29681941866874695,0.002922371029853821,-0.019348233938217163,-0.0509876012802124
0.17898324131965637,-0.08462189137935638,-0.3101848363876343,0.01429089903831482,-0.00597420334815979,-0.045411646366119385
0.19147630035877228,-0.08088486641645432,-0.329650342464447,0.01328769326210022,-0.011077135801315308,-0.015300273895263672
0.14614349603652954,-0.05144962668418884,-0.3573709726333618,0.004292309284210205,-0.020206838846206665,0.01810777187347412
0.07483015954494476,-0.04787757992744446,-0.38566383719444275,0.006079241633415222,-0.022322744131088257,0.04313284158706665
0.01633870229125023,-0.023851947858929634,-0.3869728446006775,0.016614079475402832,-0.01854085922241211,0.044764816761016846
-0.013000361621379852,-0.032034967094659805,-0.36778151988983154,0.028455346822738647,-0.00779956579208374,0.036461591720581055
-0.02933972328901291,-0.05254845321178436,-0.32249531149864197,0.039692819118499756,0.0028238296508789062,0.029445886611938477
-0.01848919317126274,-0.06199263408780098,-0.2583784759044647,0.043850332498550415,0.015812426805496216,0.0160486102104187
0.0003972453996539116,-0.039968401193618774,-0.21512143313884735,0.03435671329498291,0.02024155855178833,0.0043274760246276855
0.0113492701202631,-0.05489695072174072,-0.1940116286277771,0.020559385418891907,0.005742520093917847,0.01824289560317993
-0.025154104456305504,-0.06932850182056427,-0.15756843984127045,0.03293713927268982,2.002716064453125e-05,0.034769296646118164
-0.05973278358578682,-0.08206484466791153,-0.10052134841680527,0.05087672173976898,-0.0035528242588043213,0.043523967266082764
-0.086350217461586,-0.09019406139850616,-0.06536749750375748,0.04773840308189392,-0.005856931209564209,0.02999037504196167
-0.08608826994895935,-0.10118326544761658,-0.039895784109830856,0.04289513826370239,-0.00862973928451538,0.007755279541015625
-0.05720386281609535,-0.07899152487516403,-0.015693170949816704,0.033978596329689026,-0.0016706287860870361,-0.020078003406524658
-0.004855799023061991,-0.07390765845775604,0.022514542564749718,0.03098827600479126,0.003989577293395996,-0.0428386926651001
0.03695061802864075,-0.058930233120918274,0.04615064710378647,0.02865879237651825,0.0036911964416503906,-0.04702627658843994
0.07684798538684845,-0.05121961608529091,0.04979401081800461,0.01627109944820404,-0.002328336238861084,-0.043842613697052
0.07733576744794846,-0.0026290668174624443,0.015095580369234085,-0.00862431526184082,-0.014175057411193848,-0.03365373611450195
0.04587150737643242,0.007224174682050943,-0.020935604348778725,-0.010240942239761353,-0.01857578754425049,-0.01650214195251465
0.0117766372859478,0.014303206466138363,-0.02489883080124855,0.0054323673248291016,-0.022667109966278076,-0.008978009223937988
0.006177902687340975,0.008475029841065407,-0.019080819562077522,0.020992040634155273,-0.016236722469329834,-0.018710732460021973
0.01963464543223381,-0.0074440306052565575,0.003647290403023362,0.02668049931526184,-0.013009905815124512,-0.034145891666412354
0.043962255120277405,0.017499564215540886,0.007544967345893383,0.01353214681148529,-0.0032220184803009033,-0.058732688426971436
0.10959295928478241,0.08348938077688217,0.009408185258507729,-0.011711955070495605,0.0049942731857299805,-0.08278107643127441
0.20534557104110718,0.09573007375001907,0.035744186490774155,-0.008892714977264404,0.014915645122528076,-0.08499640226364136
0.2998531758785248,0.06299396604299545,0.06795191764831543,0.003497406840324402,0.018317192792892456,-0.05587935447692871
0.33296817541122437,0.01059376634657383,0.05298643186688423,-0.0027637779712677,0.011453688144683838,-0.010809361934661865
0.2731112241744995,0.012629853561520576,0.027659326791763306,-0.016453221440315247,0.0018920600414276123,0.026468753814697266
0.15253843367099762,0.06047457084059715,0.010141709819436073,-0.02277052402496338,0.004291564226150513,0.04965770244598389
0.0879070907831192,0.10146895051002502,0.01780790276825428,-0.01959271728992462,0.019977718591690063,0.037334144115448
0.1216655746102333,0.07551306486129761,0.025328492745757103,-0.020444869995117188,0.034360021352767944,0.008663058280944824
0.1753358095884323,0.025197885930538177,0.01272209919989109,-0.027655959129333496,0.036047518253326416,-0.0020440220832824707
0.14108936488628387,0.01855565793812275,-0.02187117375433445,-0.033455997705459595,0.02816331386566162,0.024214506149291992
0.06450673937797546,0.06598777323961258,-0.0374724343419075,-0.03655600547790527,0.02207121253013611,0.04305422306060791
0.01694670133292675,0.09005650877952576,-0.050252340734004974,-0.030517175793647766,0.015912234783172607,0.04984825849533081
0.006058732513338327,0.03827975317835808,-0.0764729231595993,-0.01899433135986328,0.0067909955978393555,0.05148947238922119
-0.018061265349388123,-0.011858215555548668,-0.09169570356607437,-0.011532753705978394,0.0012674331665039062,0.05017918348312378
-0.07615616172552109,-0.015249647200107574,-0.09007451683282852,-0.0005350857973098755,0.0024499595165252686,0.040327608585357666
-0.1177954375743866,0.04568391665816307,-0.08540578186511993,-0.0022181570529937744,0.0037899911403656006,0.014446854591369629
-0.11230223625898361,0.0629197359085083,-0.08569563925266266,-0.0037443041801452637,0.0045890212059021,-0.011503815650939941
-0.07431374490261078,0.009854495525360107,-0.058281198143959045,0.01650184392929077,0.007101267576217651,-0.019176840782165527
-0.02841995283961296,-0.00043728528544306755,-0.04859098792076111,0.010112106800079346,0.005711078643798828,-0.029858767986297607
-0.00978437066078186,0.0430399589240551,-0.044505417346954346,-0.003714233636856079,0.008469551801681519,-0.040581464767456055
-0.0039458670653402805,0.08458451181650162,-0.03569047525525093,-0.007641136646270752,0.0038499832153320312,-0.03634238243103027
0.018188394606113434,0.08273951709270477,-0.03190511092543602,-0.0024274587631225586,0.0004706084728240967,-0.02993595600128174
0.02851426787674427,0.0414399616420269,-0.029165765270590782,0.003321319818496704,-0.005417525768280029,-0.015030503273010254
0.019964441657066345,0.02064182236790657,-0.008683038875460625,0.013617053627967834,-0.00544130802154541,-0.002486705780029297
-0.0013120006769895554,0.03915843740105629,0.00044329394586384296,0.007302716374397278,-0.005881369113922119,-4.178285598754883e-05
0.004211602732539177,0.03584377467632294,-0.0013485990930348635,-0.0017482191324234009,-0.0027301907539367676,-0.011881232261657715
0.028185775503516197,0.026137448847293854,0.007784332148730755,-7.490813732147217e-05,-0.002128779888153076,-0.015206694602966309
0.053618233650922775,0.007867316715419292,0.03333475440740585,0.009802967309951782,0.001552969217300415,-0.023186802864074707
0.07523138076066971,-0.002396505558863282,0.03853990137577057,0.004302486777305603,-0.0018773376941680908,-0.017669975757598877
0.0882592722773552,-0.007290429435670376,0.031451012939214706,-0.005443081259727478,-0.001845717430114746,-0.01629197597503662
0.07573092728853226,-0.011098124086856842,0.020342491567134857,-0.00757347047328949,-0.005349904298782349,-0.0013321638107299805
0.059075284749269485,-0.006139729171991348,0.01586993969976902,-0.0019131898880004883,-0.005752891302108765,0.00768357515335083
0.040030673146247864,-0.009426524862647057,0.012006011791527271,-4.6193599700927734e-06,-0.005964159965515137,0.012525618076324463
0.021204199641942978,-0.01326817087829113,0.004551415331661701,0.0005248486995697021,-0.006051599979400635,0.013852417469024658
0.016640186309814453,0.006035026162862778,-0.01330506056547165,-0.0034658610820770264,0.00014200806617736816,0.0001658797264099121
0.006359333172440529,0.01620267704129219,-0.02495277114212513,-0.005789756774902344,0.0037137269973754883,-0.0010319352149963379
-0.007270487025380135,-0.0024776842910796404,-0.004381253849714994,0.014567524194717407,0.00915566086769104,0.0014438629150390625
-0.008352262899279594,-0.01019658986479044,0.020623698830604553,0.02207183837890625,0.011967897415161133,-0.003186464309692383
0.010593757033348083,0.002215701388195157,0.025086451321840286,0.007885605096817017,0.01347362995147705,-0.01968294382095337
0.037402018904685974,0.008822391740977764,0.03540002182126045,-0.0017576664686203003,0.01672595739364624,-0.02930164337158203
0.050318602472543716,0.007816069759428501,0.018952425569295883,-0.009457632899284363,0.010553300380706787,-0.026934444904327393
0.05219157785177231,0.013365146704018116,0.00587889552116394,-0.01641698181629181,0.005278259515762329,-0.015872955322265625
0.03794291988015175,0.02160893939435482,-0.008769651874899864,-0.021899506449699402,0.0036169886589050293,-0.010397911071777344
0.02803092822432518,0.037659164518117905,-0.026782136410474777,-0.030919179320335388,0.0017077922821044922,-0.014724373817443848
0.05300210416316986,0.06275031715631485,-0.06101154163479805,-0.03678271174430847,-0.00046175718307495117,-0.036183834075927734
0.1123136356472969,0.03535278141498566,-0.0708274245262146,-0.030234888195991516,0.0009928345680236816,-0.04993563890457153
0.13761243224143982,-0.03218163177371025,-0.061500392854213715,-0.009457230567932129,0.0038931965827941895,-0.027003705501556396
0.109298937022686,-0.05458429828286171,-0.06398177146911621,-0.007048487663269043,0.004851728677749634,-0.001071155071258545
0.05009070783853531,-0.03921801224350929,-0.04549044370651245,-0.0007198154926300049,0.007413983345031738,0.026776909828186035
0.00040526269003748894,-0.04685039073228836,-0.025912022218108177,0.01416558027267456,0.011563360691070557,0.046999335289001465
-0.015569065697491169,-0.06346503645181656,-0.0032221199944615364,0.021800726652145386,0.010403335094451904,0.04733383655548096
-0.037919238209724426,-0.0800517275929451,0.022007672116160393,0.021803319454193115,0.011926889419555664,0.04328733682632446
-0.07327790558338165,-0.08317141979932785,0.041830070316791534,0.023462697863578796,0.013563424348831177,0.046616315841674805
-0.06935925781726837,-0.03751732036471367,0.0840877890586853,0.02332860231399536,0.016497790813446045,0.01579803228378296
-0.044925060123205185,-0.0058921342715620995,0.061028845608234406,-0.003283768892288208,-0.0005487203598022461,-0.0024649500846862793
-0.03092733398079872,-0.024895990267395973,0.022636428475379944,-0.017064541578292847,-0.01867663860321045,-0.001999974250793457
-0.03996819257736206,-0.010367050766944885,-0.015461436472833157,-0.023471832275390625,-0.024486809968948364,-0.001623392105102539
-0.06157245486974716,0.06136322394013405,-0.0639396533370018,-0.04197460412979126,-0.027510225772857666,-0.016970336437225342
-0.05938227102160454,0.09835931658744812,-0.1068548932671547,-0.04429364204406738,-0.03068673610687256,-0.03175950050354004
-0.011936713010072708,0.04660283029079437,-0.13493509590625763,-0.04142454266548157,-0.03319326043128967,-0.03972822427749634
0.0508091039955616,-0.023855557665228844,-0.1810668408870697,-0.04724112153053284,-0.03198316693305969,-0.04410350322723389
0.03945627063512802,-0.05412202328443527,-0.22621960937976837,-0.048043280839920044,-0.038816362619400024,-0.0240442156791687
-0.027922742068767548,0.00016346958000212908,-0.23428040742874146,-0.03906440734863281,-0.029420942068099976,-0.0014069676399230957
-0.059867165982723236,0.021983273327350616,-0.22230179607868195,-0.02348323166370392,-0.013225048780441284,0.008340656757354736
-0.02883727289736271,-0.10901974141597748,-0.19678975641727448,-0.005619019269943237,-0.008262395858764648,0.01844853162765503
0.011251362971961498,-0.25471994280815125,-0.1660001128911972,0.014100342988967896,-0.006744682788848877,0.03223305940628052
-0.024030882865190506,-0.2768147885799408,-0.1525154411792755,-0.0014018118381500244,-0.0009005963802337646,0.04415339231491089
-0.10394802689552307,-0.243671715259552,-0.13311630487442017,-0.014315515756607056,-0.001234292984008789,0.06545454263687134
-0.18109893798828125,-0.24503973126411438,-0.11270330101251602,-0.006506145000457764,-0.006041765213012695,0.08826971054077148
-0.18538253009319305,-0.2883607745170593,-0.12843431532382965,-0.011269137263298035,-0.00908997654914856,0.08153176307678223
-0.18800625205039978,-0.353971004486084,-0.16034185886383057,-0.017493680119514465,-0.01962047815322876,0.07665151357650757
-0.23490862548351288,-0.3768364191055298,-0.17089401185512543,-0.007067039608955383,-0.011563807725906372,0.08162915706634521
-0.2643013894557953,-0.32491713762283325,-0.15876910090446472,0.002694040536880493,-0.001572340726852417,0.059957146644592285
-0.25393661856651306,-0.32660138607025146,-0.14864613115787506,0.012448370456695557,0.0003852546215057373,0.04093515872955322
-0.26197388768196106,-0.4023515582084656,-0.16500037908554077,0.02560041844844818,-0.014424383640289307,0.05222666263580322
-0.28672873973846436,-0.40396448969841003,-0.20071622729301453,0.0217495858669281,-0.024247407913208008,0.04738295078277588
-0.33109885454177856,-0.33243295550346375,-0.2221003621816635,0.022627443075180054,-0.02350097894668579,0.02486652135848999
-0.3486633896827698,-0.2876802980899811,-0.21589256823062897,0.043136149644851685,-0.019600987434387207,0.005225121974945068
-0.3136467933654785,-0.2985842823982239,-0.19984756410121918,0.06443345546722412,-0.008024156093597412,-0.02533954381942749
-0.2676115036010742,-0.2692549526691437,-0.184251070022583,0.0685611218214035,0.0003421008586883545,-0.05614238977432251
-0.24475599825382233,-0.1835325062274933,-0.1582832932472229,0.06778936088085175,0.009548068046569824,-0.07233208417892456
-0.20960091054439545,-0.07028169929981232,-0.10513956844806671,0.07268518209457397,0.018384695053100586,-0.08396369218826294
-0.1411084085702896,0.00020394963212311268,-0.025645703077316284,0.0867355465888977,0.03013715147972107,-0.07603377103805542
-0.10176403820514679,0.015005373395979404,0.04150766506791115,0.09387221932411194,0.02541843056678772,-0.040817975997924805
-0.1466565579175949,0.025530049577355385,0.07996823638677597,0.08741983771324158,0.006569981575012207,0.011235058307647705
-0.18039128184318542,0.08349553495645523,0.14078733325004578,0.07616041600704193,-0.0017434954643249512,0.014225125312805176
-0.16268570721149445,0.09555025398731232,0.22671470046043396,0.0831405520439148,0.0028530359268188477,-0.00148695707321167
-0.07383683323860168,0.0790899321436882,0.2896553575992584,0.06509678065776825,0.0056830644607543945,-0.027148902416229248
-0.013729481026530266,0.0689973533153534,0.331637978553772,0.04680779576301575,0.0057506561279296875,-0.02273702621459961
-0.005579985212534666,0.06435641646385193,0.3980977535247803,0.05268299579620361,0.006647765636444092,0.0063934326171875
-0.04396728053689003,0.06035880371928215,0.4396885931491852,0.051555335521698,-0.003524094820022583,0.03261971473693848
-0.09195854514837265,0.037199150770902634,0.46954047679901123,0.046507835388183594,-0.013722658157348633,0.03732562065124512
-0.10939652472734451,0.022162042558193207,0.4829597473144531,0.033973634243011475,-0.021595358848571777,0.011645913124084473
-0.08135982602834702,0.030498061329126358,0.4592471718788147,0.01629588007926941,-0.025042414665222168,-0.03589361906051636
-0.05945923924446106,0.04627875238656998,0.410286009311676,-0.004875987768173218,-0.03137800097465515,-0.07497256994247437
-0.0706777572631836,0.052771925926208496,0.37198811769485474,-0.010875537991523743,-0.02663162350654602,-0.08855324983596802
-0.06382470577955246,0.11195691674947739,0.34737956523895264,-0.020197585225105286,-0.01517641544342041,-0.11782336235046387
0.02901911549270153,0.1806226372718811,0.3226831555366516,-0.04248496890068054,-0.001307457685470581,-0.1673811674118042
0.18488380312919617,0.1030745878815651,0.2751888632774353,-0.055890828371047974,0.0009250640869140625,-0.16998791694641113
0.36735180020332336,0.0334879495203495,0.17910349369049072,-0.07751201093196869,-0.006612837314605713,-0.15513283014297485
0.41895630955696106,0.03726832568645477,0.05804506316781044,-0.1120188981294632,-0.00593113899230957,-0.11075788736343384
0.34972840547561646,0.0725301057100296,-0.051007941365242004,-0.11124160885810852,-0.007077217102050781,-0.039616167545318604
0.3166252672672272,0.1404038369655609,-0.11322493851184845,-0.09339506924152374,0.010731309652328491,-0.009789884090423584
0.3765769600868225,0.14401741325855255,-0.13479599356651306,-0.0696193128824234,0.03651127219200134,-0.010512113571166992
0.46084609627723694,0.04377574473619461,-0.14708738029003143,-0.047120511531829834,0.0558854341506958,0.012057363986968994
0.48457515239715576,-0.03957598656415939,-0.16594408452510834,-0.04051430523395538,0.057743191719055176,0.047926902770996094
0.4220995604991913,-0.02744809351861477,-0.2282293289899826,-0.06066262722015381,0.04749062657356262,0.07652503252029419
0.26236584782600403,0.029888048768043518,-0.28951072692871094,-0.06036366522312164,0.03452706336975098,0.11097890138626099
0.08982183039188385,0.06772264093160629,-0.30734676122665405,-0.0393005907535553,0.027944952249526978,0.1322672963142395
-0.019819390028715134,0.06095025688409805,-0.29767322540283203,-0.007753133773803711,0.0349142849445343,0.12442559003829956
-0.03866451233625412,0.023229410871863365,-0.2704848647117615,0.009587198495864868,0.042347252368927,0.0885390043258667
-0.06843433529138565,-0.018534716218709946,-0.23752759397029877,0.023879677057266235,0.04605451226234436,0.07434844970703125
-0.10622856020927429,-0.012707746587693691,-0.17577512562274933,0.03933875262737274,0.044898539781570435,0.061183154582977295
-0.12970565259456635,-0.014891092665493488,-0.09819412231445312,0.055542945861816406,0.042422711849212646,0.05250471830368042
-0.13614079356193542,-0.05542241036891937,-0.030879544094204903,0.06412787735462189,0.033093392848968506,0.04178577661514282
-0.14599008858203888,-0.10464805364608765,0.037818655371665955,0.06758539378643036,0.02026468515396118,0.032759130001068115
-0.16475681960582733,-0.11105608940124512,0.09705400466918945,0.06549148261547089,0.011246144771575928,0.012086272239685059
-0.16088537871837616,-0.08909513056278229,0.11480716615915298,0.03945602476596832,-0.0006680786609649658,-0.022549688816070557
-0.14808905124664307,-0.0744340643286705,0.10605056583881378,0.008546650409698486,-0.0048673152923583984,-0.05357158184051514
-0.06769264489412308,-0.04052257165312767,0.10983463376760483,-0.007161542773246765,-0.008692532777786255,-0.08338582515716553
0.04184539243578911,-0.024236030876636505,0.07604330033063889,-0.027786806225776672,-0.0157107412815094,-0.10206234455108643
0.08325197547674179,-0.043381139636039734,0.012436730787158012,-0.03922918438911438,-0.039464473724365234,-0.06698119640350342
0.028080811724066734,-0.022543802857398987,-0.045607808977365494,-0.037523746490478516,-0.046080321073532104,-0.014783799648284912
-0.008421649225056171,0.07295708358287811,-0.08458930999040604,-0.03629319369792938,-0.03914651274681091,-0.008526742458343506
0.007428403943777084,0.10478188842535019,-0.10640555620193481,-0.031088918447494507,-0.02672398090362549,-0.005198121070861816
0.045683491975069046,0.05152992159128189,-0.11481579393148422,-0.008916586637496948,-0.017431974411010742,0.011362612247467041
0.05489035323262215,-0.0002864896086975932,-0.11368855088949203,0.00734575092792511,-0.013854801654815674,0.03610879182815552
0.007952313870191574,-0.020241597667336464,-0.1045553907752037,0.02045002579689026,-0.013466298580169678,0.05539602041244507
-0.08180364221334457,-0.006809731014072895,-0.07175080478191376,0.03436383605003357,-0.016490578651428223,0.0712171196937561
-0.1311303973197937,0.03402697667479515,-0.0399412140250206,0.02708601951599121,-0.010870426893234253,0.04633611440658569
-0.09860438108444214,0.04139653593301773,-0.024111656472086906,0.009188652038574219,-0.0040035247802734375,0.008659899234771729
-0.014365408569574356,0.03277597576379776,0.007944891229271889,0.008001118898391724,0.006982207298278809,-0.020986437797546387
0.015147635713219643,-0.012949446216225624,0.03508724272251129,0.01546412706375122,0.0038443803787231445,-0.009665846824645996
-0.04653378576040268,-0.06197720021009445,0.044513411819934845,0.018024519085884094,-0.014095813035964966,0.02920931577682495
-0.1326083391904831,-0.04325808957219124,0.03412101790308952,0.005039691925048828,-0.024418234825134277,0.026848971843719482
-0.17141340672969818,0.00673341890797019,0.015467379242181778,-0.01959460973739624,-0.022762000560760498,-0.00044792890548706055
-0.11910612136125565,0.0066726538352668285,0.03540016710758209,-0.008860364556312561,-0.007799506187438965,-0.036183059215545654
-0.016303692013025284,-0.0519583560526371,0.05578376725316048,-0.003713086247444153,-0.0033732056617736816,-0.048320770263671875
0.04895685613155365,-0.08714380115270615,0.04763945937156677,-0.014683634042739868,-0.005162179470062256,-0.04196804761886597
0.03576207906007767,-0.027125220745801926,0.01678641326725483,-0.035544902086257935,-0.015861213207244873,-0.013285219669342041
0.015230705961585045,0.03165260702371597,-0.016561688855290413,-0.04234835505485535,-0.01820141077041626,0.006382942199707031
-0.022964250296354294,0.009279285557568073,-0.02514868602156639,-0.01856452226638794,-0.014032125473022461,0.041046321392059326
-0.05443611741065979,-0.01654905453324318,-0.039696209132671356,-0.0038607269525527954,-0.014177113771438599,0.05647587776184082
-0.06877952069044113,-0.01821179874241352,-0.02633807435631752,0.010085850954055786,-0.008855372667312622,0.04414927959442139
-0.11019309610128403,-0.036170125007629395,-0.017934070900082588,0.0229606032371521,-0.009015381336212158,0.04296022653579712
-0.1425095498561859,-0.032495591789484024,-0.023124150931835175,0.015131711959838867,-0.007756948471069336,0.02836090326309204
-0.16331633925437927,-0.024613026529550552,-0.0448235422372818,-0.0005097538232803345,-0.002328813076019287,0.004222571849822998
-0.1505836397409439,-0.008540095761418343,-0.05583588406443596,-0.0011199712753295898,0.009081065654754639,-0.021819233894348145
-0.1074671819806099,0.017788466066122055,-0.0942697674036026,-0.017894089221954346,0.012249588966369629,-0.04356348514556885
-0.037324268370866776,0.03426417335867882,-0.09973378479480743,-0.020099014043807983,0.007793992757797241,-0.055330872535705566
0.009861634112894535,0.00546978460624814,-0.04103995859622955,0.019140541553497314,0.010058879852294922,-0.03910773992538452
0.01624799519777298,-0.0036958567798137665,0.01481754519045353,0.039190977811813354,0.005133628845214844,-0.015459895133972168
-0.028413288295269012,0.019933829084038734,0.0463474802672863,0.02739398181438446,-0.002200990915298462,0.005618155002593994
-0.05225883796811104,0.05979766696691513,0.038488663733005524,0.007011741399765015,-0.0076934099197387695,0.0021262764930725098
-0.04137720912694931,0.0631219670176506,0.02798972837626934,-0.0026270896196365356,-0.009743750095367432,-0.008447706699371338
-0.05046694353222847,0.0325966514647007,0.029460757970809937,0.000541985034942627,-0.005776435136795044,-0.0033041834831237793
-0.06455285847187042,0.017733827233314514,0.026227975264191628,-0.005568861961364746,-0.0009221434593200684,0.000298917293548584
-0.03398469462990761,0.05665561184287071,0.04235111176967621,-0.010608524084091187,0.010947048664093018,-0.023119628429412842
-0.001801752019673586,0.04675702750682831,0.05481703206896782,-0.005179226398468018,0.014847785234451294,-0.0213468074798584
-0.005024637095630169,0.02080106921494007,0.04823612421751022,-0.005962461233139038,0.011579453945159912,0.00044333934783935547
-0.03514362871646881,0.020224912092089653,0.045952532440423965,-0.011186391115188599,0.0034061670303344727,0.006743073463439941
-0.0474824495613575,0.0289967879652977,0.05722632259130478,-0.0035763680934906006,0.0032625198364257812,-0.0006743073463439941
-0.038647398352622986,-0.0019965737592428923,0.05482909083366394,-0.004396170377731323,0.004400044679641724,-0.008585155010223389
-0.040948666632175446,-0.030879037454724312,0.059165485203266144,-0.0007448494434356689,0.00732499361038208,-0.006147205829620361
-0.05076102167367935,-0.015381470322608948,0.08753331750631332,0.009874701499938965,0.015318095684051514,-0.007632732391357422
-0.04420722275972366,0.02036895416676998,0.11972994357347488,0.016629785299301147,0.016803622245788574,-0.012150824069976807
-0.030437463894486427,0.04801802337169647,0.11568515002727509,0.0069540441036224365,0.0159379243850708,-0.011966884136199951
0.0010686866007745266,0.06319025158882141,0.11026506125926971,-0.0016544163227081299,0.008685588836669922,-0.012441754341125488
-0.0024639242328703403,0.05825195834040642,0.12322881817817688,0.015988260507583618,-0.0016289949417114258,0.00198972225189209
-0.020599085837602615,0.01978270336985588,0.12731854617595673,0.022106975317001343,-0.012845546007156372,0.012662231922149658
-0.0638582706451416,0.00750814750790596,0.10876040160655975,0.004824519157409668,-0.020940452814102173,0.0035315752029418945
-0.060831740498542786,0.05281131714582443,0.10135306417942047,-0.01511305570602417,-0.013155728578567505,-0.03937220573425293
0.016122186556458473,0.0777154192328453,0.09541858732700348,-0.026383981108665466,0.0007216930389404297,-0.08125579357147217
0.07296176254749298,0.063896544277668,0.04538019001483917,-0.05444863438606262,0.0017465651035308838,-0.07992768287658691
0.08740092813968658,0.0706753060221672,0.003911339677870274,-0.06396448612213135,-0.0025399327278137207,-0.05360138416290283
0.09370099753141403,0.10323893278837204,0.0011473835911601782,-0.05248112976551056,0.0017580986022949219,-0.028479337692260742
0.12153195589780807,0.09210962802171707,0.0014322472270578146,-0.04184374213218689,0.005580931901931763,-0.005176186561584473
0.11423154175281525,0.04196317866444588,-0.018809085711836815,-0.03528843820095062,-0.005513995885848999,0.0332874059677124
0.052629727870225906,0.025157181546092033,-0.048357851803302765,-0.0341217964887619,-0.015134215354919434,0.06160157918930054
-0.026210183277726173,0.014334755018353462,-0.06449718773365021,-0.02514040470123291,-0.017391890287399292,0.06782913208007812
-0.07178014516830444,-0.0015068744542077184,-0.062317103147506714,-0.011490166187286377,-0.012366652488708496,0.051833152770996094
-0.07897906750440598,-0.022939244285225868,-0.07079091668128967,-0.013942554593086243,-0.011046528816223145,0.0273820161819458
-0.04764547944068909,-0.04001516476273537,-0.07247676700353622,-0.01943337917327881,-0.002000361680984497,-0.0029001235961914062
-0.0076009961776435375,-0.04732256382703781,-0.06470602750778198,-0.0171128511428833,0.00726965069770813,-0.025065183639526367
-0.014080428518354893,-0.05868808180093765,-0.06032752990722656,-0.011590242385864258,0.009802043437957764,-0.02002394199371338
-0.017885204404592514,-0.04652470350265503,-0.049515143036842346,-0.008924484252929688,0.008262336254119873,-0.016389548778533936
0.009180041961371899,-0.046103380620479584,-0.03215077519416809,-0.0010589808225631714,0.014270871877670288,-0.02342689037322998
0.034672923386096954,-0.07410353422164917,-0.01968904584646225,0.008140504360198975,0.020553946495056152,-0.010450541973114014
0.0382256917655468,-0.05889468267560005,-0.017986197024583817,0.011017575860023499,0.02035650610923767,0.0036510825157165527
0.02731601893901825,-0.018397314473986626,-0.022052884101867676,0.008523255586624146,0.012770503759384155,0.013110637664794922
-0.0024890482891350985,-0.02408604510128498,-0.02690359763801098,0.021026283502578735,0.0010612308979034424,0.037654340267181396
-0.05095882713794708,-0.04927610978484154,-0.036611735820770264,0.02768954634666443,-0.005730569362640381,0.050972700119018555
-0.08785238862037659,-0.018262624740600586,-0.05164029449224472,0.023469924926757812,-0.009278535842895508,0.03823268413543701
-0.09984669089317322,0.023054243996739388,-0.0537138357758522,0.024498194456100464,-0.004495680332183838,0.010524094104766846
-0.08051689714193344,0.03096822090446949,-0.05291280522942543,0.028969258069992065,0.006051778793334961,-0.00918346643447876
-0.06960303336381912,0.03227631002664566,-0.05149360001087189,0.02831903100013733,0.010364651679992676,-0.01326221227645874
-0.07318300753831863,0.030908580869436264,-0.028494518250226974,0.03611201047897339,0.012484580278396606,-0.015461862087249756
-0.07770910114049911,0.058746833354234695,0.006156523246318102,0.04152533411979675,0.01421615481376648,-0.022650480270385742
-0.06001361086964607,0.08155731856822968,0.0325436033308506,0.03313055634498596,0.017584383487701416,-0.03711956739425659
-0.021949665620923042,0.08328898996114731,0.058495357632637024,0.026314273476600647,0.014672547578811646,-0.04066634178161621
0.007943169213831425,0.07250406593084335,0.08056182414293289,0.020137488842010498,0.010064840316772461,-0.03225600719451904
0.01848866045475006,0.05799134075641632,0.09169050306081772,0.008323296904563904,0.004745453596115112,-0.021249115467071533
0.01878724992275238,0.0593244843184948,0.11175254732370377,0.004401296377182007,0.0019953250885009766,-0.005606710910797119
-0.004359477199614048,0.06168292835354805,0.12574410438537598,0.00619681179523468,0.005306035280227661,0.014121949672698975
-0.029199955984950066,0.07858888059854507,0.14776656031608582,0.010671824216842651,0.0024262964725494385,0.02961266040802002
-0.048153553158044815,0.07755997031927109,0.15925194323062897,0.012421086430549622,0.0012375414371490479,0.032050371170043945
-0.04953538626432419,0.04471485689282417,0.1685979962348938,0.015351861715316772,-0.0032670199871063232,0.03134113550186157
-0.07261103391647339,0.007694324944168329,0.16890215873718262,0.015607282519340515,-0.010359406471252441,0.033740341663360596
-0.11104493588209152,0.018630119040608406,0.1723533421754837,0.013802289962768555,-0.009263426065444946,0.01921224594116211
-0.11201750487089157,0.05151480808854103,0.16197487711906433,0.0010485202074050903,-0.006504058837890625,-0.009990990161895752
-0.08072067052125931,0.04770180210471153,0.16258172690868378,0.002143949270248413,-0.001005709171295166,-0.039904117584228516
-0.059777140617370605,0.02495051734149456,0.17633844912052155,0.013497725129127502,0.0018163025379180908,-0.03892630338668823
-0.024246864020824432,0.042766720056533813,0.19414635002613068,0.013334110379219055,0.009909003973007202,-0.05173373222351074
0.001192101277410984,0.06106937304139137,0.1896294206380844,-0.0016646534204483032,0.011409848928451538,-0.05365002155303955
0.018693018704652786,0.061249010264873505,0.19600746035575867,-0.0046173036098480225,0.011658191680908203,-0.041684865951538086
0.021872732788324356,0.06409070640802383,0.20236407220363617,-0.008136153221130371,0.009623736143112183,-0.032391488552093506
0.08869996666908264,0.10317499190568924,0.1898682415485382,-0.024389848113059998,0.006232529878616333,-0.05054318904876709
0.14988787472248077,0.09248408675193787,0.14413489401340485,-0.042574793100357056,0.0007733404636383057,-0.04679018259048462
0.14486217498779297,0.05440660938620567,0.10182930529117584,-0.03888578712940216,-0.012795567512512207,-0.005205094814300537
0.06424839049577713,0.06266443431377411,0.04641646891832352,-0.04390150308609009,-0.024444639682769775,0.024637162685394287
-0.025159839540719986,0.11123114079236984,-0.011712225154042244,-0.06267911195755005,-0.031087875366210938,0.023528575897216797
-0.063974529504776,0.1337001472711563,-0.06281567364931107,-0.06788559257984161,-0.021887391805648804,0.005901038646697998
-0.03009219840168953,0.07332068681716919,-0.06303644925355911,-0.04952728748321533,-0.004173696041107178,-0.015888690948486328
0.024475092068314552,-0.0011297581950202584,-0.044274430721998215,-0.02987205982208252,0.011762231588363647,-0.01890486478805542
