rotation_x,rotation_y,rotation_z,acceleration_x,acceleration_y,acceleration_z
-0.10546836256980896,-0.041734904050827026,0.005165786948055029,-0.0010989606380462646,-5.602836608886719e-05,0.011257946491241455
-0.06437814235687256,-0.008982052095234394,-0.031420111656188965,-0.02124112844467163,-0.00021380186080932617,-0.023952245712280273
-0.05813174322247505,-0.003953700885176659,-0.0340266227722168,-0.002465978264808655,-0.0006188750267028809,0.013760089874267578
-0.08858843147754669,-0.014027339406311512,-0.03202560544013977,0.007772684097290039,-0.0027192234992980957,0.0038042664527893066
0.01341678574681282,0.038856759667396545,0.011089596897363663,0.014915242791175842,-0.023168444633483887,0.0026116371154785156
-0.006583774462342262,0.010780716314911842,0.02998429350554943,-0.0011514723300933838,0.0027559995651245117,0.0072081685066223145
-0.04035630077123642,0.0050115385092794895,-0.0013954562600702047,-0.0024640560150146484,-0.0019966959953308105,-0.009718537330627441
-0.03546087443828583,-0.01671312376856804,0.01831996999680996,0.012321725487709045,4.506111145019531e-05,-0.027527451515197754
-0.02602551504969597,-0.0357331708073616,0.022914515808224678,-0.0016584377735853195,0.004569530487060547,-0.0221901535987854
0.024707235395908356,-0.02976236119866371,0.035274870693683624,-0.006337910890579224,-0.0016829371452331543,-0.0204087495803833
0.06150286644697189,-0.006597209256142378,0.04080391675233841,0.002516642212867737,0.0004429817199707031,-0.02417689561843872
0.05942346900701523,0.015241056680679321,-0.009559348225593567,-0.034085676074028015,0.01070624589920044,0.018198609352111816
0.03070460632443428,-0.04355258494615555,-0.033653877675533295,-0.013910306617617607,0.00411301851272583,0.003674328327178955
0.005430254619568586,-0.03840896487236023,-0.0361270010471344,-0.011019065976142883,-0.0027419328689575195,0.0036455392837524414
0.0472099669277668,-0.02968796156346798,0.01746797002851963,0.018782394006848335,-0.018899142742156982,-0.04492610692977905
0.002377539873123169,0.00902797095477581,-0.012145712040364742,-0.019223079085350037,0.0010448694229125977,0.024767637252807617
-0.0414603091776371,-0.012803587131202221,-0.03335300832986832,0.0036208927631378174,-0.010161757469177246,-0.006554603576660156
0.02874070219695568,-0.018941212445497513,-0.018770230934023857,0.0007477551698684692,-0.0033122897148132324,-0.0032534003257751465
0.04671091586351395,0.01868206262588501,-0.018288465216755867,-0.004569590091705322,-0.0010546445846557617,0.020273447036743164
-0.021754559129476547,0.001548038562759757,0.008225723169744015,0.009339973330497742,-0.005767822265625,0.010486483573913574
-0.027283305302262306,-0.004309612326323986,0.000535925617441535,-0.0014054179191589355,-0.0028783082962036133,-0.002667546272277832
0.00906325038522482,-0.01940866932272911,-0.007382983807474375,0.006331592798233032,-0.004279494285583496,-0.007025241851806641
0.00912210438400507,-0.005670942831784487,-0.004848945420235395,0.0012395232915878296,-0.000949859619140625,-0.00513458251953125
0.004056529141962528,-0.007666413672268391,-0.003241812577471137,-0.00020541250705718994,0.0011057853698730469,-0.017613887786865234
-0.0031549278646707535,0.023309746757149696,0.01154712587594986,-0.0026051998138427734,0.0007244348526000977,0.00020802021026611328
-0.028752706944942474,0.014258189126849174,-0.019644778221845627,-0.007804989814758301,0.0013134479522705078,-0.004757404327392578
-0.017574597150087357,0.0018795139621943235,-0.023365607485175133,0.012642040848731995,-0.009873747825622559,-0.01596379280090332
0.0002074623480439186,-0.008563898503780365,-0.004084170330315828,0.00411430187523365,-0.0042653679847717285,-0.0017096400260925293
0.00250517250970006,-0.00765096303075552,0.011529847979545593,0.0009710956364870071,-0.0027382969856262207,0.014831840991973877
-0.06318707019090652,0.051691390573978424,0.008583758026361465,-0.006589516997337341,-0.0008374452590942383,0.03035205602645874
-0.050776004791259766,0.004766578320413828,0.016038421541452408,0.0187090951949358,-0.00615769624710083,-0.04191988706588745
0.025892676785588264,0.027264084666967392,-0.006162792909890413,-0.008082598447799683,-0.0077874064445495605,-0.027324974536895752
0.01607559621334076,0.012490177527070045,-0.002773723565042019,0.0038658101111650467,-0.0010301470756530762,-0.005205810070037842
-0.026852652430534363,0.01944616436958313,-0.012335175648331642,-0.010568618774414062,-0.0033527612686157227,0.00441741943359375
-0.011248968541622162,0.025662634521722794,-0.010104917921125889,-0.007637083530426025,0.0007398128509521484,-0.0035405755043029785
0.010878726840019226,0.007841059938073158,0.007197556551545858,0.00836154818534851,0.00014650821685791016,-0.016340434551239014
0.0022794483229517937,0.01635482907295227,0.013129273429512978,0.0024824589490890503,-0.0015470385551452637,-0.00632476806640625
-0.03139527142047882,0.0041394648142158985,0.008823316544294357,0.00606180727481842,-0.004628896713256836,-0.0009729266166687012
-0.020719414576888084,-0.019139613956212997,0.007023693062365055,0.011858358979225159,0.0035561323165893555,-0.005251169204711914
0.010139302350580692,-0.0165515448898077,0.017872953787446022,-0.0019420813769102097,0.004007875919342041,-0.004815161228179932
-0.00970231369137764,0.027410587295889854,0.013391122221946716,-0.010670585557818413,0.0004330873489379883,0.014945566654205322
-0.032048169523477554,0.01666044071316719,0.00024152523837983608,0.009291799739003181,-0.003819584846496582,-0.006509184837341309
-0.01673716865479946,-0.01486721821129322,-0.0009543170453980565,-0.0004984438419342041,-0.006527841091156006,-0.012918829917907715
-0.010082496330142021,0.015150677412748337,-0.0013453052379190922,0.0016894936561584473,-0.005415737628936768,0.0010088086128234863
-0.006506945006549358,0.005726281087845564,4.816194996237755e-05,0.005973875522613525,0.0012115240097045898,-0.010911226272583008
0.0018096640706062317,0.02180400677025318,0.016575442627072334,-0.002862870693206787,-0.003262817859649658,-0.01106637716293335
0.024211352691054344,0.017536785453557968,0.01772681251168251,-0.0006383955478668213,-0.005760371685028076,-0.02563607692718506
0.021460244432091713,-0.050020232796669006,0.006803190801292658,-0.006082907319068909,-0.003078162670135498,-0.011912226676940918
-0.012316828593611717,-0.011747674085199833,-0.003581714816391468,-0.0040382444858551025,-0.00880122184753418,0.007619500160217285
-0.015999915078282356,-0.015495549887418747,0.01869306154549122,-0.000416560098528862,-0.002328932285308838,-0.009048104286193848
0.0055403984151780605,-0.0016398257575929165,0.02817349322140217,-0.008594512939453125,-0.0034075379371643066,-0.01038825511932373
0.011705972254276276,-0.019728340208530426,0.025224551558494568,-0.007919669151306152,-0.000548243522644043,0.002352595329284668
-0.0033577766735106707,-0.007815279997885227,0.002542744856327772,-0.0032200347632169724,-0.003265380859375,-0.006562769412994385
-0.025214165449142456,-0.0005798796191811562,-0.011745043098926544,-0.006327539682388306,-0.002574920654296875,0.0039975643157958984
-0.02852456271648407,0.013180119916796684,-0.012109912931919098,-0.006269052624702454,0.0040705204010009766,-0.005958616733551025
0.004640781320631504,-0.010939247906208038,0.0011895927600562572,-0.005496501922607422,0.0003905296325683594,-0.009036660194396973
0.009768988005816936,-0.009034326300024986,0.0026278384029865265,-0.00518307089805603,-0.0028432607650756836,-0.002248525619506836
-0.04230144992470741,-0.006204190663993359,-0.010885889641940594,-0.003964198753237724,-0.004180610179901123,0.009821712970733643
-0.05366501957178116,0.006580790039151907,-0.025114864110946655,-0.0029270946979522705,-0.0026772618293762207,-0.002965271472930908
-0.03596079722046852,0.008507398888468742,-0.016956137493252754,0.002957180142402649,0.0031044483184814453,-0.0040503740310668945
-0.009766541421413422,0.005360885057598352,-0.002508587669581175,-0.0048824697732925415,0.00012296438217163086,-0.005863547325134277
-0.009804981760680676,0.0069897836074233055,-0.00348295783624053,0.003882497549057007,-0.0034082531929016113,-0.012454330921173096
-0.025103751569986343,-0.030117660760879517,-0.0023086408618837595,0.010458841919898987,-0.0035092830657958984,-0.006612241268157959
-0.0009902934543788433,-0.0290035642683506,0.0007021764758974314,0.00010688602924346924,-0.0016589164733886719,-0.01499474048614502
0.00040582241490483284,-0.001266114879399538,-0.006009996868669987,0.0004992056638002396,-0.003887951374053955,-0.006749570369720459
-0.01199447549879551,0.00133942486718297,-0.007981060072779655,0.0030469298362731934,-0.0016169548034667969,-0.007375180721282959
-0.006031814496964216,-0.011979972943663597,0.001290439860895276,0.0033693015575408936,-0.0029511451721191406,-0.0056874752044677734
0.014032283797860146,-0.0015053711831569672,-0.003686494892463088,0.004017280414700508,-0.005181550979614258,-0.012171447277069092
0.020946495234966278,-0.012318338267505169,0.0034661018289625645,0.0018775034695863724,0.0005285143852233887,0.004280447959899902
0.00990498811006546,0.01457909308373928,0.0046827225014567375,-0.0001055002212524414,-0.0012148618698120117,0.006615161895751953
-0.03514433652162552,0.008332706987857819,0.00024458812549710274,-0.0023151934146881104,-0.0006629228591918945,-0.0073697566986083984
-0.006834711879491806,-0.008879183791577816,-0.010126166976988316,-0.001997023820877075,-0.0013881921768188477,-0.013447403907775879
0.0070603289641439915,0.011926094070076942,-0.002407164080068469,-0.0015839338302612305,-0.004985332489013672,0.00196230411529541
-0.033059392124414444,0.016500208526849747,-0.0018288221908733249,-0.001524314284324646,0.004095852375030518,0.004201292991638184
-0.001239944715052843,-0.004672113340348005,0.0016724781598895788,0.008789584040641785,-0.005041599273681641,-0.031394004821777344
0.014491280540823936,-0.02268591895699501,-0.0007928642444312572,0.0023666322231292725,0.0013987421989440918,-0.004189550876617432
0.016346683725714684,-0.018171697854995728,0.008273639716207981,0.0005355924367904663,-0.004900991916656494,-0.009824633598327637
0.006859772838652134,0.007911747321486473,0.012002121657133102,-0.006727753207087517,-0.006843388080596924,-0.005648791790008545
0.0011032810434699059,0.015032121911644936,0.007248640060424805,0.005513176321983337,-0.00892627239227295,-0.003130316734313965
0.007162351161241531,-0.00046587875112891197,0.01275966502726078,-0.002392292022705078,-0.004730820655822754,-0.009255290031433105
-0.014242243021726608,-0.0018205265514552593,0.011555777862668037,0.005296573042869568,0.0016357898712158203,-0.00969463586807251
0.01045211125165224,0.006675241515040398,0.021282173693180084,-0.00018286705017089844,-0.0020245909690856934,-0.015232503414154053
0.013165404088795185,0.008763730525970459,0.01190161146223545,0.0023532360792160034,0.0017368197441101074,-0.003524303436279297
-0.0027967391069978476,0.009056434035301208,0.007198241539299488,-0.0016507506370544434,-1.8775463104248047e-05,0.005066096782684326
0.002730854321271181,0.0157601460814476,0.00408571120351553,-0.0037450194358825684,0.001026451587677002,0.009612739086151123
-0.025418516248464584,-0.011776437051594257,-0.0010612992336973548,0.0011529624462127686,-0.0013532638549804688,-0.008013308048248291
0.015334421768784523,-0.022696590051054955,-0.002307963790372014,-0.0009546577930450439,0.0025798678398132324,-0.01190197467803955
0.021330393850803375,-0.013499710708856583,0.0012086194474250078,0.00590851902961731,0.0007942914962768555,-0.007513880729675293
0.0194283165037632,0.009325461462140083,0.0031380155123770237,-0.010298669338226318,-0.003145754337310791,-0.0035829544067382812
-0.005928616505116224,0.005276343319565058,0.00019386154599487782,-0.0008146446198225021,-0.004035353660583496,0.004693806171417236
-0.03281901776790619,-0.026922158896923065,-0.0012955877464264631,-0.010981634259223938,-0.0020563602447509766,0.0016627907752990723
-0.0014791861176490784,-0.023169858381152153,-0.0006420403951779008,-0.0064585208892822266,-0.003917992115020752,-0.010827302932739258
0.007507983595132828,-0.017549868673086166,0.006394883617758751,0.002354772761464119,-0.0072536468505859375,-0.011509358882904053
0.0010647778399288654,0.018405545502901077,0.010961232706904411,0.00037723779678344727,-0.011477828025817871,-0.015198588371276855
-0.005977974738925695,0.019879302009940147,0.007324771489948034,-0.003406539559364319,-0.0030303001403808594,-0.010493099689483643
-0.0034370296634733677,-0.01448768749833107,-0.005064606200903654,0.0004011690616607666,-0.0035341978073120117,-0.017420649528503418
0.025939416140317917,-0.043062724173069,0.005414085928350687,-0.006711691617965698,0.0008722543716430664,-0.011133849620819092
0.025738010182976723,0.009844942018389702,0.0030737256165593863,0.0016475636512041092,-0.007218062877655029,0.0003948211669921875
0.004150893073529005,0.01944938488304615,0.0019300607964396477,-0.005103647708892822,-0.001004338264465332,0.0036537647247314453
0.010145667940378189,0.022322669625282288,0.0006109969690442085,0.0019428431987762451,-0.000848233699798584,-0.0066030025482177734
0.013902103528380394,-0.00162414088845253,-0.002556201070547104,-0.006064310669898987,0.0004748106002807617,0.000724494457244873
0.006650980561971664,0.0009531734976917505,0.0018120682798326015,0.0030370503664016724,-0.0017985105514526367,0.0045209527015686035
-0.024690430611371994,0.008728538639843464,-0.0037099961191415787,0.0028328746557235718,-0.007056236267089844,0.0020992159843444824
-0.010789239779114723,0.0007886236999183893,-0.0013569099828600883,-0.00485558807849884,0.0006954073905944824,-0.006362974643707275
0.0032431320287287235,0.008929692208766937,0.004945754073560238,-0.0005421489477157593,0.003930032253265381,-0.01278996467590332
0.004249075427651405,-0.011009479872882366,0.007088056765496731,0.0029766857624053955,-0.0015254020690917969,-0.01310431957244873
0.008666791953146458,0.011013783514499664,0.00036207796074450016,0.0024144649505615234,-0.008072316646575928,-0.0030075907707214355
-0.007519322447478771,-0.003948047757148743,-0.009975418448448181,0.0009691715240478516,-0.003817260265350342,0.0027803778648376465
-0.01345701515674591,0.013666043989360332,-0.009473703801631927,0.0032141506671905518,-0.0013325214385986328,-0.0030925869941711426
-0.00867109652608633,-0.010339688509702682,0.008425348438322544,0.0028077978640794754,0.003562450408935547,-0.002708613872528076
-0.002497818088158965,-0.01236686110496521,0.013517020270228386,0.0007449686527252197,-0.004914641380310059,-0.005536556243896484
0.008397016674280167,0.01146857813000679,0.002119453391060233,-0.0007175654172897339,-0.005398094654083252,-0.003951549530029297
-0.0016158276703208685,0.00441405363380909,-0.0024904494639486074,-0.007550865411758423,-0.0063759684562683105,-0.017506420612335205
0.01471623033285141,-0.0021993834525346756,-0.0035370434634387493,0.003153473138809204,-0.0034707188606262207,-0.009727537631988525
0.009343413636088371,0.013995170593261719,-0.007698793895542622,-0.005136385560035706,-0.005185902118682861,0.0047833919525146484
-0.007238825783133507,-0.001697690226137638,0.016768144443631172,0.0011548399925231934,-0.0015106797218322754,0.005548059940338135
0.0054812077432870865,0.005186007358133793,0.006982447579503059,-0.005249977111816406,-0.01196223497390747,-0.004032015800476074
0.012746933847665787,-0.0007246537134051323,0.0034281592816114426,0.0022180676460266113,-0.008225202560424805,-0.019906818866729736
0.006778194569051266,-0.010804800316691399,-0.011150380596518517,-0.0011973977088928223,-0.005146622657775879,-0.024632811546325684
0.04281493276357651,-0.02107015810906887,-0.004165155813097954,-0.005300283432006836,-0.005222201347351074,-0.02608644962310791
0.054110415279865265,-0.011189895682036877,-0.0007657315582036972,-0.00910276174545288,-0.00855100154876709,-0.006046473979949951
0.027855489403009415,0.004704442340880632,-0.00718402024358511,-0.012820377945899963,-0.010356783866882324,0.010870277881622314
0.01766306348145008,0.004495950415730476,-0.0207838024944067,0.002539442852139473,-0.00921410322189331,0.0005304813385009766
0.012986640445888042,-0.007569208741188049,-0.0075271050445735455,0.0025027692317962646,-0.0008423328399658203,0.0013379454612731934
0.012659048661589622,-0.015598142519593239,0.007765649817883968,-0.00047998130321502686,0.00304490327835083,-0.021397709846496582
0.023983566090464592,0.0008173568639904261,0.011643299832940102,0.0003385692834854126,0.0025519132614135742,-0.018335282802581787
0.03649034723639488,-0.012112940661609173,0.0013292813673615456,0.004946097731590271,0.003348827362060547,-0.012088656425476074
0.04535949230194092,0.014576041139662266,-0.0042735212482512,0.006307944655418396,0.0010646581649780273,0.006663918495178223
0.006428699940443039,0.006315562408417463,0.0064768074080348015,0.003918172791600227,0.004683434963226318,0.029773414134979248
-0.009290569461882114,-0.0012685325928032398,-0.00010551861487329006,0.003982260823249817,-0.001248776912689209,-0.000587761402130127
0.005584693513810635,-0.01544289942830801,-0.0028152510058134794,0.0011005699634552002,-0.0029429197311401367,0.001210629940032959
0.0145066874101758,-0.005357836838811636,-0.011750923469662666,-0.0021331757307052612,-0.0006753802299499512,-0.0037289857864379883
0.018212027847766876,0.0056001232005655766,-0.013775946572422981,-0.004399238154292107,-0.0022576451301574707,-0.0054587721824646
0.01231059804558754,0.01972988247871399,-0.009754992090165615,-0.002438051626086235,-0.005206763744354248,-0.006724417209625244
-0.007643536198884249,0.001733213197439909,-0.006362771149724722,-4.498474299907684e-05,-0.005744755268096924,-0.011375665664672852
0.019418708980083466,0.003908483311533928,-0.005672745872288942,0.001032412052154541,-0.004800260066986084,-0.015199899673461914
0.015246332623064518,-0.008458171039819717,0.000495667802169919,0.005098506808280945,-0.00512540340423584,-0.0034801363945007324
0.0017788596451282501,-0.004751414060592651,0.0026220909785479307,0.002024233341217041,-0.00421983003616333,-0.00933927297592163
0.037237100303173065,0.017524482682347298,0.018695726990699768,0.0036859381943941116,-0.004718601703643799,-0.007306098937988281
0.024987641721963882,0.03988625854253769,0.029150795191526413,0.0023430436849594116,-0.004963278770446777,0.011995673179626465
-0.008198916912078857,-0.007233443669974804,0.02557579055428505,0.0011727958917617798,-0.006435215473175049,-0.0004892945289611816
0.022055258974432945,-0.04600677266716957,0.013773350045084953,0.0033784955739974976,-0.0036951303482055664,-0.01748943328857422
0.017463592812418938,-0.010174605064094067,0.01261410303413868,-0.0011375676840543747,-0.005585789680480957,0.006259262561798096
-0.001031752210110426,0.01792861893773079,0.01964263617992401,-0.0043657273054122925,7.659196853637695e-05,-0.005438506603240967
0.006986959837377071,0.03303435072302818,0.0008526013698428869,-0.008665010333061218,-0.006643831729888916,-0.0021228790283203125
0.0031094634905457497,-0.013299340382218361,-0.004058965016156435,0.0041153281927108765,-0.002824544906616211,-0.010657429695129395
0.014877086505293846,-0.016587909311056137,0.0012622391805052757,-0.005238113924860954,0.0007693171501159668,-0.01434248685836792
0.02379891648888588,0.003989305812865496,0.011156011372804642,-0.0013539940118789673,-0.0015310049057006836,-0.007210910320281982
0.03743443638086319,-0.001165939960628748,0.009141704998910427,0.0005523115396499634,-0.0068569183349609375,-0.004393339157104492
-0.0032815427985042334,0.009196637198328972,-0.0013526019174605608,-0.0022063255310058594,-0.005811572074890137,0.015171289443969727
-0.015449505299329758,0.006163415499031544,-0.004554834216833115,-0.0003455430269241333,-0.0006334781646728516,-0.005704820156097412
0.02443927526473999,-0.0038970117457211018,0.003950138576328754,-0.00343252532184124,0.0010973811149597168,-0.0158807635307312
0.04149149730801582,-0.021782269701361656,0.007899872958660126,-0.004959357902407646,0.0029394030570983887,0.0008196234703063965
0.024224407970905304,-0.009604189544916153,0.008519391529262066,-0.0008775889873504639,-0.002407073974609375,0.008231818675994873
-0.020240023732185364,0.010540354996919632,-0.005768306087702513,-0.002519562840461731,-0.003490924835205078,0.007002532482147217
-0.012046052142977715,0.03033355250954628,-0.016785457730293274,-0.0031049102544784546,0.0022666454315185547,-0.004269123077392578
-0.0018329385202378035,0.00042184628546237946,-0.014517741277813911,-0.0016821008175611496,0.0037841796875,-0.00456392765045166
-0.00785878673195839,0.00626839604228735,-0.007344468031078577,-0.0074212998151779175,0.0014812946319580078,0.019138574600219727
-0.04122934862971306,0.021850645542144775,-0.0132595244795084,-0.0068266987800598145,-0.008235752582550049,0.007089376449584961
-0.037007927894592285,0.025259850546717644,-0.010189082473516464,-0.00011049211025238037,-0.0037261247634887695,-0.00810331106185913
-0.0021585356444120407,0.0019278144463896751,-0.022620664909482002,0.001342281699180603,-0.006274044513702393,-0.014236092567443848
-0.0005089510232210159,0.008599339053034782,-0.023997073993086815,-0.001139998435974121,-0.00032126903533935547,-0.009278535842895508
-0.016051003709435463,-0.0064260102808475494,-0.015141192823648453,0.0026986021548509598,-0.002543509006500244,-0.0028131604194641113
-0.02244034968316555,-0.0034482688643038273,-0.00885806791484356,0.0013361293822526932,-0.0070587992668151855,-0.013389766216278076
0.02051359787583351,0.012209328822791576,-0.004178555682301521,0.00439143180847168,-0.009264886379241943,-0.012688517570495605
0.01077672652900219,0.007062162738293409,0.008953952230513096,-0.004826858639717102,-0.0021189451217651367,-0.001404106616973877
0.010118459351360798,0.009537816978991032,0.006773726083338261,0.005697252228856087,-0.0035104751586914062,-0.014577805995941162
0.009518517181277275,0.003536233911290765,0.0016705843154340982,0.005152389407157898,-0.002264678478240967,-0.008710801601409912
0.03189442306756973,0.008788724429905415,0.00434295367449522,0.015033692121505737,-0.002766251564025879,-0.009027719497680664
0.02333659492433071,0.021069686859846115,0.008095993660390377,0.0043426454067230225,-0.00797426700592041,0.014824271202087402
-0.0019379337318241596,0.008371738716959953,0.014515182934701443,0.0018393564969301224,-0.00669938325881958,0.008891701698303223
-0.019057823345065117,-0.0002725711092352867,0.009619085118174553,-0.0036495327949523926,-0.0075408220291137695,-0.0010062456130981445
-0.02239154651761055,-0.019165530800819397,0.005627719219774008,-0.006678028032183647,-0.0009424686431884766,-0.017175793647766113
0.02143782563507557,-0.0027091032825410366,-0.001551418798044324,-0.009168192744255066,-0.004391193389892578,-0.01960170269012451
0.03439066559076309,0.015258162282407284,-0.00902625359594822,-0.0013536512851715088,-0.002096414566040039,-0.010370612144470215
0.023213643580675125,0.0012525983620435,-0.004781708121299744,-0.003193182870745659,-0.0048708319664001465,-0.00044155120849609375
0.004197563976049423,0.0024645233061164618,0.006455673836171627,0.0023265331983566284,-0.006495356559753418,0.0013691186904907227
-0.0028778554406017065,-0.015666358172893524,0.011068056337535381,-0.0006239414215087891,-0.0031597018241882324,0.0005158782005310059
0.035656463354825974,-0.02230832539498806,0.015106030739843845,0.0064765214920043945,-0.0053421854972839355,0.0033364295959472656
-0.011594315059483051,-0.008353134617209435,0.009863030165433884,-0.0006939917802810669,-0.001501917839050293,0.0059015750885009766
-0.029526397585868835,0.01904686912894249,0.004399651661515236,0.0030608028173446655,-0.004759073257446289,-0.00935661792755127
-0.00308269658125937,0.01096351072192192,0.005661165341734886,-0.0014008134603500366,0.0010139942169189453,-0.01055443286895752
0.02874596416950226,-0.013857478275895119,0.006135012023150921,0.0025648027658462524,0.0005004405975341797,-0.00830775499343872
0.020876498892903328,-0.03149455040693283,0.0066476548090577126,-0.0002844184637069702,-0.0002974867820739746,0.003435850143432617
0.009199247695505619,0.015250826254487038,0.0009466109331697226,0.0007540583610534668,-0.004027128219604492,0.0007916688919067383
-0.014834802597761154,0.01478101871907711,0.0006400675047188997,-0.004112599417567253,-0.0016901493072509766,0.0056310296058654785
-0.01810636557638645,-0.019028643146157265,0.002478385576978326,-0.0049412548542022705,-0.00014793872833251953,-0.007371425628662109
0.024510979652404785,-0.02841036394238472,-0.00523286871612072,-0.01003246009349823,-0.005209743976593018,-0.013293981552124023
0.022239260375499725,-0.014630046673119068,-0.007195275276899338,-0.006666913628578186,-0.006641685962677002,0.0011355280876159668
-0.0018816993106156588,0.001944160321727395,-0.01950732059776783,-0.00369308702647686,-0.009106159210205078,-0.0013691186904907227
-0.014246402308344841,-0.00620748708024621,-0.014602826908230782,0.003635108470916748,-0.0035709142684936523,-0.013254761695861816
0.026911310851573944,-0.0022631403990089893,-0.004517632070928812,-0.0011168718338012695,0.0004944205284118652,-0.022451460361480713
0.03433839976787567,-0.004455537535250187,0.00869756005704403,0.008926093578338623,-0.005251944065093994,-0.00936979055404663
-0.0003877519629895687,-0.0069045680575072765,0.0009622178040444851,0.00212039053440094,-0.005927443504333496,0.007994771003723145
0.003854020033031702,0.01476231962442398,0.0017316739540547132,0.0024644583463668823,-0.005835175514221191,-0.00012612342834472656
-0.0006956174038350582,-0.012982014566659927,0.0017838859930634499,0.0033570993691682816,0.0005334615707397461,0.006420135498046875
-0.016057170927524567,-0.018634164705872536,2.559460699558258e-05,0.001796811819076538,0.0015777945518493652,0.008135318756103516
-0.008796175941824913,0.008856600150465965,0.01159767247736454,-0.000640869140625,-0.00034683942794799805,0.007728517055511475
-0.01893567107617855,-0.005706588737666607,0.010092539712786674,-0.008266374468803406,0.0032464265823364258,0.008336365222930908
-0.01869385875761509,0.015609761700034142,-0.0005096812965348363,-0.0024997740983963013,-0.0009357333183288574,0.0013813376426696777
-0.01278492622077465,0.007071965374052525,-0.009026164188981056,0.004802152514457703,-0.0004578828811645508,-0.01440894603729248
-0.012426327913999557,0.0033160827588289976,-0.011290639638900757,0.004857214167714119,-0.002540290355682373,-0.014847397804260254
-0.011246413923799992,-0.020544955506920815,0.005805640015751123,0.0029619336128234863,-9.036064147949219e-05,-0.013060688972473145
0.008004020899534225,-0.004680803045630455,0.006277194246649742,-0.00648854672908783,-0.0005297064781188965,-0.015743553638458252
-0.01363813504576683,-0.002282253932207823,-0.003917159978300333,-0.0030981451272964478,-0.007806301116943359,0.01315462589263916
-0.0240723118185997,0.0058800214901566505,-0.017594918608665466,-0.003511473536491394,-0.013489842414855957,0.004380345344543457
-0.04270815849304199,-0.0024370248429477215,-0.005563970655202866,0.0028502941131591797,-0.007873892784118652,0.00298386812210083
-0.015987753868103027,0.011780321598052979,0.00503267627209425,-0.005087435245513916,-0.0015586614608764648,-0.017573654651641846
0.013630594126880169,-0.0048019178211688995,0.0010679811239242554,0.00046831369400024414,-0.0039955973625183105,-0.0264432430267334
0.018268819898366928,0.012230847962200642,0.00335493846796453,0.00261572003364563,0.002318739891052246,-0.015494048595428467
0.014746548607945442,0.03665519133210182,0.011852692812681198,0.007512107491493225,-0.0019140839576721191,-0.0085374116897583
-0.017365651205182076,0.033412154763936996,0.00935676321387291,0.005921319127082825,-0.008849501609802246,0.019533216953277588
-0.041256535798311234,-0.0016037030145525932,0.002662696409970522,-0.002293957397341728,-0.005523979663848877,0.016646265983581543
-0.014870665967464447,0.0015048366039991379,-0.0070066899061203,-0.00775282084941864,-0.001951456069946289,-0.013400375843048096
0.0016257502138614655,-0.011292367242276669,-0.006232205778360367,-0.0033200234174728394,0.0005791187286376953,-0.020390331745147705
0.00876430980861187,0.0018635024316608906,-0.013852715492248535,-0.006206808611750603,-0.0016211271286010742,-0.012504875659942627
0.010764697566628456,0.016135940328240395,-0.008939169347286224,-0.0032050609588623047,-0.0053955912590026855,-0.00651019811630249
-0.007634259760379791,-0.0066521610133349895,-0.007921393029391766,-0.004244877025485039,-0.002375364303588867,-0.004981637001037598
-0.019253987818956375,-0.0016331193037331104,-0.012940622866153717,-0.0020594894886016846,-0.003326416015625,-0.007220447063446045
-0.01686430722475052,0.010733488947153091,-0.007883668877184391,-0.0010691862553358078,-0.0024405717849731445,-0.003930389881134033
0.020103007555007935,0.004101998172700405,-0.008937892504036427,-0.003700820729136467,0.003434598445892334,-0.011395275592803955
0.050053711980581284,-0.012517192400991917,-0.004124761559069157,-0.0005926042795181274,-0.0009153485298156738,-0.014185428619384766
-0.024416614323854446,-0.0038888398557901382,-5.706446245312691e-05,0.0018688905984163284,-0.003111898899078369,0.013723790645599365
-0.03453007712960243,0.015955645591020584,-0.00812770426273346,-0.010398238897323608,0.0003714561462402344,-4.547834396362305e-05
-0.006561273708939552,-0.006381248589605093,-0.000842665322124958,0.012159079313278198,-0.008186101913452148,-0.01598536968231201
-0.005990802776068449,-0.013502974063158035,-0.012038096785545349,-0.001077800989151001,-0.005037367343902588,0.011532485485076904
-0.014345337636768818,-0.029318567365407944,0.0046149189583957195,0.010952979326248169,-0.01040494441986084,0.0062639713287353516
-0.020742204040288925,0.009120501577854156,0.009011899121105671,-0.0036350786685943604,-0.00279313325881958,0.002305924892425537
-0.011192776262760162,0.018092403188347816,0.009653118439018726,-0.004041031002998352,-0.004196584224700928,-0.014074921607971191
0.005228630267083645,-0.0011862642131745815,-0.009485453367233276,-0.007459953427314758,-0.002885580062866211,-0.013627171516418457
-0.0202484130859375,-0.012909210287034512,-0.022117342799901962,0.0013367235660552979,-0.008959650993347168,-0.0070195794105529785
-0.010670064017176628,0.010108262300491333,-0.012029907666146755,0.004758553579449654,-0.00386655330657959,-0.013519346714019775
-0.002839883090928197,-0.0027742735110223293,0.0017995855305343866,0.0032159537076950073,0.0004024505615234375,-0.013148188591003418
0.017754629254341125,-0.009915758855640888,-0.005726865958422422,-0.005770772695541382,-8.296966552734375e-05,-0.00647890567779541
0.02180563099682331,-0.006986094638705254,-0.0030394180212169886,-0.0012430399656295776,-0.002603888511657715,-0.008400678634643555
0.007432816084474325,0.010413136333227158,-0.011529841460287571,-0.0031758546829223633,-0.0025254487991333008,0.0005623698234558105
0.008061876520514488,0.00355212832801044,-0.012306718155741692,0.006757007911801338,-0.004934251308441162,-0.0065163373947143555
-0.011788012459874153,0.019547902047634125,-0.005831032060086727,-0.00044493377208709717,0.000780642032623291,0.008010029792785645
-0.023099925369024277,0.00116248382255435,0.013921295292675495,-0.0019139498472213745,0.0034269094467163086,0.0005130767822265625
-0.017703048884868622,0.0029109264723956585,0.008741982281208038,-0.0037246644496917725,-0.000943303108215332,0.0028467774391174316
-0.029000379145145416,-0.016429483890533447,-0.01605781354010105,0.00351843424141407,-0.0023915767669677734,0.0023311972618103027
0.029202472418546677,-0.030369730666279793,-0.014349881559610367,0.008333742618560791,-0.0011569857597351074,-0.01822584867477417
0.009612591937184334,0.021492850035429,0.001920222770422697,-0.0026064813137054443,0.004672348499298096,-0.00617063045501709
-0.018210450187325478,0.02988571859896183,0.009588849730789661,-0.009238213300704956,-0.0043448805809021,-0.010893464088439941
-0.024974102154374123,-0.006313870195299387,-0.0024421599227935076,-0.0034016799181699753,-0.009005844593048096,-0.0028468966484069824
0.013937098905444145,0.003229607595130801,-0.014229130931198597,-0.0026791542768478394,-0.0074217915534973145,-0.016329467296600342
-0.014672373421490192,-0.023316599428653717,-0.005289376713335514,0.008009880781173706,-0.007139027118682861,0.002822577953338623
-0.020131811499595642,0.0014347585383802652,0.008823171257972717,-1.1920928955078125e-05,0.00429844856262207,-0.009136676788330078
-0.004427838139235973,0.001790086505934596,0.011299041099846363,0.003706991672515869,-0.003009974956512451,-0.015489935874938965
0.019546672701835632,0.001453315606340766,0.0005521336570382118,-0.004845514893531799,0.0012972354888916016,-0.009010553359985352
0.023440435528755188,0.0023324491921812296,-0.006761964410543442,0.0006051212549209595,-0.0014797449111938477,-0.0013343095779418945
-0.0023058312945067883,0.012272022664546967,-0.005605373531579971,0.007818713784217834,-0.003115236759185791,0.008368730545043945
-0.015085207298398018,-0.0020708460360765457,0.004207315389066935,0.012825235724449158,-0.003993391990661621,0.0032634735107421875
-0.011039089411497116,-0.012483043596148491,0.019217241555452347,0.003909692168235779,0.0010647177696228027,0.003208160400390625
-0.004750053398311138,0.008231092244386673,0.013041112571954727,-0.009352102875709534,0.00903695821762085,0.007046520709991455
-0.015581710264086723,-0.009361413307487965,-0.0109073705971241,-0.010106712579727173,-0.0036962032318115234,-0.008691608905792236
-0.02138715609908104,0.013832161203026772,-0.020741106942296028,-0.0005247890949249268,-0.005029201507568359,-0.017722725868225098
-0.005777149461209774,0.04783560708165169,-0.014585673809051514,-0.0043076276779174805,-0.002315819263458252,-0.019164979457855225
0.01742095686495304,0.01386152021586895,-0.003850226756185293,-0.0016731172800064087,-0.0019852519035339355,-0.012882232666015625
0.011420568451285362,-0.01352696493268013,0.008900344371795654,-0.0021784156560897827,-0.006668150424957275,-0.0056937336921691895
-0.022406259551644325,-0.016615737229585648,0.003835356328636408,-0.0009241998195648193,-0.005805909633636475,0.010399103164672852
-0.028461357578635216,-0.005172500852495432,0.007848365232348442,0.0014420915395021439,-0.0084800124168396,-0.0014940500259399414
0.0031543150544166565,0.025751501321792603,-0.0029894541949033737,-0.009603798389434814,-0.007227420806884766,-0.004436969757080078
0.022382117807865143,0.01123569905757904,0.0026271918322890997,0.0012028981000185013,-0.0041152238845825195,-0.009103477001190186
-0.015429001301527023,0.007814439944922924,0.002973752561956644,-0.0003857165575027466,-0.0021511316299438477,-0.007948100566864014
-0.0027435882948338985,-0.01233460009098053,0.002368183573707938,-0.0036317408084869385,0.0008063912391662598,-0.015281617641448975
0.023311205208301544,-0.016403548419475555,-0.0056069521233439445,0.0027565211057662964,-0.002768218517303467,-0.010931611061096191
0.010575613006949425,-0.003128239419311285,-0.01745191402733326,-0.002659514546394348,-0.0023552775382995605,0.00015497207641601562
0.0051456936635077,0.01668274961411953,-0.0026234323158860207,0.005209103226661682,-0.0010993480682373047,-0.0030556917190551758
-0.014217661693692207,9.462330490350723e-05,0.010099204257130623,-0.0003826301544904709,-0.0012056231498718262,0.002940237522125244
0.0011438066139817238,-0.010775158181786537,-0.003312834072858095,-0.0031322073191404343,-0.0020803213119506836,-0.008194029331207275
0.019126756116747856,-0.028718821704387665,-0.012133047915995121,-0.002754807472229004,0.00012969970703125,-0.009157419204711914
0.009965794160962105,-0.013700107112526894,-0.009945170022547245,0.0012490451335906982,-0.00131988525390625,-0.0027847886085510254
-0.017027851194143295,0.04123717546463013,-0.005057879723608494,-0.002972019836306572,0.00016862154006958008,0.008331298828125
-0.007904880680143833,0.014366957359015942,-0.0012902615126222372,0.002099558711051941,0.003735661506652832,0.0005294084548950195
0.007975880056619644,-0.011189011856913567,-0.013726859353482723,0.001107173040509224,-0.004069268703460693,-0.015088498592376709
0.010549934580922127,-0.017379943281412125,-0.009496180340647697,0.0017290432006120682,0.0004082322120666504,-0.005454361438751221
-0.005485688801854849,0.013901935890316963,0.0010621922556310892,0.001196339726448059,0.0003153681755065918,0.0027712583541870117
-0.01067168265581131,0.02178390696644783,-0.0006078629521653056,-0.001074090600013733,-0.0013471245765686035,0.010071396827697754
0.00018218299373984337,0.004709993023425341,-0.010201171040534973,-0.00575631856918335,-0.0022446513175964355,0.0035109519958496094
-0.006247551646083593,0.008824000135064125,-0.0148059306666255,-0.005893036723136902,-0.008519649505615234,-0.003616809844970703
-0.039368752390146255,0.004121124278753996,-0.007662800140678883,0.00830407626926899,-0.008084774017333984,-0.0007772445678710938
-0.015538323670625687,-0.002536360640078783,-0.0044984398409724236,0.007238926365971565,-0.00837475061416626,-0.016923487186431885
0.03538934886455536,-0.01436491496860981,0.003445911919698119,-0.00022880733013153076,-0.0006985664367675781,-0.02601712942123413
0.02833894081413746,-0.011810002848505974,0.00841950811445713,-0.0044542402029037476,-0.0009301900863647461,-0.010348975658416748
0.0008261352777481079,0.027294130995869637,0.0013878403697162867,-0.004617512226104736,-0.008888840675354004,-0.0034202933311462402
-0.006227380130439997,0.017158780246973038,-0.00432719849050045,-0.00017657876014709473,-0.012993812561035156,-0.008277058601379395
0.022861996665596962,-0.002783483359962702,0.0016128781717270613,0.0014370530843734741,-0.0043947696685791016,-0.016420722007751465
0.01958499662578106,0.009932415559887886,0.019374260678887367,0.0004085171967744827,0.003687620162963867,-0.01519554853439331
0.010504106990993023,0.0080342385917902,0.024584859609603882,-6.27320259809494e-05,0.0035638809204101562,-0.001945197582244873
0.019868336617946625,-0.007860800251364708,0.00961620919406414,0.0025359392166137695,-0.00041282176971435547,-0.005351662635803223
0.029664911329746246,0.0004859091714024544,-0.01567678526043892,-0.003085091710090637,-0.00045180320739746094,-0.006150007247924805
0.002332707867026329,0.010757324285805225,-0.00517315324395895,0.0076993852853775024,-0.0002129077911376953,0.010128378868103027
-0.017113158479332924,0.02196051925420761,0.002638815902173519,-0.0021297186613082886,-0.0015532970428466797,0.0011924505233764648
0.001636645756661892,-0.0007968288846313953,0.00968138501048088,0.001902073621749878,0.0023872852325439453,-0.005007266998291016
0.015894390642642975,-0.00579574890434742,0.003559564473107457,-0.0022985339164733887,-2.980232238769531e-07,-0.0044171810150146484
0.016330260783433914,-0.0009535416029393673,-0.011045446619391441,-0.0036594420671463013,-0.0016036033630371094,-0.009140849113464355
0.018423214554786682,0.008349372074007988,-0.0020033952314406633,0.001146184280514717,-0.003497004508972168,-0.012873947620391846
-0.005318842362612486,0.02471858821809292,0.0022941138595342636,-0.008367583155632019,-0.005612194538116455,0.0006075501441955566
0.0005536503158509731,0.0020468977745622396,0.010804848745465279,-0.0017184168100357056,-0.0037528276443481445,-0.005083203315734863
0.0010289349593222141,-0.020958730950951576,-0.0010799462907016277,0.0017698854207992554,-0.005982637405395508,-0.0026958584785461426
0.013193013146519661,-0.01627378724515438,-0.0037812842056155205,-0.0009881705045700073,-0.007306575775146484,-0.006338894367218018
0.0029379557818174362,-0.013078831136226654,-0.0041820029728114605,-0.005401000380516052,-0.0010327696800231934,-0.008218824863433838
0.010938667692244053,0.008068940602242947,0.009741411544382572,0.0029463618993759155,-0.0052376389503479,-0.014909863471984863
-0.029877759516239166,0.01598242111504078,0.011348133906722069,-0.002648457884788513,-0.0016425848007202148,0.009167194366455078
0.00031156884506344795,0.005021914839744568,0.003324828576296568,0.0017174333333969116,-0.005889773368835449,-0.017551779747009277
0.03892658278346062,-0.01612468808889389,-0.014275915920734406,0.0005965083837509155,-0.0056449174880981445,-0.013304829597473145
0.022248048335313797,-0.02520672418177128,-0.015889650210738182,0.0019527077674865723,-0.005465447902679443,-0.004665076732635498
0.005418933462351561,0.026768140494823456,-0.003903347533196211,0.003757476806640625,-0.007551670074462891,-0.007288217544555664
-0.0268284622579813,-0.003103695809841156,0.017359241843223572,0.003502771258354187,-0.003600776195526123,0.0074988603591918945
0.011675657704472542,-0.015145689249038696,0.008157290518283844,-0.0011772941797971725,-0.004923045635223389,-0.007364749908447266
0.037184055894613266,-0.016321806237101555,0.0040816087275743484,0.0031102895736694336,-0.0031255483627319336,-0.01129823923110962
0.033932868391275406,0.0030686701647937298,-0.0006769277388229966,0.004373237490653992,-0.0020935535430908203,-0.010604143142700195
0.007405431009829044,0.02922525443136692,-0.001423854031600058,0.0006133168935775757,-0.0048760175704956055,0.0009061694145202637
0.011659832671284676,0.018118996173143387,0.011719072237610817,0.006496652960777283,3.129243850708008e-05,-0.008151531219482422
0.014548161067068577,0.006661572493612766,0.016008881852030754,0.0015154331922531128,0.0019179582595825195,0.0015241503715515137
0.01824953407049179,-0.0007648556493222713,0.003914063796401024,-0.0011776983737945557,-0.0002803802490234375,-0.004426121711730957
0.0198806319385767,-0.01364654116332531,-0.002559503773227334,0.005273701623082161,-0.0026009678840637207,-0.008041203022003174
0.01036577858030796,-0.010389572009444237,-0.014866072684526443,-0.001976996660232544,-0.0029091835021972656,-0.001547694206237793
0.02843892201781273,-0.010141470469534397,-0.0009956369176506996,0.0009484440088272095,-0.0009407997131347656,-0.01058882474899292
0.04718668758869171,0.010479101911187172,0.0010901326313614845,-0.009780213236808777,-0.002781689167022705,-0.0017204880714416504
0.012813134118914604,0.012423369102180004,0.015958987176418304,0.0040358006954193115,-0.004588007926940918,0.006472170352935791
-0.019244622439146042,0.016059525310993195,0.000459267757833004,-0.00825721025466919,-0.006662547588348389,0.0033756494522094727
0.016424136236310005,-0.012660054489970207,-0.007168198935687542,0.0007396489381790161,-0.0018802881240844727,-0.01864832639694214
0.03587391600012779,-0.020540308207273483,-0.0062586041167378426,-0.009268999099731445,-0.0036034584045410156,-0.010131239891052246
-0.006206185556948185,0.01033814251422882,0.0038581588305532932,-0.005222901701927185,-0.004063725471496582,0.01253056526184082
-0.037002891302108765,0.013561110943555832,0.013167527504265308,0.001671522855758667,-0.005564451217651367,0.021972358226776123
-0.010454326868057251,0.012007525190711021,0.003360781818628311,0.001956164836883545,-0.004546999931335449,-0.004596531391143799
0.03364948555827141,-0.028241626918315887,-0.0031858007423579693,0.008224278688430786,-0.002253890037536621,-0.019396722316741943
0.03541089966893196,-0.006092117168009281,-0.007495327852666378,-0.001391589641571045,-0.0034005045890808105,-0.01194918155670166
-0.007689877413213253,0.01563316583633423,-0.002372184069827199,0.0021485090255737305,-0.007732868194580078,0.0014805197715759277
-0.030883701518177986,0.003970903344452381,-0.007332076318562031,-0.006054043769836426,-0.006357669830322266,0.009794414043426514
0.01879248581826687,-0.02399366907775402,0.0024202463682740927,-0.0011143684387207031,0.0011668801307678223,-0.019135773181915283
0.027144715189933777,-0.015243004076182842,0.011999011039733887,-0.0027829837054014206,-0.002739250659942627,-0.014351427555084229
-0.019456297159194946,0.01817142963409424,0.001670514466241002,-0.0027192216366529465,-0.004053890705108643,0.0007721185684204102
0.012907743453979492,0.021893223747611046,-0.005011488683521748,0.00032754242420196533,-0.004896402359008789,-0.013401269912719727
0.015230134129524231,-0.00789644755423069,-0.006865473464131355,-0.0024146586656570435,0.00015556812286376953,0.004076719284057617
0.024821527302265167,0.0006301179528236389,0.0013453168794512749,0.0007312595844268799,-0.0026355981826782227,0.0010063648223876953
0.0038623828440904617,-0.010982248932123184,-0.0017551886849105358,0.0007476974278688431,0.0004239678382873535,0.013886988162994385
-0.012294304557144642,-0.02256249077618122,-0.006001083180308342,0.0040137190371751785,-0.004043757915496826,-0.005324661731719971
0.006071743089705706,0.021459925919771194,-0.01663573831319809,-0.006581664085388184,-0.003412604331970215,-0.011063098907470703
-0.007762648165225983,0.008435739204287529,-0.010372964665293694,0.002109156921505928,-0.003444373607635498,-0.0038889050483703613
0.00237196683883667,0.0009142972994595766,0.007099892944097519,0.0007153451442718506,-0.0048490166664123535,-0.01487743854522705
0.01853134110569954,-9.492039680480957e-06,0.009448464028537273,-0.0009824316948652267,-0.004966795444488525,-0.011249184608459473
0.012913201935589314,-0.003147789277136326,-0.008346136659383774,-0.004972083494067192,-0.007319152355194092,0.003306090831756592
0.02304888516664505,0.005918670911341906,-0.012204231694340706,0.0013742148876190186,-0.006910443305969238,0.0002129673957824707
-0.018177827820181847,0.0024838210083544254,-9.82407946139574e-05,0.00042846985161304474,-0.004727303981781006,0.009577631950378418
-0.025968261063098907,-0.002395827788859606,0.012061947956681252,-0.001676604151725769,-0.0032927393913269043,0.004253208637237549
0.009829040616750717,-0.02841850183904171,0.013706741854548454,0.006261065602302551,-0.004385888576507568,-0.007305264472961426
0.019101902842521667,-0.034529127180576324,0.0034090958070009947,-0.00110672228038311,-0.0020151734352111816,-0.00815349817276001
0.004064429085701704,-0.010543113574385643,-0.004123554565012455,0.0016512870788574219,-0.001420736312866211,-0.00786137580871582
0.0008590691722929478,0.027175337076187134,-0.005914300214499235,-0.008190780878067017,0.0007396936416625977,-0.0030871033668518066
-0.015707967802882195,0.017971359193325043,0.004788595251739025,0.0028889626264572144,-0.0051457881927490234,0.01052790880203247
-0.017212985083460808,-0.00022152205929160118,0.00399001594632864,-0.008567824959754944,0.00021576881408691406,0.0076378583908081055
0.01745675504207611,-0.015503830276429653,-0.0026577813550829887,-0.00350092351436615,-0.003660857677459717,-0.015199124813079834
-0.007532528601586819,0.006550263147801161,-0.014004274271428585,-0.0011643916368484497,-0.005524873733520508,-0.004330277442932129
-0.014111513271927834,0.020365964621305466,-0.013155773282051086,-0.00012712180614471436,-0.0047484636306762695,0.0015516281127929688
0.002354701515287161,0.017768193036317825,-0.00299126491881907,-0.0008911043405532837,-0.0019155144691467285,-0.007578074932098389
0.0056483447551727295,0.007734260521829128,0.00290303910151124,0.00020697712898254395,-0.005869030952453613,-0.004131674766540527
-0.006256252061575651,0.020191729068756104,0.0036660348996520042,0.0007586181163787842,-0.007070064544677734,-0.006056427955627441
-0.015915382653474808,-0.0014283438213169575,0.009336558170616627,0.009838446974754333,-0.0040580034255981445,-0.009828329086303711
0.00326350424438715,0.006206297315657139,0.00478191627189517,-0.005589127540588379,-0.003214120864868164,-0.009929537773132324
0.021911360323429108,0.0046131606213748455,0.007130040321499109,0.0052169859409332275,-0.005058646202087402,-0.002101898193359375
0.02464737929403782,0.004205184057354927,0.0018552257679402828,-0.003170175477862358,-0.005456447601318359,-0.002171814441680908
-0.008986881002783775,-0.009303534403443336,0.0008327292744070292,0.006924822926521301,-0.00626373291015625,0.004443168640136719
-0.010370634496212006,0.00021989177912473679,0.009225288406014442,0.0013075768947601318,-0.004589736461639404,-0.00800621509552002
0.022169707342982292,0.003352605737745762,0.01735764369368553,-0.005957379937171936,-0.0010526776313781738,-0.023453474044799805
0.015553481876850128,0.00173383136279881,0.005166651681065559,-0.0038089007139205933,-0.001962423324584961,-0.0024671554565429688
0.01133805327117443,0.0019843962509185076,-0.009948154911398888,-0.005894124507904053,-0.007911860942840576,-0.0018765926361083984
0.004689472261816263,-0.009669807739555836,-0.006567216478288174,0.00014115869998931885,-0.0019019842147827148,0.004528701305389404
-0.005346227437257767,0.010790964588522911,0.007075497880578041,-0.010411649942398071,0.0008717179298400879,0.009570419788360596
-0.007814645767211914,0.008300205692648888,0.02098405361175537,0.002666652202606201,-0.001291036605834961,0.003604114055633545
0.0021652388386428356,-0.005639396607875824,0.000966846477240324,0.0031224489212036133,-0.005941510200500488,-0.010622978210449219
0.01607106812298298,-0.03364162892103195,-0.016146786510944366,0.005548253655433655,-0.0021944642066955566,-0.01792442798614502
0.020572587847709656,-0.003907676320523024,-0.016017932444810867,-0.0019041895866394043,-0.0028963685035705566,-0.01025468111038208
0.007361111231148243,-0.0002887556329369545,-0.0017952944617718458,-0.002953946590423584,-4.172325134277344e-06,0.007523179054260254
0.0019221589900553226,-0.030021248385310173,0.014705881476402283,0.008805185556411743,-0.005153834819793701,0.0019981861114501953
0.016043128445744514,-0.020012598484754562,0.016908813267946243,-0.00213603675365448,-0.003167867660522461,0.003177344799041748
-0.020525269210338593,-0.013476667925715446,0.01436203345656395,-0.0024665426462888718,-0.0018100142478942871,0.01178288459777832
-0.03897948935627937,-0.019040338695049286,-0.004228624515235424,-0.008925363421440125,-0.0032859444618225098,-0.008728861808776855
0.0027008899487555027,-0.035825032740831375,0.0041788499802351,0.008204132318496704,0.005065262317657471,-0.022353768348693848
0.009694905951619148,-0.045559853315353394,-0.022704200819134712,-0.018466323614120483,1.7344951629638672e-05,-0.01155763864517212
-0.014250729233026505,0.07992527633905411,-0.026478229090571404,-0.031787723302841187,0.06701600551605225,0.005906939506530762
-0.058869775384664536,-0.03536766767501831,0.010614875704050064,0.04314930737018585,-0.05049198865890503,0.03669238090515137
-0.035584647208452225,-0.031282562762498856,-0.023206381127238274,-0.0032047927379608154,0.006756305694580078,0.005656838417053223
-0.019443783909082413,-0.027895009145140648,0.0024317484349012375,0.014217764139175415,-0.004794061183929443,-0.010483980178833008
-0.01308266632258892,0.0010263235308229923,0.0017718886956572533,-0.00026851892471313477,-0.001215815544128418,-0.026040315628051758
0.02227197214961052,0.008086107671260834,-0.002987308893352747,-0.009476123377680779,-0.004072010517120361,-0.027834951877593994
0.0041121430695056915,-0.004142062272876501,-0.0015870188362896442,0.0004235953092575073,-0.014367640018463135,-0.0014601945877075195
-0.0340803824365139,0.0023095461074262857,-0.003504918422549963,0.0012442171573638916,-0.0128859281539917,0.018909573554992676
-0.047384049743413925,0.017717735841870308,-0.020373044535517693,-0.012086151167750359,-0.0026442408561706543,0.007812857627868652
-0.04630158841609955,-0.012654286809265614,-0.005648835562169552,0.000724034383893013,-0.003141343593597412,0.007560789585113525
-0.018562542274594307,-0.007530934643000364,0.029774365946650505,0.008782193064689636,-0.007016956806182861,-0.018912017345428467
-0.00508377468213439,-0.00029090745374560356,0.07535045593976974,0.024897590279579163,-0.010788798332214355,-0.009481251239776611
0.00373282004147768,-0.0060413917526602745,0.03079972043633461,0.007842212915420532,-0.014627814292907715,-0.036859095096588135
-0.049005068838596344,0.019208509474992752,-0.04070262238383293,-0.040466293692588806,0.014203667640686035,0.0170823335647583
-0.014396870508790016,-0.04149490222334862,-0.017197012901306152,-0.0003769397735595703,0.008680880069732666,-0.013955831527709961
0.05476804077625275,0.030680879950523376,0.014019887894392014,-0.002245396375656128,0.00501251220703125,-0.02863776683807373
-0.010595251806080341,0.0026252754032611847,0.021929742768406868,0.010876789689064026,-0.009557545185089111,-0.00327301025390625
-0.04543672129511833,-0.005591278895735741,-0.011076033115386963,-0.002364678308367729,-0.010745584964752197,0.014667809009552002
0.011998007073998451,-0.011609608307480812,-0.017731279134750366,-0.01108635775744915,-0.00195997953414917,-0.0173225998878479
0.007016853429377079,-0.0057218498550355434,-0.014599224552512169,-0.012623980641365051,0.004568934440612793,-0.0021650195121765137
0.0043471455574035645,0.023517323657870293,-0.0019908249378204346,-0.0002818107604980469,-0.004320383071899414,-0.0027850866317749023
0.006492723245173693,0.010208994150161743,0.0038349106907844543,0.0013656467199325562,-0.007818162441253662,-0.009281039237976074
0.010640418156981468,-0.026775816455483437,0.0025164340622723103,0.004866927862167358,-0.006778419017791748,-0.014603018760681152
0.01252666674554348,-0.018251704052090645,0.004094892647117376,-0.004785910248756409,-0.00032699108123779297,-0.004859566688537598
-0.0018671858124434948,-0.03295000642538071,0.0033235836308449507,-0.00714854896068573,0.0006644129753112793,-0.00334322452545166
5.266396328806877e-05,-0.012344375252723694,0.0017334993463009596,-0.004800841212272644,-0.0015634894371032715,-0.0036396384239196777
0.00453168386593461,0.008778136223554611,-0.005161317065358162,-0.005731821060180664,-0.004567384719848633,-0.00015175342559814453
-0.02877030521631241,-0.016277719289064407,-0.004274572245776653,0.005931437015533447,-0.0058762431144714355,0.00972282886505127
-0.009395232424139977,-0.004076245240867138,-0.008684040047228336,-0.008408084511756897,0.002516031265258789,-0.004236817359924316
0.016018228605389595,0.004587649833410978,-0.006315969862043858,-0.001145869493484497,-0.0008641481399536133,-0.020469069480895996
0.008484636433422565,-0.01847476325929165,-0.008300462737679482,0.004059061408042908,0.0003746151924133301,-0.0034493207931518555
0.007727430202066898,-0.02803586795926094,-0.006876761093735695,-0.0024478286504745483,0.0016508698463439941,-0.006372272968292236
0.0001500248908996582,0.0026550188194960356,0.001538094598799944,0.0006386637687683105,-0.0019819140434265137,0.005830883979797363
-0.05906336009502411,0.015128234401345253,0.0036234103608876467,-0.0014414936304092407,-0.0030933618545532227,0.027472078800201416
-0.033220160752534866,-0.013393145054578781,0.0014165651518851519,0.008959382772445679,-0.00312960147857666,-0.01019144058227539
-0.002304475288838148,-0.009113455191254616,-0.01119308639317751,0.002195417881011963,-0.0054187774658203125,-0.010011553764343262
-0.005391724407672882,-0.016052313148975372,-0.0015693709719926119,0.007010534405708313,-0.0018243789672851562,-0.009133398532867432
0.005958246998488903,0.017548318952322006,0.001937940949574113,-0.00638088583946228,-0.002783358097076416,-0.0136260986328125
-0.008304732851684093,-0.006506160367280245,0.014238966628909111,0.004114851355552673,-0.0069887638092041016,-0.011015355587005615
0.006068012677133083,-0.01053430512547493,0.0003630896098911762,-0.006876856088638306,-0.0021209716796875,-0.015220046043395996
0.010652001947164536,-0.01086433231830597,0.006519057787954807,0.005016639828681946,-0.005583643913269043,-0.017279386520385742
-0.0024999745655804873,-0.005755776539444923,0.014136589132249355,0.008199155330657959,-0.0005407333374023438,-0.007415771484375
0.02844502404332161,0.004887766670435667,0.008845899254083633,-0.002035975456237793,0.00045287609100341797,-0.022693395614624023
0.010035368613898754,0.00624854676425457,0.003715885104611516,-0.003200916573405266,-0.0003275275230407715,0.006496727466583252
-0.013989407569169998,-0.0033144401386380196,0.00822744145989418,0.0024648457765579224,-0.004338502883911133,0.011971235275268555
-0.026155680418014526,0.01653842255473137,0.004275239538401365,-0.006380990147590637,-0.002064347267150879,0.01764202117919922
-0.004179275594651699,0.0011974936351180077,0.006241397466510534,0.005069941282272339,-0.001322031021118164,-0.007827162742614746
0.005976976826786995,0.015419142320752144,0.00041756010614335537,-0.0042556822299957275,0.0013821721076965332,-0.012253820896148682
-0.02090807817876339,0.014295837841928005,0.009676591493189335,0.00579659640789032,-0.002290487289428711,-0.007099270820617676
-0.028704924508929253,0.008290158584713936,0.0031856894493103027,-0.006641194224357605,-0.002131938934326172,-0.0045590996742248535
0.0076578096486628056,-0.027100777253508568,0.003367799101397395,-0.002000957727432251,-0.0034806132316589355,-0.024571716785430908
0.01988733373582363,-0.012249612249433994,-0.0030819373205304146,-0.005533857271075249,-0.002954423427581787,-0.015280723571777344
0.006628675386309624,0.00025274790823459625,0.0012230779975652695,-0.0014412850141525269,-0.000815272331237793,-0.005991578102111816
-0.0181864146143198,0.017181824892759323,0.010360689833760262,0.00041738152503967285,-0.008912205696105957,0.011057138442993164
-0.03343028202652931,0.004139857366681099,0.006129688583314419,-0.0008823703974485397,-0.002366960048675537,0.01467806100845337
-0.0002993163652718067,-0.0217804703861475,0.002179331611841917,-0.0015388429164886475,-0.0012487173080444336,-0.00839465856552124
0.011785642243921757,-0.02856011502444744,0.007368350401520729,0.00020626187324523926,0.001498579978942871,-0.019242167472839355
-0.011153629049658775,-0.0072115701623260975,0.00551382452249527,-0.0016266554594039917,0.0017559528350830078,0.0016075968742370605
-0.003959298599511385,0.003888617968186736,0.00816127099096775,0.0001808255910873413,0.003191232681274414,-0.008727014064788818
-0.006246998906135559,-0.0068567898124456406,0.0009008715860545635,-0.002719476819038391,-0.0019768476486206055,-0.0022140145301818848
-0.010452174581587315,-0.03230050578713417,-0.008396899327635765,-0.0017169713973999023,-0.0018171072006225586,-0.008726298809051514
-0.00527177145704627,-0.019105779007077217,-0.011869160458445549,-0.002696126699447632,-0.004861176013946533,-0.01054161787033081
-0.029869569465517998,-0.0004219808615744114,-0.008731034584343433,-0.00018550455570220947,-0.005160093307495117,-0.0002224445343017578
-0.024949979037046432,0.01675868034362793,-0.005248736590147018,-0.0039511751383543015,-0.005084335803985596,-0.007004082202911377
-0.002675943775102496,-0.001524781808257103,-0.0091701690107584,-0.006813747808337212,-0.0014486312866210938,-0.011903107166290283
0.0014308728277683258,-0.03728962689638138,-0.010708878748118877,0.004059897735714912,-0.0046582818031311035,-0.011095643043518066
-0.004159990698099136,-0.02735493704676628,0.0016386385541409254,0.005596980452537537,-0.0077904462814331055,-0.007412910461425781
-0.013951389119029045,-0.008955437690019608,0.012374535202980042,-0.000302925705909729,-0.0009152889251708984,-0.0005589723587036133
-0.00988847203552723,0.001271283719688654,-0.00017680414021015167,-0.011216536164283752,-0.0004863739013671875,-0.00466078519821167
-0.00484519824385643,-0.002344944979995489,-0.018778890371322632,-0.010422393679618835,-0.0016400814056396484,0.0003841519355773926
-0.0008724513463675976,-0.013503728434443474,-0.02316247671842575,0.00021149218082427979,-0.004659712314605713,-0.004052996635437012
-0.0012916987761855125,-0.0008400073274970055,-0.010779833421111107,0.00759202241897583,-0.0015454292297363281,-0.00587230920791626
-0.01752963662147522,-0.011752150021493435,-0.0011527633760124445,1.6614794731140137e-05,0.0018666386604309082,-0.007282853126525879
-0.007647531107068062,-0.005026541650295258,0.004659963306039572,-0.00016778334975242615,0.0006198287010192871,-0.008842229843139648
0.0113290436565876,0.00018243072554469109,-0.01952015608549118,-0.012751340866088867,0.0012163519859313965,-0.012920260429382324
-0.002604460110887885,-0.02721761353313923,-0.024491464719176292,0.0054466016590595245,-0.002375006675720215,-0.010899960994720459
-0.007883843965828419,-0.019272368401288986,-0.026845591142773628,-0.0009596608579158783,-0.00232619047164917,0.003041684627532959
-0.03140952065587044,0.0035055859480053186,-0.012757129967212677,0.0012942105531692505,-0.003430485725402832,0.015582084655761719
-0.032812848687171936,-0.00309916865080595,-0.02122703194618225,0.002480924129486084,0.00014209747314453125,0.002239227294921875
-0.015970442444086075,-0.004248512908816338,-0.00859183631837368,0.013610318303108215,-0.0036929845809936523,-0.0007069706916809082
-0.0037685497663915157,-0.01796366274356842,-0.013526812195777893,-0.003610283136367798,0.006818652153015137,-0.005094289779663086
0.006155653391033411,0.016374582424759865,-0.006375328171998262,-0.0024016648530960083,-0.004949331283569336,-0.0063751935958862305
0.003344221506267786,-0.004863411653786898,-0.008748948574066162,-0.010530602186918259,-0.009267628192901611,-0.019575774669647217
-0.01199212484061718,0.011004604399204254,-0.013102836906909943,-0.009921357035636902,-0.006075441837310791,-0.011587679386138916
-0.02013673633337021,-0.012927031144499779,-0.009326697327196598,-0.001556694507598877,-0.005531966686248779,-0.018575072288513184
0.015051743946969509,-0.006677452940493822,-0.005221211351454258,-0.001907065510749817,-0.0013544559478759766,-0.025576353073120117
0.03563518077135086,-0.010918157175183296,-0.006018728017807007,-0.0006352923810482025,0.000979304313659668,-0.01636737585067749
0.036122873425483704,-0.014349984005093575,-0.005238637328147888,0.0007728226482868195,-0.0010023117065429688,-0.011468708515167236
0.021569520235061646,0.0016953859012573957,-0.004419744946062565,-0.002210274338722229,0.00020623207092285156,0.007616162300109863
-0.0059996796771883965,0.013507899828255177,0.0007539063226431608,0.0015445947647094727,-0.003212869167327881,0.018736660480499268
-0.01736389845609665,0.002121071796864271,-0.0026150853373110294,0.002206370234489441,-0.000391542911529541,0.013774275779724121
0.02059287205338478,0.0007271359208971262,-0.010007105767726898,-0.003558412194252014,0.009454309940338135,-0.016120314598083496
0.013777730986475945,0.0008687118533998728,-0.009628396481275558,0.0040090084075927734,0.0017492175102233887,-0.01504528522491455
-0.04198411479592323,0.0019772443920373917,-0.010381948202848434,0.004332408308982849,0.0013561248779296875,0.007625699043273926
-0.024380439892411232,0.003838291857391596,-0.013232288882136345,-0.0020677000284194946,-0.00046443939208984375,-0.005362153053283691
0.022761816158890724,-0.006654955446720123,-0.014912333339452744,-0.005735710263252258,0.0028481483459472656,-0.014912784099578857
0.005855381954461336,-0.0023597460240125656,-0.010052668862044811,0.0018710345029830933,-0.00502932071685791,-0.01124274730682373
-0.028437787666916847,0.011506238952279091,0.0017458926886320114,0.0021596401929855347,-0.005676746368408203,0.001436769962310791
-0.02223670482635498,-0.0002017575316131115,0.00655860360711813,-0.0029578059911727905,-0.0007530450820922852,-0.004706978797912598
0.008321736007928848,-0.0009655812755227089,-0.001277020201086998,-0.0015470683574676514,-0.003439664840698242,-0.00704115629196167
-0.003227285109460354,-0.013015225529670715,0.0019649278838187456,-0.0018621832132339478,-0.0017418861389160156,0.003480374813079834
0.018557418137788773,0.008743150159716606,0.01099766232073307,0.0006760209798812866,-0.006022632122039795,-0.005625426769256592
-0.02913331426680088,-0.0039062057621777058,0.004566613584756851,0.001267164945602417,-0.00014609098434448242,-0.005022585391998291
-0.012200428172945976,-0.014877243898808956,-0.0028847595676779747,-0.0004205256700515747,-0.003247201442718506,-0.016166090965270996
0.027386818081140518,0.008331875316798687,-0.008886920288205147,-0.006217997521162033,0.0006284713745117188,-0.022038042545318604
-0.008362170308828354,0.006002313457429409,-0.0003177496837452054,0.004043269902467728,-0.004409611225128174,0.011881232261657715
-0.03443799912929535,0.007283201441168785,0.0067796045914292336,0.006553053855895996,-0.005275368690490723,0.00976628065109253
-0.01799648627638817,0.015241056680679321,0.007210842799395323,0.0019979625940322876,-0.006382942199707031,-0.006250739097595215
-0.002532510319724679,0.007925914600491524,0.0008463179692625999,-0.004792898893356323,0.0038565397262573242,-0.012626290321350098
0.021978026255965233,0.00198318250477314,-0.004064182750880718,-0.00440669059753418,-0.001716911792755127,-0.018508851528167725
0.013261321932077408,0.016068072989583015,0.006512257736176252,0.007567703723907471,-0.006164431571960449,-0.006568431854248047
-0.03359100595116615,0.010215138085186481,0.011409439146518707,0.006556600332260132,-0.008186101913452148,0.009561002254486084
-0.01748005673289299,-0.00013370206579566002,0.01972283236682415,0.009359242394566536,-0.010339558124542236,-0.005548298358917236
0.009434938430786133,0.008723827078938484,0.013194136321544647,-0.010451197624206543,-0.0003377199172973633,-0.015359878540039062
0.011859523132443428,-0.01226181723177433,0.01185031607747078,-0.0054245442152023315,-0.0021724700927734375,-0.01475292444229126
0.014334244653582573,0.01030660793185234,0.0013418940361589193,-0.01212473027408123,-0.0013234615325927734,-0.011428117752075195
0.03470056876540184,0.018514003604650497,0.0043959710747003555,-0.0022956132888793945,-0.00853651762008667,-0.005583643913269043
0.011949492618441582,0.011857273057103157,0.004170209169387817,-0.002087727189064026,-0.010564565658569336,0.007305026054382324
0.015984714031219482,0.023657958954572678,0.007635721005499363,-0.007931573316454887,-0.00019913911819458008,-0.003151118755340576
0.03723372146487236,0.009582653641700745,0.0009280559606850147,-0.0031726956367492676,-0.0037117600440979004,-0.02578967809677124
0.02565203420817852,0.009597187861800194,-0.0020340129267424345,0.002412855625152588,-0.009257078170776367,-0.011771321296691895
0.007503723260015249,-0.030049899592995644,-0.00877548847347498,0.004641547799110413,-0.010657250881195068,-0.003966689109802246
0.025744179263710976,-0.007002073340117931,-0.008196629583835602,-0.00873740017414093,-0.0014609098434448242,0.000952601432800293
0.02105635032057762,0.011426572687923908,-0.007095039822161198,-0.008914723992347717,0.0006282925605773926,0.006335318088531494
0.01258021965622902,0.020947452634572983,-0.001382192480377853,0.009315446019172668,-0.006826162338256836,0.014295041561126709
0.021031983196735382,-0.005652915686368942,-0.017772559076547623,-0.005204677581787109,-0.002493441104888916,-0.009371638298034668
0.004817681852728128,-0.02348548173904419,-0.010527197271585464,0.004900217056274414,-0.0030475258827209473,-0.007700681686401367
0.0335085391998291,-0.00290846498683095,-0.012074082158505917,-0.00987805426120758,0.007467031478881836,-0.027892470359802246
0.02878284454345703,0.005379761569201946,-0.007370250299572945,0.0014688670635223389,-0.0035070180892944336,-0.0022389888763427734
0.017839785665273666,-0.001982389949262142,-0.006355689838528633,-0.0006892383098602295,-0.0020012855529785156,-0.0003737211227416992
0.009609950706362724,-0.003103471826761961,-0.005396848078817129,0.0008032172918319702,-0.005606293678283691,-0.0063582658767700195
0.007349126040935516,-0.023812666535377502,-0.006370551884174347,0.0009822249412536621,-0.0027060508728027344,-0.004103243350982666
0.020779447630047798,-0.008884316310286522,-0.021583061665296555,-0.010341286659240723,0.0026151537895202637,-0.0007309913635253906
0.027512162923812866,0.006659175269305706,-0.01205870509147644,0.0024417340755462646,0.0009627938270568848,0.003288745880126953
-0.002808368531987071,0.025059659034013748,-0.004063187167048454,0.004805177450180054,-0.0046561360359191895,0.01637411117553711
-0.026980992406606674,0.01426049042493105,-0.011589840054512024,0.0010799039155244827,-0.006320059299468994,0.011551141738891602
0.007782201748341322,-0.006149907596409321,-0.002191909123212099,0.00783965177834034,-0.0040593743324279785,-0.014571130275726318
0.032024603337049484,-0.009607994928956032,-0.0013950481079518795,-0.0019565504044294357,-0.001103222370147705,-0.016895055770874023
0.042162079364061356,0.007420890498906374,0.0029661008156836033,0.005094513297080994,-0.004522144794464111,-0.013052761554718018
0.016147412359714508,0.019494060426950455,-0.0010018855100497603,-0.0011548083275556564,-0.006336688995361328,-0.008264720439910889
-0.003155290149152279,-0.002591385506093502,-0.005515393801033497,-0.0006633233278989792,-0.004178225994110107,-0.006237030029296875
0.02685817889869213,-0.01073295809328556,-0.0025997802149504423,0.0018767863512039185,-0.0032872557640075684,-0.005346715450286865
0.017024191096425056,0.0037680163513869047,-0.0033741772640496492,0.0011178255081176758,-0.002199530601501465,0.007051706314086914
0.012327395379543304,0.004624613095074892,-0.0002541602589190006,0.003776252269744873,-0.004100441932678223,0.005980014801025391
0.034050777554512024,0.00951386522501707,-0.004992099478840828,-0.0019106864929199219,-0.004523217678070068,-0.016541779041290283
0.008681374602019787,0.007010000757873058,-0.00543625745922327,-0.0006026476621627808,-0.0026416778564453125,-0.004882931709289551
-0.021229520440101624,-0.022087164223194122,0.0012027437333017588,0.0014174282550811768,-0.005757391452789307,-0.00047659873962402344
-0.0005415086634457111,-0.022035129368305206,0.007459120359271765,0.003679141402244568,-0.0056043267250061035,-0.011057734489440918
0.009769141674041748,0.002230958780273795,0.010852973908185959,-0.0012200456112623215,-0.0029769539833068848,-0.0012140870094299316
0.029308045282959938,-0.0005155503749847412,0.012614679522812366,0.003434300422668457,-0.00039958953857421875,-0.011501908302307129
0.039215557277202606,0.007144555449485779,0.006286379415541887,-0.004084572196006775,-0.0007962584495544434,-0.013898491859436035
-0.012859759852290154,-0.014174319803714752,0.014348829165101051,0.007140981033444405,-0.010667800903320312,0.009050607681274414
0.007828584872186184,0.003685500705614686,0.007761209271848202,-0.0023959707468748093,-0.0024414658546447754,-0.004113137722015381
0.021809425204992294,0.0004004174843430519,-0.02252938225865364,-0.01976311206817627,0.0015302300453186035,-0.005068778991699219
0.004819323308765888,0.014375757426023483,-0.0108948377892375,0.00036554038524627686,-0.00506514310836792,0.008564531803131104
0.001208544708788395,0.027651630342006683,-0.010682684369385242,-0.004464222118258476,0.000754237174987793,-0.005100071430206299
-0.00881852488964796,0.01823693886399269,0.0015559785533696413,0.0029046088457107544,-0.0013550519943237305,-0.0004121065139770508
-0.035141874104738235,-0.01824772357940674,0.0031784784514456987,0.005601765587925911,-0.003099381923675537,0.010646283626556396
-0.002271742792800069,-0.003946894779801369,-0.0011256703874096274,-0.0009868890047073364,-0.0031592845916748047,-0.0058286190032958984
0.014872312545776367,0.004647296853363514,-0.009929364547133446,-0.0029639601707458496,-0.005739569664001465,-0.011120796203613281
-0.0057413531467318535,0.009141381829977036,-0.01886054128408432,-0.004483833909034729,-0.006251275539398193,-0.0021208524703979492
-0.0027076792903244495,-0.003939129877835512,-0.00786062702536583,0.006209194660186768,-0.006743311882019043,-0.006204783916473389
0.0007281317375600338,-0.0034203333780169487,-0.011583552695810795,-0.006925567984580994,0.0020693540573120117,-0.01072239875793457
0.00946742668747902,-0.003367799334228039,-0.011114797554910183,0.003623366355895996,-0.005131125450134277,-0.002682924270629883
0.005253487732261419,-0.004080373793840408,-0.016964169219136238,-0.0034325122833251953,-0.003039240837097168,-0.0015532970428466797
0.007107133977115154,0.002180548384785652,-0.01822059042751789,6.110966205596924e-05,-0.004068732261657715,-0.006234943866729736
-0.017668718472123146,-0.005206286907196045,-0.004702542908489704,-0.0056527405977249146,-0.0029175877571105957,0.014867544174194336
-0.03343915939331055,0.013196459971368313,0.0012398343533277512,-0.0028021931648254395,-0.004285633563995361,0.017611980438232422
