rotation_x,rotation_y,rotation_z,acceleration_x,acceleration_y,acceleration_z
0.08109498769044876,0.1510619968175888,-0.0906662717461586,-0.05450117588043213,0.056464552879333496,0.09015756845474243
-0.21604125201702118,0.37809208035469055,-0.22819340229034424,-0.06097186356782913,0.009147226810455322,0.1563536524772644
-0.3491562008857727,0.38385406136512756,-0.20242919027805328,-0.005217701196670532,-0.01947087049484253,0.09008795022964478
-0.23899684846401215,0.2448689192533493,-0.04786029830574989,0.04637277126312256,-0.02928316593170166,-0.0140838623046875
-0.06458654999732971,0.08926665782928467,0.11641347408294678,0.05377650260925293,-0.02215936779975891,-0.06156420707702637
-0.01387619599699974,-0.04804066941142082,0.17469999194145203,0.022356078028678894,-0.011790096759796143,-0.034898340702056885
-0.09665781259536743,-0.08956845104694366,0.1263333410024643,-0.024350255727767944,-0.007824838161468506,0.011147558689117432
-0.15956833958625793,-0.0763562023639679,0.03466198220849037,-0.04287746548652649,-0.007666796445846558,0.02156507968902588
-0.1619444191455841,-0.0510907918214798,-0.034904845058918,-0.03315546363592148,-0.0074574947357177734,0.002574145793914795
-0.138514906167984,-0.02213640697300434,-0.05788279324769974,-0.009274162352085114,-0.012368828058242798,-0.004049956798553467
-0.1256485879421234,0.027657458558678627,-0.048939306288957596,0.011313162744045258,-0.015750110149383545,0.0037615299224853516
-0.12071143835783005,0.06405731290578842,-0.021776732057332993,0.020800545811653137,-0.019721508026123047,0.011104464530944824
-0.10497695207595825,0.07308809459209442,0.02782943844795227,0.02674112468957901,-0.025736957788467407,0.006842136383056641
-0.041870709508657455,0.02583177573978901,0.054702792316675186,0.027881965041160583,-0.016840457916259766,-0.014531970024108887
0.01879960112273693,-0.0266041848808527,0.05820148065686226,0.023487865924835205,-0.0019172430038452148,-0.013981282711029053
0.022415010258555412,-0.024515336379408836,0.05354750156402588,0.01010403037071228,0.0001596212387084961,0.016246438026428223
-0.07105797529220581,0.04385757818818092,0.045481301844120026,0.002294376492500305,-0.0015583038330078125,0.045321106910705566
-0.09603101015090942,0.027718842029571533,0.017540711909532547,0.0010650008916854858,-0.012516617774963379,0.017479121685028076
-0.031172899529337883,-0.011878514662384987,-0.0009861285798251629,-0.0009323582053184509,-0.009593993425369263,-0.017048895359039307
0.011676422320306301,-0.03644042834639549,-0.048248060047626495,-0.007481694221496582,-0.007729232311248779,-0.003247857093811035
0.0019010044634342194,-0.01627030223608017,-0.10250168293714523,-0.012964367866516113,-0.011879026889801025,0.025210797786712646
-0.03351126238703728,0.034052565693855286,-0.11439533531665802,-0.004829332232475281,-0.02077162265777588,0.04549342393875122
-0.0756600946187973,0.06267756223678589,-0.08087629824876785,0.007216311991214752,-0.031469136476516724,0.05333876609802246
-0.09764665365219116,0.061957526952028275,-0.03911345452070236,0.011104650795459747,-0.031526118516922,0.04654097557067871
-0.05376603081822395,0.04821193218231201,-0.011204084381461143,0.008674770593643188,-0.028617501258850098,0.027919411659240723
0.0017297430895268917,0.05746334418654442,-0.026590164750814438,-0.0018343031406402588,-0.01237398386001587,0.03305906057357788
0.001350038219243288,0.08427093178033829,-0.04810578376054764,-0.014951050281524658,-0.009082525968551636,0.05509650707244873
-0.07630264759063721,0.15621928870677948,-0.028910551220178604,-0.007189646363258362,-0.02045881748199463,0.06934517621994019
-0.16959622502326965,0.2012421190738678,0.02248441055417061,0.009303539991378784,-0.02078402042388916,0.03981208801269531
-0.19307467341423035,0.1746363788843155,0.05571797490119934,0.012051723897457123,-0.014671146869659424,-0.027474939823150635
-0.15156075358390808,0.09163419902324677,0.06280625611543655,0.009827852249145508,-0.014920651912689209,-0.07711464166641235
-0.10799068957567215,0.01735992357134819,0.04034087061882019,0.003559485077857971,-0.01297461986541748,-0.08362621068954468
-0.0933779776096344,0.004031185060739517,0.018995027989149094,0.010344646871089935,-0.0036276280879974365,-0.06135934591293335
-0.06317544728517532,0.022077903151512146,-0.0026118254754692316,0.013653814792633057,0.001532137393951416,-0.03950005769729614
-0.02872062847018242,0.06118949130177498,-0.011367078870534897,0.009430348873138428,-0.003497302532196045,-0.01592254638671875
0.006811627186834812,0.10127972811460495,-0.027490800246596336,0.0016556009650230408,-0.01023373007774353,0.0019677281379699707
0.0606037974357605,0.09318455308675766,-0.015042360872030258,-0.00296841561794281,-0.010239183902740479,0.002989530563354492
0.06718627363443375,0.026333674788475037,0.009624309837818146,-0.004069983959197998,-0.007724016904830933,0.012104511260986328
0.0352264940738678,-0.017238076776266098,0.03540400043129921,-0.006203562021255493,-0.00350150465965271,0.03342169523239136
0.03967620059847832,0.012648583389818668,0.060198135673999786,-0.017252489924430847,-0.009132981300354004,0.050572991371154785
0.0725545883178711,0.10484396666288376,0.08600502461194992,-0.023366384208202362,-0.007886677980422974,0.0674847960472107
0.08165107667446136,0.20613665878772736,0.12652891874313354,-0.02238791435956955,-3.6090612411499023e-05,0.07935649156570435
0.04377003759145737,0.2374623864889145,0.16650910675525665,-0.02452728897333145,0.0037901103496551514,0.07268208265304565
0.011190161108970642,0.18311955034732819,0.17926423251628876,-0.03653480112552643,-0.0005360543727874756,0.042406558990478516
0.0117129385471344,0.09779425710439682,0.2003290355205536,-0.026095382869243622,-0.0015124380588531494,0.002617061138153076
0.015100479125976562,0.060090020298957825,0.25312650203704834,-0.0007974207401275635,0.0011513829231262207,-0.012804090976715088
-0.01087166927754879,0.08297824114561081,0.3016381561756134,0.006099998950958252,0.005664467811584473,-0.011943817138671875
-0.033934324979782104,0.12404059618711472,0.313231498003006,-0.0021482929587364197,0.005573838949203491,-0.015829026699066162
-0.008506914600729942,0.12521202862262726,0.3008177876472473,-0.010469555854797363,0.010477811098098755,-0.02934098243713379
0.007979125715792179,0.10029395669698715,0.2839602530002594,-0.004613429307937622,0.01473972201347351,-0.029955744743347168
0.026017548516392708,0.07705993205308914,0.27806615829467773,0.005610823631286621,0.011684298515319824,-0.028407394886016846
0.07414351403713226,0.0654967874288559,0.2760019600391388,0.011660560965538025,0.01231229305267334,-0.024670422077178955
0.10467396676540375,0.09080345928668976,0.24399979412555695,0.009718477725982666,0.029110431671142578,0.003834962844848633
0.09958094358444214,0.14857646822929382,0.1858142465353012,0.004315227270126343,0.04822582006454468,0.03550070524215698
0.08208389580249786,0.1953582465648651,0.12139121443033218,0.007790848612785339,0.04626038670539856,0.05050629377365112
0.06619205325841904,0.21055017411708832,0.10157094895839691,0.01947420835494995,0.03143972158432007,0.04338115453720093
0.07435920834541321,0.2155887931585312,0.10676522552967072,0.023124679923057556,0.0020647048950195312,0.030820250511169434
0.004675694275647402,0.3087065517902374,0.15280483663082123,0.025791548192501068,-0.015169888734817505,0.03899037837982178
-0.13270170986652374,0.40816426277160645,0.2266925573348999,0.03595735877752304,-0.01374480128288269,0.0340457558631897
-0.21330180764198303,0.4172765910625458,0.30641475319862366,0.04774511605501175,0.020570874214172363,-0.00957721471786499
-0.19613111019134521,0.3386353850364685,0.31372854113578796,0.030547864735126495,0.053139567375183105,-0.06127744913101196
-0.10234272480010986,0.21897895634174347,0.22809921205043793,-0.004710331559181213,0.06371200084686279,-0.08170473575592041
0.028002997860312462,0.09019671380519867,0.09881818294525146,-0.019426293671131134,0.05958858132362366,-0.06885433197021484
0.0672450065612793,0.037981655448675156,0.03225439786911011,-0.0005471855401992798,0.04477566480636597,-0.008925914764404297
-0.014040103182196617,0.015074816532433033,0.06757846474647522,0.028675660490989685,0.009253263473510742,0.055430710315704346
-0.13745225965976715,-0.005235617980360985,0.19172808527946472,0.05250720679759979,-0.021624624729156494,0.08946949243545532
-0.2854340076446533,-0.012877967208623886,0.31793028116226196,0.05404410511255264,-0.035161226987838745,0.09918391704559326
-0.38288840651512146,0.005258958786725998,0.3616796135902405,0.036283597350120544,-0.031373798847198486,0.07866048812866211
-0.3586428463459015,0.026530766859650612,0.33071866631507874,0.017347991466522217,-0.019353628158569336,0.03362464904785156
-0.2639033794403076,0.030476372689008713,0.2769533395767212,0.013449355959892273,-0.01405102014541626,0.00514829158782959
-0.18532133102416992,0.047706570476293564,0.23547956347465515,0.007650017738342285,-0.023912668228149414,0.007253408432006836
-0.17170870304107666,0.08620651066303253,0.21441887319087982,0.0071134865283966064,-0.028744131326675415,0.027791738510131836
-0.18057295680046082,0.0970207080245018,0.206184983253479,0.007219918072223663,-0.03606674075126648,0.021794497966766357
-0.17704075574874878,0.060818109661340714,0.18009008467197418,0.008785121142864227,-0.034899890422821045,-0.0022655129432678223
-0.12773308157920837,-0.002830126788467169,0.13979195058345795,0.009142428636550903,-0.03377169370651245,-0.02974569797515869
-0.06235058978199959,-0.04967137798666954,0.10683455318212509,0.018625356256961823,-0.03208693861961365,-0.030360519886016846
-0.020888030529022217,-0.05053466558456421,0.08857735246419907,0.02574402093887329,-0.03696596622467041,-0.005773007869720459
-0.042392827570438385,-0.009808620437979698,0.10895150154829025,0.0326349213719368,-0.03355178236961365,0.0288887619972229
-0.11127647757530212,0.06094001978635788,0.13696672022342682,0.024994775652885437,-0.02821195125579834,0.045175373554229736
-0.15724755823612213,0.07983152568340302,0.14207640290260315,0.009116724133491516,-0.017409801483154297,0.022266030311584473
-0.11903539299964905,0.015503350645303726,0.09840887039899826,-0.0037119463086128235,-0.0018536150455474854,-0.025032222270965576
-0.026738259941339493,-0.06264613568782806,0.01524448860436678,-0.01468813419342041,0.011775970458984375,-0.04773545265197754
0.027147334069013596,-0.06370490789413452,-0.079642653465271,-0.021987080574035645,0.018287837505340576,-0.02995544672012329
0.011432413011789322,-0.003170832758769393,-0.14648334681987762,-0.010118499398231506,0.01863473653793335,-0.00772547721862793
0.0046201953664422035,0.015502683818340302,-0.14871230721473694,0.016004011034965515,0.007083475589752197,-0.011866509914398193
0.033758509904146194,-0.018774069845676422,-0.08004464209079742,0.038703709840774536,-0.006756186485290527,-0.024258852005004883
0.01725384220480919,-0.03259703889489174,-0.008842060342431068,0.032817333936691284,-0.019030064344406128,-0.012252509593963623
-0.057010386139154434,-0.0255605299025774,0.025872908532619476,0.031040534377098083,-0.014223664999008179,-0.002517521381378174
-0.07401087880134583,-0.08323293924331665,0.06281367689371109,0.0463772788643837,0.010063856840133667,-0.021713554859161377
0.000710594467818737,-0.15822581946849823,0.07662680000066757,0.0443364679813385,0.021711289882659912,-0.034488797187805176
0.0720641016960144,-0.15072256326675415,0.046272844076156616,0.022957444190979004,0.02132594585418701,0.001094520092010498
0.04401775822043419,-0.0522766187787056,0.006886760704219341,0.015877187252044678,0.02240544557571411,0.06008940935134888
-0.006309329066425562,0.0016856822185218334,-0.0021703841630369425,0.020523644983768463,0.009330958127975464,0.07326924800872803
-0.032088227570056915,0.002316933125257492,0.007596174255013466,0.02530410885810852,-0.003026247024536133,0.053938984870910645
-0.034016791731119156,-0.022391900420188904,0.014411268755793571,0.023813828825950623,-0.00942191481590271,0.03501760959625244
-0.04418103024363518,-0.017517589032649994,0.00687347911298275,0.024476230144500732,-0.003635972738265991,0.029235541820526123
-0.06470004469156265,0.02264280803501606,-0.012636745348572731,0.022257894277572632,-0.004476368427276611,0.026827633380889893
-0.0769912526011467,0.09111540764570236,-0.024684226140379906,0.018496111035346985,-0.006275832653045654,0.0213620662689209
-0.1108459010720253,0.12767675518989563,-0.030323004350066185,0.016377195715904236,-0.00432431697845459,0.007870793342590332
-0.12373784929513931,0.08188244700431824,-0.027675116434693336,0.005000472068786621,-0.004338324069976807,-0.01410222053527832
-0.0883994847536087,-0.011286478489637375,-0.02645716816186905,-0.008408889174461365,0.0004391670227050781,-0.03085958957672119
-0.05734078958630562,-0.04150969907641411,-0.05133339762687683,-0.020453721284866333,0.010005682706832886,-0.018047213554382324
-0.06542492657899857,0.008496813476085663,-0.1055397316813469,-0.028024539351463318,0.011524438858032227,0.011937141418457031
-0.07020600140094757,0.07820369303226471,-0.11289452016353607,-0.01969742774963379,-0.0031731724739074707,0.013868629932403564
-0.0561099536716938,0.07412660866975784,-0.06179859861731529,0.0012999027967453003,-0.008927881717681885,-0.004158616065979004
-0.014194314368069172,0.008837424218654633,-0.002980236429721117,0.00753195583820343,-0.007714688777923584,-0.024890482425689697
0.02240307256579399,-0.022823864594101906,0.024538736790418625,-0.004332199692726135,-0.0009900331497192383,-0.02546405792236328
-0.006622768007218838,-0.013418899849057198,0.030477555468678474,-0.006198078393936157,0.004027307033538818,-0.004764556884765625
-0.050102412700653076,-0.035183750092983246,0.06475634127855301,0.009299412369728088,0.00879746675491333,-0.01107180118560791
-0.05565832555294037,-0.10464583337306976,0.12475969642400742,0.018894299864768982,0.00991058349609375,-0.03218454122543335
-0.012660201638936996,-0.20590311288833618,0.13461937010288239,0.006595328450202942,0.012443304061889648,-0.036705732345581055
-0.0012624971568584442,-0.25142475962638855,0.09171178936958313,-0.003563210368156433,0.0147419273853302,-0.005097627639770508
-0.019387297332286835,-0.21889600157737732,0.041599493473768234,-0.005127839744091034,0.00240519642829895,0.035656630992889404
-0.05485095456242561,-0.110594242811203,0.02294832468032837,0.0019724667072296143,-0.012930452823638916,0.06036257743835449
-0.07184616476297379,-0.012679971754550934,-0.0022709835320711136,0.002671942114830017,-0.023026883602142334,0.05330401659011841
-0.06020087003707886,0.057187121361494064,-0.0437978059053421,0.0021382421255111694,-0.01703396439552307,0.030594050884246826
-0.04160619154572487,0.09809914976358414,-0.1008257120847702,-0.005768030881881714,-0.01709151268005371,0.004546046257019043
0.003947381395846605,0.08676383644342422,-0.14073434472084045,-0.002302989363670349,-0.022809356451034546,-0.03125721216201782
0.033990174531936646,0.06865013390779495,-0.10818019509315491,0.016477122902870178,-0.02535802125930786,-0.055320799350738525
0.05084988474845886,0.017185961827635765,-0.03569631278514862,0.030558466911315918,-0.02353435754776001,-0.06889313459396362
0.09258805960416794,-0.055141985416412354,0.027643531560897827,0.024825990200042725,-0.014301478862762451,-0.07635289430618286
0.14065541326999664,-0.10885515064001083,0.04119068756699562,0.007703453302383423,0.001420438289642334,-0.0648384690284729
0.17279063165187836,-0.11217422783374786,0.023229993879795074,-0.013907775282859802,0.007274508476257324,-0.039985597133636475
0.1851726770401001,-0.10386667400598526,-0.00725845992565155,-0.020345136523246765,0.01531064510345459,-0.012217164039611816
0.16726206243038177,-0.08488744497299194,-0.016944922506809235,-0.0185985267162323,0.020112931728363037,0.010525941848754883
0.1446843445301056,-0.07289020717144012,-0.014177201315760612,-0.013585180044174194,0.018087297677993774,0.021257340908050537
0.10493586957454681,-0.055729106068611145,-0.009749134071171284,-0.009290635585784912,0.022653639316558838,0.024569034576416016
0.07118917256593704,-0.03542809188365936,-0.015051053836941719,-0.0017161890864372253,0.02635785937309265,0.012411415576934814
0.09153547883033752,-0.04667534679174423,-0.02414550445973873,0.01108582317829132,0.028029203414916992,-0.010811567306518555
0.12782232463359833,-0.08928511291742325,-0.041399624198675156,0.016571074724197388,0.03196060657501221,-0.020740985870361328
0.10798696428537369,-0.09110747277736664,-0.05545562505722046,0.019040316343307495,0.030449479818344116,0.008356988430023193
0.005614550318568945,-0.07351433485746384,-0.04122794419527054,0.02091829478740692,0.015319585800170898,0.04232168197631836
-0.08284562081098557,-0.08174873143434525,-0.009887950494885445,0.020480990409851074,0.003753364086151123,0.04083514213562012
-0.0801745280623436,-0.12527458369731903,0.014659409411251545,0.017989054322242737,0.009896427392959595,0.023230552673339844
-0.03743079677224159,-0.13922661542892456,0.016422957181930542,-0.004053689539432526,-0.002299278974533081,0.0306168794631958
-0.04463351145386696,-0.04717066138982773,-0.0045390441082417965,-0.020967811346054077,-0.017001032829284668,0.05876857042312622
-0.020091639831662178,0.07314325869083405,-0.05352962389588356,-0.029831543564796448,-0.026424527168273926,0.05265682935714722
0.017390282824635506,0.14103835821151733,-0.07817871868610382,-0.017641976475715637,-0.023033946752548218,0.036669790744781494
0.0043337782844901085,0.13738343119621277,-0.04204857349395752,0.0026453882455825806,-0.029174745082855225,0.02698957920074463
-0.02717740461230278,0.07838242501020432,0.03696654736995697,0.016072489321231842,-0.03515323996543884,0.015527069568634033
-0.00844774954020977,0.007856889627873898,0.09459355473518372,0.012395888566970825,-0.02901405096054077,-0.000469207763671875
0.024040259420871735,-0.00732453353703022,0.1000794991850853,-0.002871870994567871,-0.018046855926513672,0.0062653422355651855
0.014054595492780209,0.047405555844306946,0.06622333079576492,-0.011974990367889404,-0.010840535163879395,0.026042461395263672
-0.0056777223944664,0.06996341049671173,0.05433885008096695,-0.0035153180360794067,-0.011863172054290771,0.027239680290222168
-0.03553178906440735,0.057160884141922,0.08287989348173141,0.007665619254112244,-0.013385504484176636,0.017650187015533447
-0.06646188348531723,0.04655925929546356,0.11924334615468979,0.007549576461315155,-0.014641910791397095,0.004048705101013184
-0.02529636025428772,-0.013418234884738922,0.11947312206029892,-0.0022852420806884766,-0.009334385395050049,-0.02718573808670044
0.07960319519042969,-0.0857040211558342,0.07930261641740799,-0.012233555316925049,0.004951357841491699,-0.04356205463409424
0.09625297784805298,-0.045083485543727875,0.019439466297626495,-0.016498997807502747,0.013267099857330322,-0.00499802827835083
0.03340277820825577,0.0540083684027195,-0.015666883438825607,-0.012060225009918213,0.0070607662200927734,0.024219989776611328
0.012695585377514362,0.07398976385593414,-0.013409176841378212,0.007993161678314209,0.006015658378601074,0.0027120113372802734
0.040567975491285324,0.02572578191757202,0.00780532555654645,0.026372745633125305,0.012270629405975342,-0.026312530040740967
0.0816149041056633,-0.043205276131629944,0.03726991266012192,0.030435875058174133,0.009400129318237305,-0.025914669036865234
0.10023556649684906,-0.09093143790960312,0.06544868648052216,0.022585220634937286,0.008565455675125122,-0.0033017396926879883
0.06645255535840988,-0.08205747604370117,0.08232725411653519,0.016312792897224426,0.015414655208587646,0.03826618194580078
-0.004647623281925917,-0.006049128714948893,0.08790774643421173,0.004904001951217651,0.014206171035766602,0.07239174842834473
-0.07670293003320694,0.09370894730091095,0.0792941227555275,-0.011084988713264465,0.0015572905540466309,0.07467067241668701
-0.11507266014814377,0.14175494015216827,0.09520577639341354,-0.014819324016571045,-0.009572625160217285,0.04028677940368652
-0.09223148971796036,0.09572180360555649,0.09916704893112183,-0.02066914737224579,-0.015178799629211426,-0.013842642307281494
-0.05112304165959358,0.024648120626807213,0.1020464077591896,-0.021551504731178284,-0.006411194801330566,-0.04240703582763672
-0.021725617349147797,-0.0169062539935112,0.0749586746096611,-0.024553075432777405,0.0033364295959472656,-0.045405447483062744
0.012562017887830734,-0.001094561186619103,0.048557158559560776,-0.022860698401927948,0.014524370431900024,-0.045379698276519775
0.06458872556686401,-0.004986346233636141,0.02749866433441639,-0.016591832041740417,0.020748555660247803,-0.04321497678756714
0.10776200145483017,-0.022711988538503647,0.007249526679515839,-0.01541106402873993,0.025963783264160156,-0.026248633861541748
0.11797221004962921,-0.05491267144680023,-0.010050084441900253,-0.012043856084346771,0.025366932153701782,-0.005234062671661377
0.10546547174453735,-0.09970293194055557,-0.031770605593919754,-0.002386443316936493,0.03160753846168518,0.012752354145050049
0.08372315764427185,-0.14211803674697876,-0.036291055381298065,0.009818851947784424,0.03253990411758423,0.026938438415527344
0.055793773382902145,-0.162495955824852,-0.012043536640703678,0.019174888730049133,0.021582603454589844,0.04688304662704468
-0.00761974323540926,-0.14251543581485748,0.017229484394192696,0.024511590600013733,0.014987170696258545,0.06801533699035645
-0.07405051589012146,-0.07948705554008484,0.04105294123291969,0.022150449454784393,0.011100202798843384,0.07844799757003784
-0.10848777741193771,-0.033621929585933685,0.03791316598653793,0.004913881421089172,0.008255332708358765,0.06349778175354004
-0.1383592039346695,-0.037992607802152634,0.015021608211100101,-0.006895758211612701,0.010121732950210571,0.04193037748336792
-0.11607329547405243,-0.0551469586789608,-0.01827234774827957,-0.016446121037006378,0.0027298033237457275,0.013857364654541016
-0.07322179526090622,-0.04314581677317619,-0.06258320063352585,-0.016246162354946136,0.0027299821376800537,-0.0020009875297546387
-0.05313443765044212,-0.0034104459919035435,-0.10225845128297806,-0.007455036044120789,-0.00036785006523132324,0.0020290017127990723
-0.035088714212179184,0.04558794945478439,-0.08692760765552521,0.010052040219306946,-0.009579479694366455,-0.0029592514038085938
-0.007296242285519838,0.02931559458374977,-0.03394635021686554,0.01948361098766327,-0.024866223335266113,-0.01502305269241333
-0.003815011354163289,-0.0447501465678215,0.031079934909939766,0.024347350001335144,-0.027125060558319092,-0.0179135799407959
-0.021117428317666054,-0.07144583016633987,0.07625261694192886,0.02023950219154358,-0.015656709671020508,-0.010323166847229004
-0.05231791362166405,-0.06448178738355637,0.08417480438947678,0.009725317358970642,-0.016531914472579956,-0.005297422409057617
-0.06828264147043228,-0.03403371572494507,0.10100450366735458,0.013321608304977417,-0.012369930744171143,-0.008661985397338867
-0.01871536858379841,-0.004429176449775696,0.10522159188985825,0.00910218060016632,-0.014720678329467773,-0.02362614870071411
0.05377694219350815,0.003658311441540718,0.09791574627161026,0.006665170192718506,-0.0044197142124176025,-0.025923609733581543
0.08772382140159607,0.001585434190928936,0.09089603275060654,0.0013362914323806763,-0.004710793495178223,-0.0014106035232543945
0.06423307955265045,-0.0026597422547638416,0.09492634981870651,-0.0023958608508110046,-0.006965994834899902,0.025356829166412354
0.020640607923269272,0.010114066302776337,0.11411099135875702,-0.00019576400518417358,-0.008009225130081177,0.035298824310302734
-0.012511094100773335,0.059535566717386246,0.10586010664701462,-0.0004223287105560303,0.0021941065788269043,0.029766857624053955
0.004872713703662157,0.10180826485157013,0.07936135679483414,-0.0025890320539474487,0.01024743914604187,0.0020647644996643066
0.05718022957444191,0.06500106304883957,0.04797402396798134,-0.0033382773399353027,0.010188907384872437,-0.024186015129089355
0.0897786021232605,-0.019229119643568993,0.042325425893068314,-0.003110729157924652,0.004189580678939819,-0.019093453884124756
0.06763538718223572,-0.04443537816405296,0.0710185244679451,0.001984700560569763,-0.006454050540924072,0.0124703049659729
0.013024688698351383,-0.010462216101586819,0.10921148210763931,0.004536062479019165,-0.007160484790802002,0.03636765480041504
-0.007653894834220409,0.05066313594579697,0.12685473263263702,-0.005512014031410217,-0.004495888948440552,0.030404388904571533
0.007504982408136129,0.07155289500951767,0.11722192168235779,-0.013343527913093567,0.003097623586654663,0.014689922332763672
0.02803802117705345,0.10171110183000565,0.1120573952794075,-0.01721729338169098,0.0067931413650512695,0.003365635871887207
0.028263919055461884,0.1039770320057869,0.11278894543647766,-0.011065453290939331,0.007199734449386597,-0.005353152751922607
0.027877090498805046,0.06274276971817017,0.10812035948038101,-0.007641173899173737,0.009659439325332642,-0.0151481032371521
0.011364096775650978,0.03160408139228821,0.09129204601049423,-0.004977226257324219,0.012926876544952393,-0.01782965660095215
-0.00970026757568121,0.002932097064331174,0.05557148903608322,-0.0012869387865066528,0.015996277332305908,-0.01788651943206787
0.012708812952041626,-0.002092077862471342,0.023732217028737068,0.005021944642066956,0.015597552061080933,-0.024509727954864502
0.07789663225412369,-0.0048277657479047775,0.018360409885644913,0.01360386610031128,0.008087694644927979,-0.021970152854919434
0.11304876953363419,0.02478751167654991,0.024781499058008194,0.0136270672082901,0.0030177533626556396,0.005607128143310547
0.08889140188694,0.04140618443489075,0.03063000924885273,0.007958739995956421,0.0013541579246520996,0.034018754959106445
0.02797231264412403,0.036526575684547424,0.018159937113523483,-0.00018920749425888062,0.0011984407901763916,0.04752427339553833
-0.013735632412135601,0.03417661041021347,0.001616811379790306,-0.003447920083999634,-0.0015302300453186035,0.04625403881072998
-0.011905048973858356,0.06539066880941391,0.015837954357266426,-0.004856795072555542,-0.016046881675720215,0.036282360553741455
-0.005546624772250652,0.11708038300275803,0.04065713658928871,-0.00401933491230011,-0.02322906255722046,0.029634535312652588
-0.004508706275373697,0.12861648201942444,0.0664016455411911,-0.0015804022550582886,-0.01661163568496704,0.018131256103515625
-0.030568938702344894,0.10687516629695892,0.06691960245370865,-0.0030541643500328064,-0.0049020349979400635,0.008531749248504639
-0.030488403514027596,0.05806083232164383,0.058114804327487946,-0.001457303762435913,-0.007899463176727295,-0.0062950849533081055
0.016171809285879135,0.029367700219154358,0.07822646200656891,0.010546162724494934,-0.013440191745758057,-0.023156166076660156
0.09324433654546738,-0.012669832445681095,0.0936526507139206,0.009811274707317352,-0.012686282396316528,-0.03244125843048096
0.14937429130077362,-0.050283972173929214,0.07706555724143982,-0.0064889416098594666,-0.005124121904373169,-0.011435925960540771
0.10761194676160812,-0.0018070279620587826,0.046535640954971313,-0.021010451018810272,-0.005193144083023071,0.03726851940155029
-0.009027430787682533,0.12166278809309006,0.02789102867245674,-0.027534276247024536,-0.011767804622650146,0.05719965696334839
-0.04325179383158684,0.1274922788143158,0.01671445183455944,-0.012577123939990997,-0.005412250757217407,0.009342670440673828
0.03439899906516075,0.02456221915781498,0.016422776505351067,0.0012731999158859253,0.009025663137435913,-0.046656787395477295
0.10594072192907333,-0.03546870872378349,-0.002268495038151741,-0.004818707704544067,0.008082449436187744,-0.04644495248794556
0.11296515166759491,-0.0033201936166733503,-0.02190176397562027,-0.012651115655899048,0.00021782517433166504,-0.01289820671081543
0.08219564706087112,0.05159620940685272,-0.013894051313400269,-0.004875048995018005,-0.0058672428131103516,0.006179630756378174
0.0771372988820076,0.0501234233379364,0.011496052145957947,-0.0030017048120498657,-0.010492414236068726,-0.0025081634521484375
0.0947955921292305,-0.001960323192179203,0.02463993802666664,0.001981690526008606,-0.0014290213584899902,-0.011057257652282715
0.09800480306148529,-0.06267846375703812,0.025267794728279114,0.007044471800327301,0.00717046856880188,-0.00015431642532348633
0.06527265161275864,-0.07984815537929535,0.0295094083994627,0.012498065829277039,0.0060353875160217285,0.0237157940864563
0.04858753830194473,-0.09564640372991562,0.044088203459978104,0.013184592127799988,-0.006790220737457275,0.034005165100097656
0.04475322365760803,-0.08135856688022614,0.07344508916139603,0.013086855411529541,-0.013039380311965942,0.04474806785583496
-0.0023191904183477163,-0.010179022327065468,0.10228398442268372,0.006495043635368347,-0.012873351573944092,0.0670238733291626
-0.04711337015032768,0.06644634902477264,0.11903597414493561,-0.004682660102844238,-0.008068203926086426,0.05924725532531738
-0.05338576063513756,0.08211831748485565,0.10785913467407227,-0.013478517532348633,0.006768077611923218,0.019428908824920654
-0.03231098875403404,0.04915497452020645,0.0608842596411705,-0.016818657517433167,0.018525540828704834,-0.021390974521636963
0.026406995952129364,0.011016810312867165,0.0020138402469456196,-0.02050688862800598,0.02330639958381653,-0.0444260835647583
0.05753681808710098,0.031056635081768036,-0.031240757554769516,-0.012640491127967834,0.02602076530456543,-0.041877567768096924
0.05835353955626488,0.04540318623185158,-0.024553650990128517,0.009200558066368103,0.03066757321357727,-0.036103785037994385
0.07253026217222214,0.019620241597294807,0.009429620578885078,0.019945666193962097,0.03088390827178955,-0.03832024335861206
0.09377510100603104,-0.03592813387513161,0.033071111887693405,0.01838456094264984,0.029156923294067383,-0.03367334604263306
0.1145818680524826,-0.08103775233030319,0.04074579104781151,0.0161147341132164,0.03473818302154541,-0.011022984981536865
0.09342217445373535,-0.06300725042819977,0.040810152888298035,0.00744166225194931,0.03658190369606018,0.02738898992538452
0.04398733004927635,-0.016086269170045853,0.02494782768189907,-0.009179249405860901,0.02577117085456848,0.05265277624130249
0.009115421213209629,-0.007061314769089222,0.0026932721957564354,-0.009092286229133606,0.02341485023498535,0.050697505474090576
-0.006539485417306423,-0.02124406211078167,2.8660520911216736e-05,0.0038637667894363403,0.024256139993667603,0.04363149404525757
-0.04017721861600876,0.008760158903896809,-0.0031645293347537518,0.005694180727005005,0.01584625244140625,0.05135321617126465
-0.0747804045677185,0.07211803644895554,-0.00020969239994883537,0.0032458752393722534,0.004140496253967285,0.05291229486465454
-0.0960431694984436,0.10359328240156174,-0.0016769447829574347,0.007045142352581024,0.004106372594833374,0.035417377948760986
-0.08277241885662079,0.08974245935678482,0.013022076338529587,0.011739879846572876,-8.195638656616211e-05,0.008638143539428711
-0.06684815138578415,0.06735824793577194,0.02157546952366829,0.009785644710063934,-0.003268033266067505,0.0015985369682312012
-0.07537003606557846,0.08078774064779282,0.027189144864678383,-0.001483231782913208,-0.011648803949356079,0.004521012306213379
-0.08430203050374985,0.08395907282829285,0.019025463610887527,-0.006821721792221069,-0.012820541858673096,-0.0028840303421020508
-0.06827326118946075,0.07516904175281525,0.017161518335342407,-0.008801758289337158,-0.016217350959777832,-0.017598211765289307
-0.030705170705914497,0.05091499909758568,0.022173872217535973,-0.005508407950401306,-0.020970463752746582,-0.028438329696655273
-0.007969974540174007,0.05035317689180374,0.04694551229476929,0.0026381462812423706,-0.01605406403541565,-0.022724151611328125
-0.002631236333400011,0.04535391181707382,0.05741513520479202,-0.0013290047645568848,-0.012501299381256104,-0.010099530220031738
0.010035241022706032,0.02364916168153286,0.053496796637773514,-0.006320580840110779,-0.007968276739120483,-0.0031658411026000977
0.015005039982497692,-0.008869298733770847,0.04242417588829994,-0.01257576048374176,-0.005355358123779297,-0.0007942318916320801
0.02600904181599617,-0.02703859470784664,0.027622709050774574,-0.0152701735496521,-0.0031459927558898926,0.00040900707244873047
0.017955075949430466,-0.0057230484671890736,0.0178658626973629,-0.011979803442955017,0.00718533992767334,0.016330182552337646
0.014471837319433689,0.011128340847790241,0.013753378763794899,-0.009412139654159546,0.004476606845855713,0.016592025756835938
0.019451003521680832,0.017477355897426605,0.024640284478664398,-0.011068515479564667,0.0033499300479888916,0.015846729278564453
-0.007487560156732798,-0.001570005901157856,0.024422448128461838,-0.012771330773830414,0.00691714882850647,0.019060611724853516
-0.02855241857469082,-0.022677414119243622,0.0072018858045339584,-0.01584361493587494,0.013113319873809814,0.01824331283569336
-0.04821132868528366,-0.01953119970858097,-0.0074827540665864944,-0.009755775332450867,0.016756772994995117,0.013569056987762451
-0.035328350961208344,0.0038777748122811317,-0.024057529866695404,-0.009070068597793579,0.011709600687026978,-0.0006710290908813477
-0.0032132503110915422,0.006912750191986561,-0.03762127459049225,-0.006131231784820557,0.01425391435623169,-0.0136757493019104
0.007172910030931234,-0.02389759011566639,-0.0485583171248436,-0.010000720620155334,0.0013663768768310547,-0.01712733507156372
-0.009237192571163177,-0.06675785779953003,-0.050901807844638824,0.004728585481643677,0.0048340559005737305,-0.010136187076568604
-0.0029907962307333946,-0.08138169348239899,-0.05243547260761261,0.016720347106456757,0.003116220235824585,-0.011751830577850342
0.016118647530674934,-0.053854506462812424,-0.03479509800672531,0.02519892156124115,-0.003619670867919922,-0.005993485450744629
0.04349488019943237,-0.02670438028872013,-0.025981899350881577,0.020435169339179993,-0.012640058994293213,0.0002664327621459961
0.05087769776582718,-0.014041210524737835,0.0021041440777480602,0.02548760175704956,-0.009926915168762207,0.01213383674621582
0.02740783989429474,0.006700174417346716,0.014945855364203453,0.023555293679237366,-0.007118940353393555,0.0274122953414917
0.014179833233356476,0.018096789717674255,0.0328829251229763,0.02304428070783615,-0.005406975746154785,0.025466978549957275
0.010533465072512627,0.0007152609759941697,0.055552639067173004,0.02357521653175354,-0.006941735744476318,0.013223826885223389
-0.004070117138326168,-0.006037560291588306,0.0751352459192276,0.021217942237854004,0.0008169412612915039,0.012677133083343506
0.008640734478831291,0.005144724156707525,0.07222290337085724,0.00995790958404541,0.004258930683135986,0.010271012783050537
0.0268000029027462,0.035956043750047684,0.04991856962442398,-0.0031429678201675415,0.009528160095214844,0.018365025520324707
-0.0041411989368498325,0.0706762969493866,0.022718172520399094,-0.01427200436592102,0.011540114879608154,0.03520488739013672
-0.03637532517313957,0.08007602393627167,-0.010371396318078041,-0.02011007070541382,0.006645321846008301,0.03190797567367554
-0.03799954801797867,0.05942191183567047,-0.009224108420312405,-0.013363003730773926,0.0014868974685668945,0.012568235397338867
-0.030926626175642014,0.045845452696084976,0.008629074320197105,-0.006504714488983154,0.0002149045467376709,0.004998266696929932
-0.04115179926156998,0.05763775110244751,0.019429491832852364,-0.006498992443084717,0.0018458366394042969,0.004115045070648193
-0.03575488552451134,0.06573233753442764,0.0038625779561698437,-0.015166372060775757,0.0018576383590698242,-0.005548954010009766
-0.005924171768128872,0.04225606843829155,-0.023665810003876686,-0.01852993667125702,0.0008733272552490234,-0.020089924335479736
0.005155427381396294,-0.0035079699009656906,-0.05136025696992874,-0.014467060565948486,0.0012803077697753906,-0.014664888381958008
0.0030965772457420826,-0.025905651971697807,-0.04446586221456528,-0.003579944372177124,-0.005715399980545044,-0.0007185935974121094
-0.022617116570472717,-0.02403121627867222,-0.003072707913815975,0.012572407722473145,-0.0073888301849365234,0.007712602615356445
-0.02087874338030815,-0.013149382546544075,0.03465348482131958,0.012385830283164978,-0.008761167526245117,0.0011134743690490723
0.00476585840806365,-0.007325354963541031,0.03881280869245529,0.0022467821836471558,-0.008071273565292358,-0.0075147151947021484
0.010035177692770958,0.009366054087877274,0.02006492391228676,-0.005576536059379578,-0.000629127025604248,-0.005331516265869141
0.029669152572751045,-0.011683185584843159,-0.018954794853925705,-0.010860078036785126,-0.00036963820457458496,-0.01391303539276123
0.04594706743955612,-0.017992405220866203,-0.04713474214076996,0.0015692561864852905,0.008870840072631836,-0.018109440803527832
0.07546237111091614,-0.023901574313640594,-0.05529350787401199,0.009824410080909729,0.005188018083572388,-0.01690828800201416
0.08226751536130905,-0.009905369952321053,-0.035028982907533646,0.014790274202823639,-0.001183837652206421,0.0012817978858947754
0.04123463109135628,0.015988850966095924,-0.0024819602258503437,0.016764134168624878,-0.007278025150299072,0.026007413864135742
0.017897993326187134,0.019240062683820724,0.018233083188533783,0.01723042130470276,-0.0014295578002929688,0.02900540828704834
0.016877014189958572,0.020202431827783585,0.030693037435412407,0.010978519916534424,0.004710733890533447,0.024489521980285645
0.012918999418616295,0.04498669505119324,0.027178935706615448,-0.002410218119621277,0.006120204925537109,0.02147221565246582
0.00886518694460392,0.04864773526787758,0.01035844162106514,-0.009186625480651855,0.009027332067489624,0.011445343494415283
0.009022973477840424,0.031375691294670105,-0.012623455375432968,-0.008371949195861816,0.015725374221801758,-0.0010987520217895508
0.02487608976662159,0.01976904273033142,-0.01831001415848732,-0.009493529796600342,0.0073857903480529785,-0.009486138820648193
0.014142707921564579,0.016385989263653755,-0.005889828782528639,-0.004615075886249542,0.005563110113143921,-0.006477057933807373
0.01068903598934412,-0.001125743263401091,0.006221042480319738,-0.0021134018898010254,0.006223797798156738,-0.010954439640045166
0.02609984576702118,-0.016298022121191025,0.0017290315590798855,-0.005978412926197052,0.011772632598876953,-0.016909778118133545
0.05570238083600998,-0.023231899365782738,-0.04417496174573898,-0.017032116651535034,0.012323647737503052,-0.014679551124572754
0.06270717829465866,-0.010579424910247326,-0.07653298228979111,-0.013172104954719543,0.007827609777450562,-0.0005205273628234863
0.05176850035786629,-0.017958730459213257,-0.07022745162248611,-0.00047872960567474365,-0.0032904744148254395,0.008690714836120605
0.047605764120817184,-0.02852429635822773,-0.050356779247522354,0.009389817714691162,-0.004968762397766113,0.006360173225402832
0.04177658259868622,-0.02609938755631447,-0.04411879926919937,0.008404359221458435,-0.0028825700283050537,0.012280166149139404
0.030768800526857376,-0.014228817075490952,-0.04421330988407135,0.008462727069854736,-0.0036594271659851074,0.012895703315734863
0.03131285309791565,-0.01087651401758194,-0.02988520637154579,0.009010076522827148,-0.006422996520996094,0.0074288249015808105
0.05816235393285751,-0.029814917594194412,-0.014902975410223007,0.0074018388986587524,-0.009539484977722168,0.003082871437072754
0.05556744337081909,-0.021466638892889023,-0.005314793437719345,0.006158500909805298,-0.0019559264183044434,0.014635205268859863
0.03386978432536125,-0.0010749314678832889,-0.014098284766077995,0.0029865801334381104,-0.0025869011878967285,0.019617021083831787
0.017177116125822067,0.00789636466652155,-0.0015872255899012089,0.016030356287956238,0.004755198955535889,0.009474635124206543
0.04270714521408081,-0.027770621702075005,0.02885681763291359,0.022574663162231445,0.004176914691925049,-0.005368709564208984
0.060141123831272125,-0.055905427783727646,0.03769223392009735,0.013625219464302063,0.007973968982696533,0.004118382930755615
0.027023322880268097,-0.012031925842165947,0.0316433385014534,-0.00048129260540008545,0.009570538997650146,0.034743666648864746
-0.0267275869846344,0.045283880084753036,0.008800016716122627,-0.004020705819129944,0.014073997735977173,0.043951332569122314
-0.03401504084467888,0.04992647096514702,0.005499090533703566,0.002913638949394226,0.020198166370391846,0.018294095993041992
0.0061170305125415325,-0.015716947615146637,0.0025573866441845894,0.006063565611839294,0.01847606897354126,-0.007219552993774414
0.01897207461297512,-0.02010539546608925,-0.005870151333510876,0.0010432302951812744,0.01694256067276001,0.007513880729675293
-0.0245070680975914,-0.007126445882022381,-0.021593406796455383,-0.0011532753705978394,0.012711197137832642,0.027499854564666748
-0.042490921914577484,-0.003896525129675865,-0.022796789184212685,0.0031394585967063904,-0.0002307593822479248,0.019694626331329346
-0.05375295877456665,0.02314310148358345,-0.002739640884101391,0.0122775137424469,-0.0026789307594299316,0.01237267255783081
-0.046081505715847015,0.057656027376651764,0.0022697695530951023,0.009033605456352234,-0.00623244047164917,0.001784205436706543
-0.016496796160936356,0.04891381785273552,-0.01268000714480877,0.0006904304027557373,-0.003348827362060547,-0.007942914962768555
0.0033944817259907722,0.019543342292308807,-0.010837657377123833,0.0008141547441482544,-0.006891816854476929,-0.0016704797744750977
-0.014646882191300392,0.04325577989220619,0.005922827869653702,-0.006578490138053894,-0.016472339630126953,0.017818093299865723
-0.027590975165367126,0.08487145602703094,0.01889076456427574,-0.004914507269859314,-0.016159892082214355,0.014872312545776367
-0.011697208508849144,0.07559983432292938,0.02691306546330452,-0.0024512261152267456,-0.005314886569976807,-0.007184386253356934
0.007831849157810211,0.04376790300011635,0.022146031260490417,-0.0031685084104537964,0.002223074436187744,-0.01936483383178711
0.026330113410949707,0.011910375207662582,0.015462003648281097,-0.004617840051651001,0.0025439858436584473,-0.02557194232940674
0.05305250361561775,-0.03974198177456856,0.003103370312601328,0.004360675811767578,0.009848594665527344,-0.024797916412353516
0.07137998938560486,-0.07894493639469147,0.017509354278445244,0.007531195878982544,0.006194889545440674,-0.010070562362670898
0.0360027514398098,-0.06159703806042671,0.03320980444550514,0.0020678192377090454,0.004805386066436768,0.02897632122039795
-0.022075193002820015,-0.011022860184311867,0.025833681225776672,-0.009221494197845459,0.0007105767726898193,0.052370548248291016
-0.041687387973070145,0.03774222731590271,0.011144033633172512,-0.016825750470161438,-0.004340022802352905,0.04101210832595825
-0.02850816771388054,0.06011071801185608,-0.011606690473854542,-0.02081345021724701,-0.005475163459777832,0.016241073608398438
0.005402863956987858,0.036020614206790924,-0.027126319706439972,-0.015708863735198975,-0.0035317540168762207,-0.009846746921539307
0.023358918726444244,0.009966605342924595,-0.03615203872323036,-0.004941463470458984,0.0034897923469543457,-0.016777396202087402
0.041528984904289246,-0.02225930616259575,-0.03181419521570206,0.0014957040548324585,-0.002020031213760376,-0.018394052982330322
0.040024951100349426,-0.03464839234948158,0.0016722148284316063,0.017003417015075684,-0.0001659989356994629,-0.006460249423980713
0.036282483488321304,-0.03682829439640045,0.04803181439638138,0.01847980171442032,-0.0033377110958099365,0.0022870898246765137
0.02534889616072178,-0.016634168103337288,0.06418900191783905,0.0052327364683151245,-0.000519096851348877,0.017156541347503662
0.011610640212893486,0.006614264100790024,0.04375634714961052,-0.008822128176689148,0.007619261741638184,0.02443373203277588
0.000757778063416481,0.005638207774609327,0.011359021067619324,-0.013336673378944397,0.014116376638412476,0.02196568250656128
-0.006619827821850777,0.005256906151771545,-0.0024879067204892635,-0.011950716376304626,0.010440737009048462,0.019842445850372314
-0.015497046522796154,-0.001895831897854805,-0.004806105047464371,-0.011124201118946075,0.0063562095165252686,0.01761239767074585
-0.029446490108966827,0.01096897292882204,-0.004482496529817581,-0.008797548711299896,0.010218650102615356,0.011913120746612549
-0.026059424504637718,0.01535090059041977,-0.015111005865037441,-0.011117339134216309,0.011550813913345337,0.003366708755493164
-0.01757124438881874,0.0026689344085752964,-0.03325597196817398,-0.010902486741542816,0.01154908537864685,-0.007613420486450195
0.0027879509143531322,-0.03935825079679489,-0.04362833499908447,-0.005572482943534851,0.00887918472290039,-0.0177423357963562
0.022420281544327736,-0.07368472963571548,-0.04228224977850914,0.002615809440612793,0.006434082984924316,-0.0077547430992126465
-0.0027999388985335827,-0.029997017234563828,-0.029663246124982834,0.0006561130285263062,-0.004736661911010742,0.019696950912475586
-0.03965100273489952,0.008429483510553837,-0.024938590824604034,0.007364034652709961,-0.001443028450012207,0.027548670768737793
-0.018391497433185577,0.00400158017873764,-0.024515211582183838,0.011892937123775482,0.0032356679439544678,0.007415771484375
0.008137067779898643,-0.002462807111442089,-0.024033917114138603,0.011674702167510986,-0.001061081886291504,0.00390470027923584
0.009831786155700684,0.011888764798641205,-0.009386085905134678,0.012945815920829773,-0.006261587142944336,0.01591801643371582
-0.021328892558813095,0.04470549896359444,0.005988991819322109,0.012959212064743042,0.001702636480331421,0.028668999671936035
-0.04226865619421005,0.04095587506890297,0.020310554653406143,0.008948378264904022,0.00647851824760437,0.024758875370025635
-0.03695019334554672,0.01789439097046852,0.02865542098879814,-0.0020516812801361084,0.009581208229064941,0.009874343872070312
-0.03685512766242027,-0.016597718000411987,0.012008624151349068,-0.01370297372341156,0.010380923748016357,-0.0004801750183105469
-0.04000440612435341,-0.021512702107429504,-0.010797472670674324,-0.014134243130683899,0.013545513153076172,0.003975272178649902
-0.05269988253712654,0.005805335007607937,-0.02559536322951317,-0.012325763702392578,0.010525435209274292,0.007128357887268066
-0.04364626109600067,0.0106789730489254,-0.03863372653722763,-0.011648774147033691,0.0022687017917633057,0.0011532306671142578
-0.037640687078237534,0.014386685565114021,-0.046931955963373184,-0.002393171191215515,0.003294020891189575,-0.0025728940963745117
-0.03706938773393631,-0.0067899771966040134,-0.05623594671487808,0.006248123943805695,-0.002126067876815796,-0.004487812519073486
-0.02884286269545555,-0.023330170661211014,-0.029866328462958336,0.018249422311782837,-0.007603645324707031,-0.009631216526031494
-0.01742597296833992,-0.015598327852785587,-0.0034449631348252296,0.020705893635749817,-0.012470006942749023,-0.005594611167907715
0.0018356340005993843,0.01407872885465622,0.01041715033352375,0.01427401602268219,-0.010809659957885742,-0.002228260040283203
0.017081445083022118,0.020205574110150337,0.0022216709330677986,0.007768496870994568,-0.008337736129760742,7.50422477722168e-05
0.01600225456058979,0.008946073241531849,-0.0041687763296067715,0.01381915807723999,0.000590980052947998,0.007517695426940918
0.018620792776346207,-0.008644700050354004,0.00840995367616415,0.017687499523162842,-0.0031691789627075195,0.009244918823242188
0.006251998245716095,0.006679975893348455,0.03626605123281479,0.019178174436092377,0.0015465915203094482,0.01782369613647461
-0.005935709457844496,0.020257404074072838,0.04711836948990822,0.006615445017814636,0.0033049583435058594,0.026195645332336426
-0.015469825826585293,0.020003870129585266,0.03870251402258873,-0.007654964923858643,0.009635508060455322,0.02677541971206665
-0.039743732661008835,0.026839356869459152,0.02315128594636917,-0.014821186661720276,0.012090504169464111,0.02502894401550293
-0.048369258642196655,0.04043947532773018,0.02019611746072769,-0.012698426842689514,0.011453241109848022,0.009889066219329834
-0.02977176196873188,0.02982993796467781,0.021859746426343918,-0.017626911401748657,0.010746359825134277,-0.012318134307861328
-0.007341885007917881,-0.0008837093482725322,-0.0070428005419671535,-0.024152934551239014,0.01213008165359497,-0.020513474941253662
-0.0049369665794074535,-0.009972140192985535,-0.036890484392642975,-0.023878544569015503,0.013310432434082031,-0.01259678602218628
-0.022715682163834572,0.0027350306045264006,-0.049917541444301605,-0.01405055820941925,0.010964661836624146,-0.005623459815979004
-0.005867569707334042,-0.016520945355296135,-0.0417637936770916,-0.0006283819675445557,0.008387982845306396,-0.01553565263748169
0.020195171236991882,-0.042934343218803406,-0.02598489448428154,0.006354793906211853,0.006280243396759033,-0.0157778263092041
0.036888398230075836,-0.052022114396095276,-0.03543698415160179,0.004792444407939911,0.0011046826839447021,-0.005487620830535889
0.04170912504196167,-0.05731024593114853,-0.031104672700166702,0.012850269675254822,0.000835120677947998,0.003827810287475586
0.0019871224649250507,-0.02086649276316166,-0.005033337511122227,0.021839149296283722,-0.003363311290740967,0.02058357000350952
-0.026910409331321716,0.007289736066013575,0.022810522466897964,0.021358266472816467,-0.0070066750049591064,0.01669776439666748
0.0038951104506850243,-0.021635068580508232,0.03485167771577835,0.024547651410102844,-0.0014351904392242432,-0.003268420696258545
0.026789922267198563,-0.016519606113433838,0.03422281891107559,0.01698637753725052,-4.169344902038574e-05,0.0003756284713745117
0.02663137950003147,0.01873653568327427,0.01396776270121336,0.00788259506225586,-0.0025783181190490723,0.012772440910339355
0.03070787899196148,0.029768148437142372,0.019935905933380127,0.01685883104801178,0.0072297751903533936,0.01121675968170166
0.02586185373365879,0.03178272023797035,0.03649396449327469,0.019161954522132874,0.01373279094696045,0.015912294387817383
-0.014316022396087646,0.044047899544239044,0.05325064808130264,-0.002559095621109009,0.003495246171951294,0.029087305068969727
-0.060373689979314804,0.061872128397226334,0.04446643218398094,-0.021510228514671326,-0.0022107958793640137,0.030292391777038574
-0.05570192635059357,0.07171202450990677,0.02313930168747902,-0.02588503062725067,0.006676912307739258,0.004801809787750244
-0.009299466386437416,0.0655866488814354,-0.00798177532851696,-0.025792837142944336,0.014368146657943726,-0.026674091815948486
0.024413062259554863,0.0491616427898407,-0.042137596756219864,-0.023763254284858704,0.01110154390335083,-0.034715235233306885
0.04305511713027954,0.01225380226969719,-0.05976887792348862,-0.02166607975959778,0.00013050436973571777,-0.034066855907440186
0.0333004929125309,-0.014431871473789215,-0.05540289357304573,-0.00960056483745575,-0.002470850944519043,-0.021338939666748047
0.04049389809370041,-0.009157479740679264,-0.043205905705690384,-0.005525939166545868,-0.010251522064208984,-0.014735758304595947
0.061638616025447845,0.02001308836042881,-0.03537428379058838,-0.001446157693862915,-0.008717656135559082,-0.010597944259643555
0.08515353500843048,0.030632391571998596,-0.04155385121703148,0.004154473543167114,-0.0049689412117004395,-0.007124364376068115
0.08298639953136444,0.032647401094436646,-0.04616440087556839,0.007306918501853943,-0.0032315850257873535,0.0031932592391967773
0.06630957126617432,0.019029121845960617,-0.03436215594410896,0.011280789971351624,-0.009061872959136963,0.004124045372009277
0.07265633344650269,0.015076341107487679,-0.009297670796513557,0.02080826461315155,-0.007999122142791748,0.0005601048469543457
0.08425045013427734,0.04149521142244339,-0.0021936928387731314,0.016673818230628967,-0.004751026630401611,0.002789318561553955
0.10591699182987213,0.06973180174827576,-0.006906305439770222,0.009923718869686127,0.0007427036762237549,0.007043242454528809
0.09379754215478897,0.07693613320589066,-0.016361534595489502,0.006314575672149658,0.0042427778244018555,0.02042222023010254
0.06025730445981026,0.05050484463572502,0.0003507821820676327,0.01311388611793518,0.0026430487632751465,0.026763617992401123
0.03206992521882057,0.024052511900663376,0.05029543116688728,0.023773282766342163,0.003930807113647461,0.023272216320037842
0.011850522831082344,0.0028492207638919353,0.0726441964507103,0.01591379940509796,0.009765207767486572,0.022118449211120605
0.023028206080198288,0.013387959450483322,0.058733224868774414,-0.0034222006797790527,0.012816101312637329,0.013465821743011475
0.030260955914855003,0.029568983241915703,0.018476830795407295,-0.01708957552909851,0.01537218689918518,0.013757467269897461
0.02194056287407875,0.025553859770298004,0.0060340301133692265,-0.01402929425239563,0.013456672430038452,0.012331247329711914
0.007963281124830246,-0.00890452228486538,0.0031021838076412678,-0.007073879241943359,0.010588586330413818,0.009814739227294922
0.0016820537857711315,-0.03768046945333481,0.003986639436334372,-0.0005262419581413269,0.010841161012649536,0.014105021953582764
-0.004625416826456785,-0.036025140434503555,-0.0025140983052551746,0.002093665301799774,0.00926104187965393,0.0179063081741333
-0.0050011551938951015,-0.016773803159594536,-0.00671024713665247,0.005084112286567688,0.0012216567993164062,0.025147080421447754
-0.013794834725558758,0.021164901554584503,-0.007082432042807341,0.007732674479484558,-0.0020178258419036865,0.030056536197662354
-0.021898560225963593,0.03998167812824249,-0.012101393193006516,0.012486159801483154,-0.0023412704467773438,0.02460193634033203
-0.017485903576016426,0.03173381835222244,0.0012956978753209114,0.01838788390159607,-0.006441473960876465,0.01559668779373169
-0.034467946738004684,0.00821102224290371,0.034571778029203415,0.021164342761039734,-0.012849777936935425,0.014654695987701416
-0.05310538038611412,-0.0005665268981829286,0.06959258764982224,0.018711477518081665,-0.012906104326248169,0.018947064876556396
-0.054390907287597656,0.03056059405207634,0.07645309716463089,0.0008714199066162109,-0.00968816876411438,0.018914997577667236
-0.05335741490125656,0.09721247851848602,0.05881405621767044,-0.01841782033443451,-0.0077918171882629395,0.011171340942382812
-0.03452087938785553,0.10382803529500961,0.025885671377182007,-0.02633567899465561,-0.0017433762550354004,-0.013071775436401367
0.0015187179669737816,0.06805781275033951,-0.0035980015527457,-0.02384869009256363,0.0099581778049469,-0.03559643030166626
0.05155542492866516,-0.003322433214634657,-0.030611395835876465,-0.019750818610191345,0.015460938215255737,-0.04630589485168457
0.0845407247543335,-0.10073405504226685,-0.031943365931510925,-0.007665403187274933,0.014354676008224487,-0.036823928356170654
0.05744294822216034,-0.11726561933755875,-0.013242701068520546,-0.00025710463523864746,0.01031520962715149,0.004732251167297363
0.0024344120174646378,-0.07362419366836548,0.00719395000487566,0.0016956627368927002,0.004358470439910889,0.03796792030334473
-0.0357448048889637,-0.011645881459116936,0.0071876756846904755,-0.0035656392574310303,0.004587352275848389,0.04291802644729614
-0.041447967290878296,0.014105339534580708,-0.030754148960113525,-0.01060427725315094,0.006394922733306885,0.027374863624572754
-0.012216471135616302,-0.007051645312458277,-0.07102704793214798,-0.003818333148956299,0.009060710668563843,0.009105324745178223
-0.0016491501592099667,-0.021621016785502434,-0.09250243008136749,0.006061077117919922,0.0035752058029174805,0.011778116226196289
-0.03769770637154579,0.01807078719139099,-0.07645665854215622,0.014085233211517334,-0.010225117206573486,0.031013309955596924
-0.07982177287340164,0.06950250267982483,-0.038020044565200806,0.022758543491363525,-0.02176913619041443,0.028064608573913574
-0.06440074741840363,0.06901652365922928,-0.0035257479175925255,0.02503553032875061,-0.021763145923614502,-0.006358087062835693
-0.02245931327342987,0.022430431097745895,0.006314381957054138,0.021959811449050903,-0.013903647661209106,-0.03141140937805176
0.01830279268324375,-0.01975690759718418,0.0020595830865204334,0.018594034016132355,-0.008331745862960815,-0.03114992380142212
0.047309376299381256,-0.040600232779979706,0.01522841677069664,0.01897387206554413,-0.007768511772155762,-0.01646369695663452
0.04944143816828728,-0.03968023508787155,0.030556512996554375,0.019063249230384827,-0.0038436055183410645,0.007901251316070557
0.024664076045155525,-0.01771932654082775,0.050864700227975845,0.014610819518566132,0.00035634636878967285,0.029860377311706543
0.002797313965857029,-0.0005835933261550963,0.06501021981239319,0.012079745531082153,0.0056496262550354,0.0374906063079834
-0.017882246524095535,0.015459028072655201,0.07469342648983002,0.001298278570175171,0.009120702743530273,0.03837907314300537
-0.039925552904605865,0.02649517171084881,0.05283496901392937,-0.016769051551818848,0.011326819658279419,0.03555184602737427
-0.050521425902843475,0.035668473690748215,0.017549410462379456,-0.023821771144866943,0.015607595443725586,0.020572304725646973
-0.03601544350385666,0.03775075078010559,0.0006402349099516869,-0.015395648777484894,0.021250993013381958,8.386373519897461e-05
-0.019460491836071014,0.01724148541688919,-0.0012160148471593857,-0.009378969669342041,0.01997143030166626,-0.012830972671508789
-0.018270501866936684,-0.011561461724340916,-0.009531820192933083,-0.0081801638007164,0.018028348684310913,-0.012610852718353271
-0.02394869737327099,-0.02499448135495186,-0.01732994057238102,-0.005483537912368774,0.012124359607696533,-0.0042365193367004395
-0.03431590646505356,-0.019456883892416954,-0.0002057766541838646,0.002563178539276123,0.0065042078495025635,0.001219630241394043
-0.02448488399386406,-0.03397712484002113,0.014029160141944885,0.006665810942649841,0.002521693706512451,0.0005464553833007812
-0.025454264134168625,-0.036029934883117676,0.015287268906831741,0.005119681358337402,0.002321690320968628,0.0073198676109313965
-0.03579862788319588,-0.013013950549066067,0.0015306849963963032,0.004851192235946655,-0.0014085769653320312,0.016444683074951172
-0.016958292573690414,-0.005092569161206484,0.012189483270049095,0.00958658754825592,-0.008330017328262329,0.0064789652824401855
-0.028249019756913185,0.02510818839073181,0.043144866824150085,0.018593572080135345,-0.010085314512252808,0.006402552127838135
-0.04581257328391075,0.038312725722789764,0.044991206377744675,0.01193082332611084,-0.010061919689178467,-0.003520965576171875
-0.007728054188191891,-0.0018852767534554005,0.029550066217780113,0.01087518036365509,0.0021081864833831787,-0.02571040391921997
0.04136001691222191,-0.03269050642848015,0.017794886603951454,0.012508735060691833,0.002535879611968994,-0.02650672197341919
0.05388066917657852,-0.015505178831517696,0.033278029412031174,0.012861654162406921,-0.0036199092864990234,0.0024367570877075195
0.030365556478500366,0.01727236807346344,0.05254875868558884,0.01120041310787201,-0.0045413970947265625,0.029270172119140625
0.0009436830878257751,0.03545254468917847,0.07432480156421661,0.01628144085407257,0.005638837814331055,0.03558993339538574
-0.01563248783349991,0.04077759012579918,0.10428847372531891,0.009897023439407349,0.0048828125,0.02469080686569214
-0.03167363628745079,0.03003397211432457,0.11178275942802429,-0.0033140480518341064,0.0076885223388671875,0.013738274574279785
-0.024083569645881653,0.015258485451340675,0.08785001933574677,-0.018009811639785767,0.013832509517669678,-0.0023818612098693848
-0.0014151306822896004,-0.01597714237868786,0.055387336760759354,-0.028655007481575012,0.017258018255233765,-0.011191368103027344
0.004912189207971096,-0.010847683064639568,0.015217654407024384,-0.031138360500335693,0.014484971761703491,-0.004796802997589111
-0.015286620706319809,0.025815574452280998,0.010962664149701595,-0.018048465251922607,0.0156632661819458,0.004309654235839844
-0.0258985236287117,0.02905821055173874,0.01161903515458107,-0.011728808283805847,0.011008143424987793,-0.004383563995361328
-0.0032979336101561785,-0.01152322068810463,0.015004484914243221,-0.006480470299720764,0.013398021459579468,-0.019669294357299805
0.023088347166776657,-0.05821248143911362,-0.002674634102731943,-0.013273186981678009,0.010985463857650757,-0.014640331268310547
0.02208404615521431,-0.05192294716835022,-0.025218162685632706,-0.023650899529457092,0.0026274025440216064,0.007822036743164062
-0.0022804392501711845,-0.014203788712620735,-0.03934715688228607,-0.017866596579551697,-0.0006177425384521484,0.02699756622314453
-0.013013859279453754,0.002023005625233054,-0.017227329313755035,0.0007414668798446655,-0.003392159938812256,0.024530768394470215
-0.015602948144078255,-0.0014351641293615103,0.020706359297037125,0.008638352155685425,-0.004494369029998779,0.01431506872177124
-0.025158219039440155,-0.007563152350485325,0.03772075101733208,-0.0004774332046508789,-0.005017518997192383,0.009871959686279297
-0.02590571902692318,-0.01675228215754032,0.03059275448322296,-0.008290648460388184,0.0018253326416015625,0.0020855069160461426
0.003406113013625145,-0.04284076765179634,-0.00016185827553272247,-0.016700059175491333,0.005360543727874756,-0.010844767093658447
0.024870125576853752,-0.06834959238767624,-0.014570890925824642,-0.009914621710777283,0.00776749849319458,-0.00691753625869751
0.014202920719981194,-0.050548162311315536,-0.015208560973405838,-0.003185093402862549,0.0020621418952941895,0.009919166564941406
0.004049582406878471,-0.005050671752542257,-0.012328822165727615,0.0024092793464660645,0.0010852217674255371,0.019907772541046143
-0.0038873115554451942,0.026446808129549026,-0.003730232361704111,0.006785258650779724,0.003384411334991455,0.016436994075775146
-0.021949654445052147,0.02773156203329563,0.00952686183154583,0.010579921305179596,0.0057115256786346436,0.006528079509735107
-0.019159642979502678,-0.020965084433555603,0.011692171916365623,0.009038224816322327,0.0038475990295410156,-0.011561751365661621
0.002217528410255909,-0.04317723214626312,0.004951039794832468,0.0019497424364089966,0.008813679218292236,-0.017806172370910645
0.021401964128017426,-0.02125329151749611,-0.01935943029820919,-0.005429819226264954,0.005289733409881592,-0.006489753723144531
0.006068828050047159,0.008922353386878967,-0.03370288386940956,0.0012796521186828613,0.0070635974407196045,0.0059926509857177734
0.0070232185535132885,-0.007145090028643608,-0.020917735993862152,0.008717268705368042,0.002089977264404297,0.00023001432418823242
0.017721178010106087,-0.04674128070473671,0.002435669768601656,0.010898858308792114,-0.0024851560592651367,-0.0031510591506958008
0.018603356555104256,-0.051839057356119156,0.007036202121526003,0.01013094186782837,-0.0008094310760498047,0.009063482284545898
0.009840259328484535,-0.027171576395630836,0.0066957902163267136,0.005776643753051758,0.001069486141204834,0.022202253341674805
-0.011786552146077156,0.015708934515714645,0.011277100071310997,0.0038578808307647705,-0.003801703453063965,0.03164112567901611
-0.035930436104536057,0.039823804050683975,0.029284123331308365,0.002239510416984558,-0.0053081512451171875,0.02724754810333252
-0.02412593550980091,0.0015765662537887692,0.02459472231566906,0.00029496848583221436,0.003431081771850586,0.0038047432899475098
-0.004163771402090788,-0.03073003888130188,0.00031106825917959213,-0.005684569478034973,0.006291389465332031,-0.004530549049377441
-0.004895249847322702,-0.012704368680715561,-0.011452226899564266,-0.008164085447788239,-0.0022868216037750244,0.002984941005706787
-0.004943020176142454,0.01368754357099533,-0.004531922750174999,-0.0028851479291915894,-0.004054665565490723,0.003111600875854492
0.008422689512372017,0.0031410534866154194,0.010648038238286972,0.0028424710035324097,-0.00021225214004516602,-0.003978133201599121
0.016685009002685547,-0.028372179716825485,0.01028965599834919,-0.0003259032964706421,0.005126774311065674,0.0009044408798217773
-0.007423609495162964,-0.03153181076049805,-0.005854533053934574,-0.007630690932273865,0.006788760423660278,0.020507097244262695
-0.0409507118165493,0.024014266207814217,-0.032731588929891586,-0.013311535120010376,-0.0003565847873687744,0.027059435844421387
-0.03232159465551376,0.0641568973660469,-0.05075641721487045,-0.005999162793159485,0.0017788708209991455,0.006553709506988525
0.0020087407901883125,0.046146735548973083,-0.05665929242968559,0.006148234009742737,0.001695394515991211,-0.01780027151107788
0.025144027546048164,0.020331967622041702,-0.05574990063905716,0.01522023230791092,-0.0015211999416351318,-0.02437436580657959
0.01803537830710411,0.005555099342018366,-0.034777961671352386,0.021335139870643616,-0.004050076007843018,-0.018095970153808594
0.04437963292002678,-0.013470789417624474,-0.007078689057379961,0.02347947657108307,-0.006145358085632324,-0.019647955894470215
0.06826053559780121,-0.01812988519668579,0.008055116981267929,0.017700836062431335,-0.0003947615623474121,-0.0055776238441467285
0.07050617784261703,-0.002726105973124504,-0.0006126849912106991,0.005388960242271423,0.0035370588302612305,0.016080200672149658
0.0563056655228138,0.0038353900890797377,-0.004836724605411291,-0.0009189099073410034,0.006988227367401123,0.03437930345535278
0.0292974840849638,-0.008723811246454716,-0.012650439515709877,-0.002590775489807129,0.007424682378768921,0.045263051986694336
-0.013481050729751587,-0.006465448997914791,-0.004095105919986963,0.0011835098266601562,0.002777695655822754,0.0498163104057312
-0.04907713085412979,0.01457916758954525,0.017596572637557983,0.00782477855682373,0.0024195313453674316,0.04293191432952881
-0.06181605905294418,0.050137437880039215,0.029241621494293213,-0.00025519728660583496,0.0030556917190551758,0.024335503578186035
-0.055549293756484985,0.056831762194633484,0.0106817577034235,-0.007597222924232483,0.012707293033599854,0.002658247947692871
-0.0350075401365757,0.028929932042956352,-0.03903074190020561,-0.015468627214431763,0.018680989742279053,-0.01327747106552124
-0.024125998839735985,-0.017465900629758835,-0.06642203778028488,-0.013397857546806335,0.0103987455368042,-0.011564433574676514
-0.027785303071141243,-0.032169219106435776,-0.03733716905117035,-0.003498747944831848,-0.0035244524478912354,0.0020612478256225586
-0.0400850847363472,-0.010768793523311615,-0.007577539421617985,-0.002628803253173828,-0.011708080768585205,0.011917531490325928
-0.04429897293448448,0.0077779339626431465,-0.006369107402861118,-0.013475075364112854,-0.00812464952468872,0.007104218006134033
-0.029208621010184288,-0.004305041395127773,-0.042025741189718246,-0.021682217717170715,-0.0026818513870239258,-0.011587858200073242
0.011826761066913605,-0.037400998175144196,-0.06328516453504562,-0.01636148989200592,-0.0019314289093017578,-0.024985790252685547
0.022430261597037315,-0.04550211876630783,-0.058160364627838135,-0.004285708069801331,0.0011149942874908447,-0.014969825744628906
0.014832133427262306,-0.04588790237903595,-0.05167887732386589,-0.002049490809440613,0.002317100763320923,-0.0011612772941589355
0.02021784335374832,-0.06203331798315048,-0.05097287520766258,-0.001554250717163086,0.006359577178955078,0.0066435933113098145
0.014673745259642601,-0.06285741180181503,-0.05827011168003082,-0.005588889122009277,0.0036959052085876465,0.019719719886779785
-0.0027992473915219307,-0.026058966293931007,-0.05309555307030678,-0.0012343823909759521,0.007153302431106567,0.034882187843322754
-0.02748621068894863,0.005441118963062763,-0.05176234245300293,-0.0003273487091064453,0.011651933193206787,0.03644818067550659
-0.03971860185265541,0.013634491711854935,-0.05174191668629646,-0.006588563323020935,0.0037716031074523926,0.021819353103637695
-0.058517925441265106,0.009740259498357773,-0.035498857498168945,0.0006175488233566284,0.007365196943283081,0.002972841262817383
-0.03978398069739342,-0.030769087374210358,-0.048783790320158005,0.0031487345695495605,0.015528500080108643,-0.020166635513305664
-0.00887965876609087,-0.05235155671834946,-0.059285491704940796,0.00895969569683075,0.021053612232208252,-0.021663248538970947
0.0013297614641487598,-0.03421686589717865,-0.05955406650900841,0.009837880730628967,0.00995403528213501,-0.0036073923110961914
-0.01666749268770218,-0.011630738154053688,-0.04294503107666969,0.019386067986488342,0.006403416395187378,0.011774599552154541
-0.031133638694882393,0.002614119555801153,-0.015330946072936058,0.02285228669643402,0.0043694376945495605,0.017362534999847412
-0.030530406162142754,0.004512953571975231,-0.005707441829144955,0.02101553976535797,0.0037023425102233887,0.014357328414916992
-0.028272006660699844,0.028911450877785683,0.007813312113285065,0.019002586603164673,0.0028613507747650146,0.012503325939178467
-0.03284863382577896,0.0361204631626606,0.018613602966070175,0.01627500355243683,-0.0008978843688964844,0.011269927024841309
-0.029810039326548576,0.04113583639264107,0.025486862286925316,0.013579219579696655,0.007341593503952026,0.008489012718200684
-0.03693846985697746,0.044957052916288376,0.032277606427669525,0.01149013638496399,0.007299363613128662,0.008529841899871826
-0.04589299485087395,0.06343453377485275,0.053662754595279694,0.01100313663482666,0.0036070942878723145,0.0006699562072753906
-0.02605966106057167,0.04192424938082695,0.05709509178996086,0.0033920109272003174,0.006756424903869629,-0.013782978057861328
-0.008802441880106926,0.014509454369544983,0.02446172386407852,-0.007517531514167786,0.015435934066772461,-0.015949130058288574
-0.0036124971229583025,0.01920716091990471,-0.008531425148248672,-0.01206669956445694,0.01079210638999939,-0.0067612528800964355
-0.002603569533675909,0.027207238599658012,-0.013360184617340565,-0.00401228666305542,-0.0006146430969238281,0.0001951456069946289
-0.009360685013234615,0.018187325447797775,0.024977698922157288,0.015703901648521423,-0.004671335220336914,0.0016646385192871094
-0.019604196771979332,0.01801145076751709,0.05254390463232994,0.01732461154460907,-0.0036073625087738037,0.008739769458770752
-0.013373075053095818,0.018283303827047348,0.06306134164333344,0.004305586218833923,-0.0035329461097717285,0.011052131652832031
-0.017034266144037247,0.04496099054813385,0.055231425911188126,-0.0020330995321273804,0.0015132129192352295,0.013259947299957275
-0.021573562175035477,0.06275570392608643,0.034944821149110794,-0.007974877953529358,-0.0001906752586364746,0.008372306823730469
-0.0022041024640202522,0.04164775088429451,0.03926624357700348,0.0005182176828384399,0.003149867057800293,-0.00975179672241211
