rotation_x,rotation_y,rotation_z,acceleration_x,acceleration_y,acceleration_z
-0.17823168635368347,0.26455816626548767,-0.034030698239803314,-0.019954189658164978,-0.028796851634979248,0.08721953630447388
-0.23575270175933838,0.18114151060581207,0.016710568219423294,0.00569133460521698,-0.011450111865997314,0.0038775205612182617
-0.13146179914474487,-0.05123596638441086,0.06201751530170441,0.014568805694580078,0.014074504375457764,-0.03618478775024414
0.01624894328415394,-0.20064416527748108,0.0787808746099472,0.00783751904964447,0.012210965156555176,-0.013909578323364258
0.08521620184183121,-0.13685210049152374,0.08626614511013031,-0.006163880228996277,0.004727721214294434,0.04334855079650879
0.01680111512541771,0.0017805462703108788,0.08078788965940475,-0.017606258392333984,-0.0014139413833618164,0.07975775003433228
-0.1250981241464615,0.0853172317147255,0.07730066776275635,-0.019990190863609314,-0.0005303621292114258,0.05639725923538208
-0.1767284870147705,-0.011359505355358124,0.04764854535460472,-0.014441341161727905,0.007171630859375,-0.003391861915588379
-0.10804042965173721,-0.08232971280813217,0.03278794139623642,-0.005217880010604858,0.018149971961975098,-0.02069193124771118
-0.029478831216692924,-0.04513668268918991,0.016925547271966934,-0.016568690538406372,-0.00022453069686889648,-0.006234109401702881
-0.010567564517259598,-0.001712437137030065,0.005805954337120056,-0.008637294173240662,0.0008342862129211426,-0.002336442470550537
-0.041672855615615845,-0.0034982766956090927,0.010063453577458858,0.0038442462682724,0.01723569631576538,0.006625771522521973
-0.09304775297641754,-0.018098143860697746,0.0103986244648695,-0.012258395552635193,-0.0029754042625427246,0.0032060742378234863
-0.11067347228527069,-0.0694035068154335,-0.004791381303220987,-0.009873837232589722,-0.0025214552879333496,-0.01463550329208374
-0.06870383024215698,-0.07505077123641968,-0.023988444358110428,-0.007254257798194885,0.0047487616539001465,-0.01552969217300415
-0.03656519949436188,-0.019973140209913254,-0.051218293607234955,-0.01038411259651184,-0.004593253135681152,-0.0060149431228637695
-0.030976109206676483,-0.00778801878914237,-0.06962801516056061,0.0034197568893432617,-0.008096456527709961,-0.016003012657165527
0.006585934665054083,-0.03534138575196266,-0.046617209911346436,0.014457687735557556,-0.0014837384223937988,-0.014167368412017822
0.02920699492096901,-0.0014263744233176112,-0.03941747546195984,0.0030540823936462402,-0.004814624786376953,-0.002788364887237549
0.022888924926519394,-0.008126288652420044,-0.0523253008723259,0.006546735763549805,-0.0015076994895935059,0.0008414387702941895
0.019381357356905937,-0.02173023484647274,-0.0340055450797081,0.01419532299041748,0.0008751749992370605,0.010328888893127441
-0.003715191502124071,-0.021743087098002434,-0.02065972611308098,0.0129108726978302,-0.0017905235290527344,0.0068929195404052734
0.003134914208203554,-0.03306765854358673,-0.006398539058864117,0.014533057808876038,0.006011903285980225,0.0039650797843933105
0.007415550295263529,-0.022310027852654457,0.01698816567659378,0.0032910555601119995,-0.0019978880882263184,0.009707272052764893
-0.012557193636894226,-0.03361581638455391,0.02285686880350113,0.004824981093406677,0.011173844337463379,0.007022738456726074
-0.017657529562711716,-0.06212983652949333,0.01680389977991581,-0.0002777278423309326,0.017715871334075928,0.007057130336761475
-0.014656154438853264,-0.037083134055137634,-0.0009338040836155415,-0.012842893600463867,0.006156861782073975,0.008837699890136719
-0.007506099529564381,-0.003919639624655247,-0.01599850133061409,0.0018700063228607178,0.016279220581054688,0.010545074939727783
-0.013532300479710102,0.010547501035034657,-0.01981028914451599,-8.52346420288086e-05,0.008227288722991943,0.004088282585144043
-0.021438073366880417,-0.017092151567339897,-0.016268212348222733,0.014662042260169983,0.01393359899520874,-0.003732025623321533
-0.005617732647806406,-0.0477796271443367,0.0021809441968798637,0.009133800864219666,0.009711265563964844,0.0028090476989746094
-0.00813607033342123,-0.07723486423492432,0.005976405926048756,-0.00032192468643188477,0.005578517913818359,0.006233632564544678
-0.005065925419330597,-0.06894616782665253,0.0023324782960116863,-0.0057858675718307495,0.009908795356750488,0.015131175518035889
-0.006891212426126003,-0.028234174475073814,-0.027759874239563942,-0.011942878365516663,0.008268296718597412,0.020355522632598877
-0.028261836618185043,0.0010427936213091016,-0.05006977915763855,-0.005280062556266785,0.01241832971572876,0.020177006721496582
-0.06957995146512985,0.004486279562115669,-0.056081321090459824,-0.005160436034202576,-0.0003001689910888672,0.006691157817840576
-0.07066425681114197,0.0009865718893706799,-0.057587504386901855,-0.00018736720085144043,0.002313852310180664,-0.020683646202087402
-0.009713754057884216,-0.031251419335603714,-0.07055779546499252,0.008025005459785461,0.0103379487991333,-0.031686604022979736
0.044030044227838516,-0.049814868718385696,-0.06850381940603256,0.0010555088520050049,-0.005494892597198486,-0.010425090789794922
0.01735539548099041,-0.008002517744898796,-0.0576137900352478,-0.005879878997802734,-0.0122336745262146,0.01797020435333252
-0.04787382483482361,0.03623934090137482,-0.05916760861873627,-0.0010011792182922363,-0.004120826721191406,0.009322106838226318
-0.059175293892621994,-0.0005281676421873271,-0.06894229352474213,0.010274812579154968,0.00033587217330932617,-0.02879875898361206
0.018189435824751854,-0.08906269818544388,-0.07657262682914734,0.018004506826400757,0.003991425037384033,-0.04010814428329468
0.11643385142087936,-0.12540210783481598,-0.06694839149713516,0.008965745568275452,0.001601099967956543,0.009635090827941895
0.10874734818935394,-0.03929408639669418,-0.06951361894607544,-0.009230509400367737,-0.010013818740844727,0.06701719760894775
0.0048938533291220665,0.08027710765600204,-0.07183115929365158,-0.007047906517982483,-0.016762197017669678,0.07515966892242432
-0.08673086017370224,0.11002910137176514,-0.07791406661272049,0.0023976564407348633,-0.011921048164367676,0.030808687210083008
-0.07817172259092331,0.044540051370859146,-0.07648313045501709,0.012907728552818298,-0.008378684520721436,-0.014439761638641357
-0.013665253296494484,-0.006757928989827633,-0.07607468962669373,0.01851862668991089,-0.0070694684982299805,-0.021973252296447754
0.05174114555120468,0.006240503862500191,-0.08059491962194443,0.015463098883628845,-0.013601422309875488,-0.0030486583709716797
0.0638810247182846,0.07379807531833649,-0.06953015178442001,0.009973794221878052,-0.017051339149475098,0.025746524333953857
0.012576183304190636,0.09588321298360825,-0.06398288905620575,0.015177011489868164,-0.017295360565185547,0.030830740928649902
-0.03326955810189247,0.07760011404752731,-0.032044101506471634,0.013873785734176636,-0.02060568332672119,0.012306153774261475
-0.0345521979033947,0.07815756648778915,-0.02235398441553116,0.004163369536399841,-0.02104806900024414,-0.007719814777374268
-0.005422770045697689,0.10399841517210007,-0.023050352931022644,0.008436977863311768,-0.014944314956665039,-0.02703070640563965
0.01930421032011509,0.11377908289432526,-0.006179698742926121,0.02440151572227478,-0.0037543177604675293,-0.034022510051727295
0.015011264011263847,0.08815867453813553,0.016185307875275612,0.02848874032497406,0.005082190036773682,-0.04824328422546387
0.06500858068466187,0.024845212697982788,0.03525908663868904,0.0237380713224411,0.020148634910583496,-0.05161166191101074
0.11515608429908752,-0.0017306419322267175,0.04552788287401199,0.007241562008857727,0.019370198249816895,-0.021538496017456055
0.11864665150642395,0.029515713453292847,0.03314441442489624,-0.00601041316986084,0.01717299222946167,0.009220600128173828
0.09920738637447357,0.07488437741994858,0.026021985337138176,-0.0038375109434127808,0.017453908920288086,0.020273804664611816
0.06421881914138794,0.11762170493602753,0.026289135217666626,0.00992003083229065,0.023168563842773438,0.012144327163696289
0.05157305672764778,0.09220150113105774,0.03080107644200325,0.027940914034843445,0.01629471778869629,-0.02057015895843506
0.10773704946041107,0.02580931968986988,0.07268894463777542,0.03725875914096832,0.014515280723571777,-0.024245917797088623
0.13393817842006683,0.03351587802171707,0.11107908189296722,0.030997052788734436,0.011603772640228271,0.015109419822692871
0.08675277978181839,0.11038010567426682,0.14002013206481934,0.022068649530410767,0.00865030288696289,0.04708069562911987
-0.007457496598362923,0.16877064108848572,0.19415003061294556,0.009426519274711609,0.0033758878707885742,0.048435330390930176
-0.06876477599143982,0.17081724107265472,0.23066119849681854,-0.0010872632265090942,0.00775909423828125,0.015866875648498535
-0.0512172095477581,0.14376138150691986,0.2351587414741516,-0.01104891300201416,0.011267602443695068,-0.017168402671813965
0.014168843626976013,0.1489347219467163,0.21348872780799866,-0.01852959394454956,0.009346306324005127,-0.02213364839553833
0.07799027860164642,0.17375335097312927,0.18414855003356934,-0.020632237195968628,0.007902562618255615,-0.0022017955780029297
0.09664911031723022,0.1946781724691391,0.18473462760448456,-0.014800772070884705,0.004730165004730225,0.027970969676971436
0.05759001895785332,0.1809813529253006,0.2326088547706604,-0.014924868941307068,-0.004018127918243408,0.052524030208587646
-0.027104506269097328,0.17404422163963318,0.29467445611953735,-0.02612803876399994,-0.0017967820167541504,0.05535465478897095
-0.09910083562135696,0.17688462138175964,0.31003808975219727,-0.03681820631027222,0.005615532398223877,0.023735225200653076
-0.07120466977357864,0.18401014804840088,0.29690131545066833,-0.043503910303115845,0.012019693851470947,-0.01642376184463501
0.009014801122248173,0.17701241374015808,0.24670152366161346,-0.04333178699016571,0.018006086349487305,-0.023952603340148926
0.09273651987314224,0.17269782721996307,0.2040639966726303,-0.03763662278652191,0.0209159255027771,-0.0012439489364624023
0.09751605987548828,0.1901845932006836,0.1885475367307663,-0.03336651623249054,0.012407958507537842,0.04079991579055786
0.012238124385476112,0.22051529586315155,0.22587011754512787,-0.026439175009727478,0.0037176012992858887,0.054776549339294434
-0.07282187044620514,0.21276652812957764,0.25458595156669617,-0.028712943196296692,0.006136715412139893,0.0298154354095459
-0.10318488627672195,0.17398324608802795,0.2335650473833084,-0.040891602635383606,0.009399652481079102,-0.006334364414215088
-0.06876715272665024,0.12775415182113647,0.16125020384788513,-0.04316958785057068,0.006849110126495361,-0.028999388217926025
0.02157687023282051,0.13437926769256592,0.08624016493558884,-0.03525838255882263,-0.0018877387046813965,-0.026736855506896973
0.10494458675384521,0.19521479308605194,0.04989825561642647,-0.022991105914115906,-0.012305080890655518,-0.003248274326324463
0.11827921867370605,0.26789435744285583,0.06217588111758232,-0.007430657744407654,-0.012668788433074951,0.013666510581970215
0.10836728662252426,0.2997393310070038,0.10948781669139862,-0.012232929468154907,-0.020892083644866943,0.015128493309020996
0.06574419140815735,0.33395877480506897,0.1700907200574875,-0.02950166165828705,-0.029724180698394775,0.00926142930984497
0.054638661444187164,0.3352436423301697,0.1953735500574112,-0.03629748523235321,-0.008837282657623291,-0.017641305923461914
0.08252507448196411,0.2987392842769623,0.16698549687862396,-0.05099114775657654,0.006521880626678467,-0.02784430980682373
0.12308630347251892,0.2602726221084595,0.11034908145666122,-0.05441708862781525,0.0053021907806396484,-0.020039260387420654
0.14459110796451569,0.25753533840179443,0.08438543975353241,-0.04230213165283203,0.008260846138000488,-0.0005340576171875
0.12992039322853088,0.25992172956466675,0.1062876433134079,-0.03071950376033783,0.01261836290359497,0.00855940580368042
0.10559423267841339,0.21455001831054688,0.1465279757976532,-0.036065079271793365,0.026248574256896973,0.00994962453842163
0.0931093618273735,0.1498754322528839,0.1478337198495865,-0.05045214295387268,0.03760373592376709,0.007978618144989014
0.10454908013343811,0.08795138448476791,0.11083047837018967,-0.06182442605495453,0.045977234840393066,0.004033505916595459
0.15627504885196686,0.07143988460302353,0.05460157245397568,-0.053179919719696045,0.0500645637512207,0.010829508304595947
0.20229613780975342,0.11888489127159119,0.026246950030326843,-0.040283530950546265,0.04262959957122803,0.033883094787597656
0.18526940047740936,0.17337992787361145,0.038617514073848724,-0.019465140998363495,0.026326239109039307,0.05565375089645386
0.11947645992040634,0.15751157701015472,0.09498430043458939,-0.0031755194067955017,0.013292551040649414,0.06248372793197632
0.031005917116999626,0.08971980214118958,0.14149874448776245,0.0022317469120025635,0.011469542980194092,0.06413578987121582
-0.08164799213409424,0.045431435108184814,0.1526149958372116,0.007153943181037903,0.014356553554534912,0.06074988842010498
-0.17428472638130188,0.05605137348175049,0.14090773463249207,0.02374061942100525,0.02343660593032837,0.04601442813873291
-0.22523050010204315,0.09832748025655746,0.13232512772083282,0.03811770677566528,0.03793579339981079,0.028675615787506104
-0.2269103080034256,0.1340462565422058,0.12745030224323273,0.03545588254928589,0.05213290452957153,0.01826077699661255
-0.19187375903129578,0.17377768456935883,0.10808086395263672,0.01569579541683197,0.05957740545272827,0.01692962646484375
-0.15766426920890808,0.22074314951896667,0.040399156510829926,-0.007720693945884705,0.05457627773284912,0.020018577575683594
-0.13726256787776947,0.250577449798584,-0.062345825135707855,-0.006932497024536133,0.03282719850540161,0.012788772583007812
-0.1258070468902588,0.2836375832557678,-0.08197741955518723,0.025029920041561127,0.012871801853179932,0.0034914612770080566
-0.15149763226509094,0.27936068177223206,-0.007751003839075565,0.05343984067440033,-0.001589655876159668,-0.011431336402893066
-0.16947339475154877,0.23393838107585907,0.1050235703587532,0.06350941956043243,0.005489706993103027,-0.029739856719970703
-0.1500685214996338,0.16703052818775177,0.1635950207710266,0.049096740782260895,0.014480829238891602,-0.035693347454071045
-0.10613995045423508,0.14949125051498413,0.15424969792366028,0.0349908173084259,0.01265859603881836,-0.016129255294799805
-0.11245351284742355,0.2211848795413971,0.13467545807361603,0.0366382896900177,0.0005172491073608398,0.008536934852600098
-0.15251021087169647,0.28861039876937866,0.1405065953731537,0.05477939546108246,0.00415724515914917,0.005514085292816162
-0.1653384119272232,0.3004307746887207,0.1731007844209671,0.05993659049272537,0.0064032673835754395,-0.010321259498596191
-0.1379382312297821,0.3024528920650482,0.19506891071796417,0.0419013574719429,0.013252824544906616,-0.013673484325408936
-0.10117582231760025,0.32813209295272827,0.1510821282863617,0.01218339055776596,0.022324055433273315,-0.0033618807792663574
-0.08573181927204132,0.3680349886417389,0.07331681996583939,-0.0020808428525924683,0.018852800130844116,0.01623380184173584
-0.13954584300518036,0.3923526406288147,0.03648684173822403,0.0014103055000305176,0.010773926973342896,0.019335508346557617
-0.18500812351703644,0.34596115350723267,0.028937071561813354,0.009030599147081375,0.003608405590057373,0.0005995631217956543
-0.16697342693805695,0.28282955288887024,0.02748434990644455,0.013926178216934204,-0.0017943382263183594,-0.007658243179321289
-0.1276615858078003,0.2338775396347046,0.02636782079935074,0.010836184024810791,-0.014084726572036743,0.002617359161376953
-0.0885208323597908,0.20243306457996368,0.03499859198927879,0.007768213748931885,-0.02874135971069336,0.01676487922668457
-0.07355996966362,0.14489975571632385,0.039075374603271484,0.0029095709323883057,-0.038246870040893555,0.03100031614303589
-0.09516473859548569,0.11618916690349579,0.04338555410504341,0.003698498010635376,-0.054044097661972046,0.04477590322494507
-0.1563481092453003,0.09338421374559402,0.07073762267827988,0.013448894023895264,-0.06499052047729492,0.04635155200958252
-0.21814702451229095,0.08794088661670685,0.12066366523504257,0.023930296301841736,-0.06358572840690613,0.02383410930633545
-0.2322070300579071,0.07005094736814499,0.1520419716835022,0.022099973633885384,-0.05218172073364258,-0.010411560535430908
-0.1897384077310562,0.05378494784235954,0.13854160904884338,0.010912895202636719,-0.0404200553894043,-0.036242544651031494
-0.09187473356723785,0.006203333381563425,0.10458946228027344,0.01671280711889267,-0.03044608235359192,-0.04518544673919678
-0.004734547808766365,-0.0409252792596817,0.10167725384235382,0.018370777368545532,-0.024433404207229614,-0.017297029495239258
0.017591839656233788,-0.05838418006896973,0.10477987676858902,0.013121157884597778,-0.025426536798477173,0.021005213260650635
0.0013760211877524853,-0.050875794142484665,0.11871502548456192,0.004317529499530792,-0.02718663215637207,0.03710663318634033
-0.012634897604584694,-0.061780184507369995,0.11049997061491013,-0.0002120882272720337,-0.0212438702583313,0.03617018461227417
-0.0029907922726124525,-0.058170270174741745,0.0782373771071434,-0.003917120397090912,-0.01911213994026184,0.032162487506866455
0.014414725825190544,-0.03120243549346924,0.03703097254037857,0.0018323063850402832,-0.020640671253204346,0.023070573806762695
0.03438383340835571,0.005817520432174206,0.030375635251402855,0.010108701884746552,-0.021274924278259277,0.014844357967376709
0.037207089364528656,0.030553413555026054,0.03741149231791496,0.010498248040676117,-0.014182835817337036,0.0003886222839355469
0.048909202218055725,-0.0010409016394987702,0.029083432629704475,0.012593023478984833,-0.006188154220581055,-0.020520508289337158
0.08716991543769836,-0.08234336972236633,0.017723068594932556,0.007530272006988525,-0.01112455129623413,-0.016173601150512695
0.08905231207609177,-0.10556761175394058,0.012484457343816757,0.006661079823970795,-0.020754843950271606,0.011051297187805176
0.03571372479200363,-0.06736829876899719,0.018924780189990997,0.02115515246987343,-0.024601757526397705,0.029242634773254395
-0.044047288596630096,0.01031312346458435,0.0524279922246933,0.03495192527770996,-0.02031731605529785,0.016586363315582275
-0.08810902386903763,0.05638634413480759,0.08638063073158264,0.03522878140211105,-0.006758898496627808,-0.02121257781982422
-0.08226414024829865,0.03768081218004227,0.08335371315479279,0.03670819103717804,0.020327627658843994,-0.05602008104324341
0.019616926088929176,-0.038200654089450836,0.05244745686650276,0.03656003624200821,0.04160839319229126,-0.0657549500465393
0.17669375240802765,-0.08574121445417404,0.02521703392267227,0.021598689258098602,0.04337003827095032,-0.015974342823028564
0.24015159904956818,-0.05126475915312767,0.013040035963058472,-0.006213553249835968,0.018066436052322388,0.06624341011047363
0.16251204907894135,0.05166427418589592,0.02886544167995453,-0.02487262338399887,0.002853304147720337,0.1123046875
0.04087003692984581,0.1099911704659462,0.04844794422388077,-0.027033686637878418,0.002365320920944214,0.0989256501197815
-0.047035541385412216,0.09895128756761551,0.058362927287817,-0.02947356551885605,0.017722368240356445,0.06368738412857056
-0.09878960251808167,0.09510952234268188,0.018925966694951057,-0.03972238302230835,0.02598366141319275,0.024801194667816162
-0.09394168853759766,0.13715621829032898,-0.04592161253094673,-0.03319762647151947,0.02511739730834961,-0.006171464920043945
-0.13471414148807526,0.2522439956665039,-0.05625433102250099,-0.010599739849567413,0.024803459644317627,-0.03196454048156738
-0.20275938510894775,0.29563742876052856,-0.013298487290740013,0.009664924815297127,0.030127674341201782,-0.08459490537643433
-0.17459478974342346,0.16162022948265076,0.06061972677707672,-0.002575986087322235,0.04196500778198242,-0.13574814796447754
-0.03906269371509552,-0.01768067479133606,0.08298239856958389,-0.04436447471380234,0.05255255103111267,-0.12874847650527954
0.10903823375701904,-0.10860887169837952,0.02189122885465622,-0.0805700346827507,0.0576803982257843,-0.061670005321502686
0.15944001078605652,-0.07226620614528656,-0.04764511063694954,-0.08216000348329544,0.051807701587677,0.013252437114715576
0.10590322315692902,-0.026852810755372047,-0.04599854350090027,-0.06308285892009735,0.03558671474456787,0.05135458707809448
0.005215308628976345,-0.0350024439394474,0.020750742405653,-0.04562365263700485,0.027780205011367798,0.05500471591949463
-0.0857289731502533,-0.10028717666864395,0.08593826740980148,-0.03220650926232338,0.038254499435424805,0.035455167293548584
-0.1185375452041626,-0.17547057569026947,0.09956297278404236,-0.029202021658420563,0.055381596088409424,0.015344321727752686
-0.10988369584083557,-0.18204152584075928,0.0475958026945591,-0.02966412901878357,0.05638939142227173,0.005793273448944092
-0.08950179815292358,-0.14141845703125,-0.05519586801528931,-0.020615942776203156,0.04835274815559387,0.005873203277587891
-0.07122080773115158,-0.08156472444534302,-0.13810409605503082,0.006461493670940399,0.033803462982177734,0.006802082061767578
-0.07809420675039291,-0.04193703085184097,-0.16759198904037476,0.03118973970413208,0.010925501585006714,0.0072209835052490234
-0.0927857756614685,-0.005503161810338497,-0.1677893102169037,0.046765029430389404,-0.0031578540802001953,-0.0019126534461975098
-0.08306530117988586,0.02630169503390789,-0.14826679229736328,0.048502013087272644,-0.01348954439163208,-0.01058197021484375
-0.0552084743976593,0.06291646510362625,-0.13705125451087952,0.03610335290431976,-0.023816823959350586,-0.014072537422180176
-0.03048655390739441,0.10128334164619446,-0.11944931745529175,0.019157931208610535,-0.02843332290649414,-0.012740075588226318
-0.0257098488509655,0.10912250727415085,-0.11558925360441208,0.01203405112028122,-0.03434336185455322,-0.018199920654296875
-0.028897080570459366,0.08331587165594101,-0.07746127247810364,0.014734022319316864,-0.037518054246902466,-0.028542280197143555
-0.026203498244285583,0.0284243356436491,-0.032572828233242035,0.015501715242862701,-0.03569522500038147,-0.0418131947517395
0.02088397741317749,-0.015499774366617203,0.010690337046980858,0.01881111040711403,-0.023748189210891724,-0.0443379282951355
0.07946319878101349,-0.01694140024483204,0.031823910772800446,0.013547554612159729,-0.015724658966064453,-0.03288769721984863
0.1329387128353119,-0.017400071024894714,0.03606051579117775,0.011516548693180084,-0.013790637254714966,-0.009468376636505127
0.12618188560009003,-0.016451073810458183,0.06654959917068481,0.019061841070652008,-0.0036089718341827393,0.017734825611114502
0.09282293915748596,-0.03430579602718353,0.10347627103328705,0.018211014568805695,0.004478096961975098,0.02786099910736084
0.07731565088033676,-0.039737507700920105,0.1365809589624405,0.012726560235023499,0.017110168933868408,0.03324151039123535
0.05873151123523712,-0.018257299438118935,0.14184387028217316,-0.0009161606431007385,0.02133917808532715,0.042147934436798096
0.04222581535577774,0.033393677324056625,0.10745209455490112,-0.011760890483856201,0.02943071722984314,0.03963655233383179
0.019468314945697784,0.07572414726018906,0.06301510334014893,-0.008563317358493805,0.03479000926017761,0.024433553218841553
0.0032348008826375008,0.04826843738555908,0.02214551344513893,-0.002481691539287567,0.032728374004364014,0.011414527893066406
-0.009871233254671097,0.0168911125510931,0.010751371271908283,0.006787307560443878,0.030940502882003784,0.012397050857543945
-0.02591908909380436,0.017043672502040863,0.016341153532266617,0.0014228969812393188,0.021787405014038086,0.019111275672912598
-0.046446800231933594,0.030801033601164818,0.01201905868947506,-0.003693312406539917,0.015304237604141235,0.022047698497772217
-0.06538135558366776,0.04032405465841293,0.0003897985443472862,-0.013407610356807709,0.00691676139831543,0.01736152172088623
-0.0727088451385498,0.025741074234247208,-0.017105350270867348,-0.01699482649564743,0.0028701722621917725,0.008220672607421875
-0.06271719932556152,0.023810861632227898,-0.046218764036893845,-0.017858698964118958,-0.002664238214492798,-0.0007186532020568848
-0.04700339585542679,0.03015740215778351,-0.06472127139568329,-0.013404805213212967,-0.013204455375671387,-0.009972989559173584
-0.03843805938959122,0.022262632846832275,-0.057987380772829056,-0.007926836609840393,-0.021791815757751465,-0.013896822929382324
-0.030590912327170372,0.014013820327818394,-0.034790828824043274,-0.006041999906301498,-0.025598198175430298,-0.015613436698913574
-0.025003619492053986,0.014438683167099953,-0.01812053844332695,-0.006272085011005402,-0.02206757664680481,-0.018271267414093018
-0.00026514986529946327,0.009426482021808624,-0.010001517832279205,-0.005546588450670242,-0.0143108069896698,-0.029403269290924072
0.03892982006072998,-0.021763315424323082,-0.004709648434072733,-0.006001070141792297,-0.010581880807876587,-0.030731618404388428
0.07153858989477158,-0.05581739917397499,0.002520528621971607,-0.011065103113651276,-0.007553309202194214,-0.015797972679138184
0.0944896712899208,-0.08272004872560501,-0.003433012869209051,-0.015698552131652832,-0.004321485757827759,-0.0013464093208312988
0.09068748354911804,-0.0821508839726448,-0.0071904780343174934,-0.012074664235115051,0.0025216639041900635,0.00803685188293457
0.06362549960613251,-0.072408027946949,-0.00410120002925396,-0.007003426551818848,0.007896333932876587,0.021399259567260742
0.045110199600458145,-0.04903777688741684,-0.0005836356431245804,-0.00553460419178009,0.007985472679138184,0.020660400390625
0.0540277324616909,-0.057228270918130875,-0.008229099214076996,-0.004675097763538361,0.01668575406074524,0.012389719486236572
0.07330264896154404,-0.09371387958526611,-0.021771516650915146,-0.0054485984146595,0.02552613615989685,0.011198341846466064
0.05073321610689163,-0.0772329717874527,-0.050255026668310165,-0.01411421224474907,0.022856175899505615,0.028028547763824463
0.01743696630001068,-0.04281209409236908,-0.09198497980833054,-0.011082068085670471,0.022698819637298584,0.03608238697052002
0.0018229736015200615,-0.024667516350746155,-0.08240467309951782,-0.000850975513458252,0.014132976531982422,0.029119133949279785
-0.028485581278800964,-0.009649776853621006,-0.052905820310115814,-0.003725215792655945,0.00019216537475585938,0.024006783962249756
-0.03981964662671089,-0.017850276082754135,-0.054969415068626404,-0.005041319876909256,0.008015275001525879,0.009020507335662842
-0.0219836737960577,-0.03724918141961098,-0.08237018436193466,-0.005387142300605774,0.012976884841918945,-0.011087119579315186
-0.0007392733823508024,-0.0329030379652977,-0.10996975004673004,-0.006193302571773529,0.006569385528564453,-0.022667646408081055
0.033976826816797256,-0.03028232976794243,-0.13189831376075745,-0.006026774644851685,-0.004208505153656006,-0.032700419425964355
0.057052962481975555,-0.04125073179602623,-0.12914739549160004,0.005564697086811066,-0.007275581359863281,-0.03556269407272339
0.07813025265932083,-0.037489473819732666,-0.11796882748603821,0.01066150888800621,-0.009910613298416138,-0.024583876132965088
0.08383481949567795,-0.031995467841625214,-0.09239307045936584,0.015210285782814026,-0.011830240488052368,-0.01271367073059082
0.08395049721002579,-0.025327367708086967,-0.07894265651702881,0.010684475302696228,-0.010524213314056396,-0.0011668801307678223
0.08597610145807266,-0.03424996882677078,-0.07803959399461746,0.006635844707489014,-0.0066009461879730225,-0.0011723041534423828
0.09118524193763733,-0.046318668872117996,-0.07110684365034103,0.004235580563545227,-0.005057990550994873,0.0035605430603027344
0.0863308385014534,-0.04201355576515198,-0.05808853730559349,0.005288407206535339,-0.0005997419357299805,0.011035799980163574
0.07085942476987839,-0.020663566887378693,-0.06262471526861191,0.0013784617185592651,0.005213141441345215,0.017284750938415527
0.05881902948021889,-0.013988867402076721,-0.07499589025974274,0.001391083002090454,0.0071222782135009766,0.014101982116699219
0.055739883333444595,-0.03625369444489479,-0.07599644362926483,0.010491013526916504,0.006801187992095947,0.006667792797088623
0.050491154193878174,-0.050202932208776474,-0.06119288131594658,0.020159900188446045,0.010609328746795654,0.007012128829956055
0.05273163318634033,-0.041076257824897766,-0.04446747153997421,0.020424697548151016,0.008935779333114624,0.012919723987579346
0.0515906997025013,-0.011542889289557934,-0.030156210064888,0.020365864038467407,0.011655032634735107,0.014763474464416504
0.0445166677236557,0.0018360154936090112,-0.023781025782227516,0.013378039002418518,0.013265937566757202,0.01943129301071167
0.039162397384643555,-0.0011731794802471995,-0.029492942616343498,0.0062582828104496,0.012036234140396118,0.023027420043945312
0.0272651556879282,-0.0048372941091656685,-0.03488461673259735,0.0021833032369613647,0.013308137655258179,0.028511643409729004
-0.0006964951753616333,0.021599220111966133,-0.0369369238615036,0.0004985034465789795,0.012260586023330688,0.030365705490112305
-0.02482733689248562,0.052518196403980255,-0.028332721441984177,0.005153823643922806,0.008506029844284058,0.022697746753692627
-0.031950272619724274,0.04793166369199753,-0.014161268249154091,0.008499681949615479,0.007237166166305542,0.002915322780609131
0.00044382503256201744,0.011734305880963802,-0.023893052712082863,0.0061468929052352905,0.009241640567779541,-0.017643451690673828
0.03765898942947388,-0.0031868936493992805,-0.047491468489170074,0.00538596510887146,0.011557906866073608,-0.014746546745300293
0.04863825440406799,-0.0045277029275894165,-0.05703956261277199,0.014449089765548706,0.00985705852508545,0.003531217575073242
0.015295928344130516,0.00013958197087049484,-0.01970639079809189,0.024642527103424072,-0.004752129316329956,0.02105659246444702
-0.019664229825139046,-0.011170095764100552,0.04477030783891678,0.03766487538814545,-0.004615157842636108,0.02439713478088379
-0.019336165860295296,-0.041898421943187714,0.08886502683162689,0.03607870638370514,0.003182023763656616,0.016366004943847656
-0.01523393765091896,-0.03489311784505844,0.09946030378341675,0.026133302599191666,0.005255937576293945,0.018420875072479248
-0.007653488777577877,-0.019236477091908455,0.08029056340456009,0.014883100986480713,-0.00013017654418945312,0.020195960998535156
-0.007313513197004795,-0.006613449659198523,0.08709090203046799,0.018273144960403442,-0.0023962557315826416,0.020281195640563965
-0.025059835985302925,-0.020689228549599648,0.1072392389178276,0.0203951895236969,-0.00700339674949646,0.02421891689300537
-0.05221053585410118,-0.022661276161670685,0.132242813706398,0.019215509295463562,-0.007264137268066406,0.02535426616668701
-0.07329931110143661,0.00874351803213358,0.13106277585029602,0.008463650941848755,-0.005118906497955322,0.021654367446899414
-0.057466018944978714,0.042452532798051834,0.11278495192527771,-0.0035889409482479095,-0.0005531907081604004,0.001056671142578125
-0.023342730477452278,0.0233632642775774,0.09215286374092102,-0.008381038904190063,0.003489077091217041,-0.016872167587280273
-0.02150154300034046,0.01131928525865078,0.07429569959640503,-0.017060916870832443,0.0022615790367126465,-0.017330408096313477
-0.027619972825050354,0.0036648698151111603,0.05310831964015961,-0.022181347012519836,0.007049202919006348,-0.017009377479553223
0.006215695291757584,-0.011463372968137264,0.03543177992105484,-0.021477937698364258,0.010882914066314697,-0.02523714303970337
0.04331712797284126,-0.02651561237871647,0.018933603540062904,-0.02642962336540222,0.007018178701400757,-0.017585933208465576
0.0216745026409626,-0.016070088371634483,0.0045310864225029945,-0.032413821667432785,0.004764169454574585,0.007954895496368408
-0.010589729063212872,-0.019575631245970726,-0.007861169055104256,-0.033484429121017456,0.001870661973953247,0.018984973430633545
-0.020412052050232887,-0.02170487679541111,-0.022837013006210327,-0.03078494966030121,0.007674276828765869,0.012724459171295166
-0.009593317285180092,-0.038926973938941956,-0.04864204674959183,-0.0274198055267334,0.009503841400146484,0.0010443925857543945
0.0072680748999118805,-0.058972008526325226,-0.0660049170255661,-0.02304978296160698,0.010419130325317383,-0.003192901611328125
0.01689857617020607,-0.07621295750141144,-0.09036621451377869,-0.0182950459420681,0.009310811758041382,0.0057915449142456055
0.005501045845448971,-0.07196122407913208,-0.11096230894327164,-0.015729349106550217,0.0011143684387207031,0.02233147621154785
-0.02296726033091545,-0.0422116219997406,-0.1004645824432373,-0.009174466133117676,-0.006852328777313232,0.03203439712524414
-0.05622740089893341,-0.01868279092013836,-0.08305726200342178,-0.004349302500486374,-0.009639173746109009,0.028760015964508057
-0.06777263432741165,-0.02394261583685875,-0.07462693005800247,0.004451945424079895,0.0011480152606964111,0.008649826049804688
-0.03116353042423725,-0.03945886343717575,-0.0665900930762291,0.0024474412202835083,0.006033718585968018,-0.01212918758392334
0.012217991054058075,-0.04465387389063835,-0.09512589871883392,-0.011378690600395203,0.01014852523803711,-0.016245603561401367
0.007613669615238905,-0.04834052547812462,-0.11957316845655441,-0.011521324515342712,0.012846976518630981,-0.0027087926864624023
-0.04361044988036156,-0.05166038125753403,-0.12677602469921112,-0.009039148688316345,0.0026024281978607178,0.009241461753845215
-0.03678397089242935,-0.08241908997297287,-0.11263969540596008,0.0022213011980056763,0.0041207969188690186,-0.007404208183288574
0.0008636834099888802,-0.08851436525583267,-0.09996744245290756,0.008906945586204529,0.011464715003967285,-0.008710384368896484
0.009718654677271843,-0.04133042320609093,-0.10551223903894424,0.0014552474021911621,0.011360615491867065,0.009604394435882568
0.009038500487804413,-0.017045525833964348,-0.11730436980724335,-0.0028872936964035034,0.0105496346950531,0.017621755599975586
-0.0004097972996532917,-0.033286284655332565,-0.10968581587076187,0.002448171377182007,0.009676754474639893,0.016927361488342285
-0.02944069355726242,-0.03241408243775368,-0.09535378217697144,0.0024324804544448853,0.011343151330947876,0.02105766534805298
-0.059446774423122406,-0.024652069434523582,-0.10550599545240402,-0.0024273842573165894,0.013302445411682129,0.019953489303588867
-0.0537802055478096,-0.03698242828249931,-0.1147264912724495,0.0033725500106811523,0.015893131494522095,0.0028678178787231445
-0.027726273983716965,-0.05060362070798874,-0.11190838366746902,0.012105613946914673,0.015450775623321533,-0.01135718822479248
-0.0037953932769596577,-0.06778523325920105,-0.09379677474498749,0.019478902220726013,0.011874288320541382,-0.012872576713562012
0.0035565481521189213,-0.07087667286396027,-0.08328339457511902,0.01880323886871338,0.004880160093307495,-0.005713105201721191
0.0053623029962182045,-0.055346500128507614,-0.08965889364480972,0.011226654052734375,-0.0021628737449645996,0.006610512733459473
-0.0024421990383416414,-0.03716566041111946,-0.10238275676965714,0.011150896549224854,-0.0014077723026275635,0.019423067569732666
-0.014453078620135784,-0.005165833979845047,-0.10357135534286499,0.013741806149482727,-0.005608797073364258,0.027698159217834473
-0.03678955137729645,0.028793297708034515,-0.0776045024394989,0.01936069130897522,-0.005716890096664429,0.02813243865966797
-0.04838318005204201,0.02764417603611946,-0.0484115369617939,0.018123477697372437,-0.004176467657089233,0.013434767723083496
-0.03334471955895424,0.0014067647280171514,-0.025355882942676544,0.009092047810554504,0.00030753016471862793,-0.005425691604614258
-0.007137384731322527,-0.018223745748400688,-0.01605965383350849,-0.002375572919845581,0.006019860506057739,-0.01481163501739502
0.012380114756524563,-0.030169149860739708,-0.0437043160200119,-0.01935197412967682,0.012346923351287842,-0.006439149379730225
0.004841256886720657,-0.026531841605901718,-0.07961009442806244,-0.026296570897102356,0.014636218547821045,0.011165142059326172
-0.041704222559928894,0.013240698724985123,-0.09897588193416595,-0.016092628240585327,0.014162629842758179,0.02393639087677002
-0.06413111090660095,-0.007679130882024765,-0.08087211847305298,0.0028944462537765503,0.007506579160690308,0.011154651641845703
-0.03981328755617142,-0.05192262679338455,-0.05805101990699768,0.013102322816848755,0.00651174783706665,-0.00806879997253418
-0.009842860512435436,-0.0814334824681282,-0.05024046450853348,0.015373647212982178,0.0073146820068359375,-0.010304570198059082
0.013158082962036133,-0.08275817334651947,-0.05525437742471695,0.014838669449090958,0.0048358142375946045,-7.241964340209961e-05
0.004949319642037153,-0.04648898169398308,-0.058443617075681686,0.011158321052789688,-0.0008660256862640381,0.019060075283050537
-0.045359183102846146,-0.013382579199969769,-0.022392211481928825,0.016118183732032776,-0.010155320167541504,0.030397474765777588
-0.06325216591358185,-0.018840786069631577,0.007974226959049702,0.018352970480918884,-0.012654364109039307,0.011937916278839111
-0.030962875112891197,-0.035511165857315063,0.020511649549007416,0.016001641750335693,-0.0050682127475738525,-0.007891237735748291
0.006134774535894394,-0.021028723567724228,0.023235883563756943,0.010698124766349792,-0.004122883081436157,-0.010349690914154053
0.016915947198867798,0.01011862326413393,0.013057179749011993,-0.006290003657341003,-0.01373240351676941,-0.004112184047698975
0.012091098353266716,0.009310887195169926,0.0036333189345896244,-0.009305864572525024,-0.011646687984466553,-0.0009379386901855469
-0.004843204282224178,0.009944828227162361,-0.0034148050472140312,-0.009195297956466675,-0.005986809730529785,-0.004038333892822266
-0.015704846009612083,0.007206774316728115,0.0024338234215974808,-0.0030422955751419067,-0.007608205080032349,-0.012339174747467041
-0.008846273645758629,-0.006167406681925058,0.029676735401153564,0.004148945212364197,-0.011426925659179688,-0.02277296781539917
0.011370224878191948,-0.009782448410987854,0.0451752133667469,0.009256735444068909,-0.0056029558181762695,-0.025777101516723633
0.020362241193652153,0.009091837331652641,0.040308933705091476,0.007845595479011536,-0.0006422996520996094,-0.01901930570602417
0.013195822015404701,0.03722750395536423,0.029635120183229446,0.011669948697090149,0.0012676119804382324,-0.00854557752609253
0.011126503348350525,0.04378768801689148,0.019778991118073463,0.018515750765800476,0.0036160051822662354,-0.003561675548553467
0.02542259730398655,0.032845597714185715,0.016770128160715103,0.028539031744003296,0.006544768810272217,0.004589736461639404
0.022987261414527893,0.03360448405146599,0.03227277472615242,0.03232526779174805,0.0028235018253326416,0.023587703704833984
-0.004015636630356312,0.05016297101974487,0.061882298439741135,0.029990196228027344,-0.0014297068119049072,0.046926796436309814
-0.0292251817882061,0.10209359973669052,0.07165150344371796,0.020168736577033997,-0.000272601842880249,0.06035339832305908
-0.07293060421943665,0.15654751658439636,0.06652011722326279,0.011518746614456177,0.008177578449249268,0.06459826231002808
-0.1125405952334404,0.17013075947761536,0.04736398905515671,0.004176616668701172,0.0067431628704071045,0.050438761711120605
-0.1312171220779419,0.16582657396793365,0.030045948922634125,-0.0014433525502681732,0.004084646701812744,0.03164815902709961
-0.15197625756263733,0.17869645357131958,0.029455162584781647,-0.0014886986464262009,0.004020988941192627,0.0223238468170166
-0.18251310288906097,0.18355205655097961,0.04242748022079468,-0.002438575029373169,-2.1517276763916016e-05,0.010334253311157227
-0.2007405310869217,0.17252574861049652,0.0903947725892067,-0.0021453648805618286,-0.004592418670654297,-0.011744260787963867
-0.18368682265281677,0.1508394330739975,0.09231028705835342,-0.01874643564224243,0.00032967329025268555,-0.031822025775909424
-0.16666054725646973,0.12320022284984589,0.03384021669626236,-0.0354011207818985,0.015618562698364258,-0.04093819856643677
-0.12271997332572937,0.08193027973175049,-0.06558304280042648,-0.04247292876243591,0.017950475215911865,-0.04598206281661987
-0.06135900691151619,0.041170984506607056,-0.14965303242206573,-0.029193714261054993,0.013838887214660645,-0.035131752490997314
-0.0512348935008049,0.03493484854698181,-0.18547005951404572,-0.005874394439160824,-0.0039498209953308105,0.002187013626098633
-0.09028388559818268,0.07889410853385925,-0.19819022715091705,0.014660432934761047,-0.017926931381225586,0.03674972057342529
-0.10831402242183685,0.07671777158975601,-0.20158521831035614,0.032942995429039,-0.025313377380371094,0.04334193468093872
-0.10274157673120499,0.05298818647861481,-0.17545264959335327,0.03677104413509369,-0.03264451026916504,0.0444798469543457
-0.09211909025907516,0.03913155570626259,-0.17860962450504303,0.012111455202102661,-0.043570876121520996,0.05008280277252197
-0.08929581195116043,0.0430908165872097,-0.22101162374019623,-0.008223071694374084,-0.033742934465408325,0.04561048746109009
-0.06556997448205948,0.01756468415260315,-0.2622293531894684,-0.013505086302757263,-0.022862166166305542,0.031654953956604004
-0.04919251799583435,-0.0005891128676012158,-0.2867090404033661,-0.020977497100830078,-0.020589500665664673,0.021527111530303955
-0.045657604932785034,-0.02583223022520542,-0.31357839703559875,-0.029436767101287842,-0.02371618151664734,0.012455642223358154
-0.036946412175893784,-0.06481734663248062,-0.3513188660144806,-0.030623316764831543,-0.021397829055786133,-0.005016684532165527
-0.012874944135546684,-0.14892767369747162,-0.3737451136112213,-0.0177154541015625,-0.02238050103187561,-0.025220632553100586
0.004111059475690126,-0.20206192135810852,-0.36739230155944824,0.002312079071998596,-0.027341127395629883,-0.031446874141693115
0.012296942993998528,-0.2479647696018219,-0.36420756578445435,0.013992995023727417,-0.030338048934936523,-0.03253453969955444
0.04374846816062927,-0.27259644865989685,-0.38356462121009827,0.0226438045501709,-0.027460485696792603,-0.034940361976623535
0.09021531790494919,-0.2587302625179291,-0.3942238986492157,0.027639299631118774,-0.03242611885070801,-0.02838820219039917
0.11946965008974075,-0.22269558906555176,-0.38208040595054626,0.037763625383377075,-0.030470073223114014,-0.006624579429626465
0.0866372212767601,-0.1911282241344452,-0.3226628005504608,0.059628620743751526,-0.009719222784042358,0.020359694957733154
0.03173332288861275,-0.1602632701396942,-0.24258196353912354,0.07076579332351685,0.013942092657089233,0.031213819980621338
-0.016232069581747055,-0.1738872528076172,-0.1572399139404297,0.07252947986125946,0.024932861328125,0.02339482307434082
-0.0376109853386879,-0.1989663541316986,-0.08000276237726212,0.06080375611782074,0.030439108610153198,0.01347428560256958
-0.02107037790119648,-0.22897379100322723,-0.009562438353896141,0.046694010496139526,0.030257046222686768,0.0037620067596435547
0.005949051585048437,-0.24457886815071106,0.007569197565317154,0.0291108638048172,0.03023788332939148,-0.0014641880989074707
0.008752457797527313,-0.2312890738248825,-0.02170649915933609,0.01062037143856287,0.022416293621063232,0.004982292652130127
0.002309389878064394,-0.19668813049793243,-0.06272432208061218,0.010833770036697388,0.017026305198669434,0.0016241669654846191
0.026669180020689964,-0.16486644744873047,-0.08077137172222137,0.023310795426368713,0.012633293867111206,-0.016505002975463867
0.05889986455440521,-0.11967933177947998,-0.08859516680240631,0.031444698572158813,0.020153075456619263,-0.03216874599456787
0.13506846129894257,-0.09465494751930237,-0.11046711355447769,0.02880643494427204,0.028686225414276123,-0.05474203824996948
0.2229187935590744,-0.10219981521368027,-0.14343561232089996,0.01490965485572815,0.039352864027023315,-0.05599755048751831
0.23616021871566772,-0.0778525173664093,-0.1870337724685669,-0.0020316243171691895,0.04938635230064392,-0.024237632751464844
0.21909087896347046,-0.07132430374622345,-0.23389481008052826,-0.026976779103279114,0.053373098373413086,0.003651261329650879
0.18798710405826569,-0.059921275824308395,-0.27287063002586365,-0.04347047209739685,0.04872322082519531,0.027100443840026855
0.1164083480834961,-0.03487908095121384,-0.3061041533946991,-0.051030129194259644,0.04228821396827698,0.045463621616363525
0.044070664793252945,-0.02989276684820652,-0.30857670307159424,-0.05198553204536438,0.040630608797073364,0.04688620567321777
-0.026583034545183182,-0.03642750158905983,-0.28986725211143494,-0.05718187987804413,0.044595539569854736,0.04057276248931885
-0.0847119390964508,-0.060618821531534195,-0.2795279026031494,-0.06682121753692627,0.05152761936187744,0.028794407844543457
-0.13150480389595032,-0.10328851640224457,-0.2821820378303528,-0.07245011627674103,0.07078748941421509,0.016453921794891357
-0.14417290687561035,-0.16371217370033264,-0.32922276854515076,-0.07613909244537354,0.08796975016593933,-0.0001575946807861328
-0.11174390465021133,-0.2521442174911499,-0.4202507436275482,-0.07583335041999817,0.08817851543426514,-0.02242642641067505
-0.049478624016046524,-0.33294379711151123,-0.4843843877315521,-0.0498756468296051,0.07767841219902039,-0.030577778816223145
0.005957961548119783,-0.35772955417633057,-0.4732484221458435,-0.011764243245124817,0.05840352177619934,-0.011850476264953613
0.019573330879211426,-0.3237212002277374,-0.419209748506546,0.008616626262664795,0.03287377953529358,0.018646717071533203
-0.015989720821380615,-0.28058093786239624,-0.3560275435447693,0.018042489886283875,0.010844528675079346,0.04309755563735962
-0.08592646569013596,-0.2612306475639343,-0.28974416851997375,0.02981126308441162,-0.0005383193492889404,0.04712575674057007
-0.12288019061088562,-0.28600797057151794,-0.2586940824985504,0.029082493856549263,-0.008058905601501465,0.02956259250640869
-0.12254103273153305,-0.29383009672164917,-0.22990994155406952,0.03127045929431915,-0.002585858106613159,0.012867867946624756
-0.07413441687822342,-0.2734575867652893,-0.20130419731140137,0.03125479817390442,0.0010854899883270264,0.008689582347869873
-0.022182965651154518,-0.23608367145061493,-0.19739192724227905,0.02036537230014801,0.0029602348804473877,0.02372288703918457
-0.0162523090839386,-0.22388623654842377,-0.24854451417922974,0.011584743857383728,0.0010318756103515625,0.048703789710998535
-0.0522003136575222,-0.2085297703742981,-0.2405831217765808,0.020587995648384094,-0.017594218254089355,0.0656057596206665
-0.11322946101427078,-0.14958618581295013,-0.12042489647865295,0.03952741622924805,-0.04806658625602722,0.062744140625
-0.1622496098279953,-0.1083887368440628,0.03434082865715027,0.04166567698121071,-0.055773258209228516,0.03469973802566528
-0.17509424686431885,-0.11823637038469315,0.11196351051330566,0.010797757655382156,-0.04033738374710083,-0.0039030909538269043
-0.15361124277114868,-0.18605764210224152,0.10398315638303757,-0.02849395200610161,-0.026653409004211426,-0.030572891235351562
-0.13889317214488983,-0.22609008848667145,0.055398162454366684,-0.05084076523780823,-0.022949010133743286,-0.03361636400222778
-0.13700653612613678,-0.2122742384672165,0.018998095765709877,-0.052000369876623154,-0.026071101427078247,-0.02384740114212036
-0.13907299935817719,-0.17332161962985992,0.02117009088397026,-0.04757457971572876,-0.030276209115982056,-0.019049763679504395
-0.12453250586986542,-0.13508787751197815,0.039299458265304565,-0.04055209085345268,-0.0232393741607666,-0.027036726474761963
-0.09735266864299774,-0.11649937182664871,0.009107074700295925,-0.049329787492752075,-0.009548604488372803,-0.0372273325920105
-0.03928830102086067,-0.11468474566936493,-0.07632952183485031,-0.06572641432285309,0.00023192167282104492,-0.0444905161857605
0.024229587987065315,-0.09267177432775497,-0.18735362589359283,-0.067454032599926,0.019190192222595215,-0.03987377882003784
0.05274335294961929,-0.06545962393283844,-0.2642786502838135,-0.04960621893405914,0.02793288230895996,-0.026804685592651367
0.03788098692893982,-0.06067950651049614,-0.266086220741272,-0.016690194606781006,0.028791099786758423,-0.02015453577041626
0.04004068672657013,-0.062311068177223206,-0.2281445413827896,0.009440034627914429,0.019876480102539062,-0.029188990592956543
0.1469591110944748,0.007828147150576115,-0.21149715781211853,0.007531516253948212,0.01483038067817688,-0.040534019470214844
0.3140435516834259,0.16636355221271515,-0.2335168719291687,-0.009538650512695312,0.016791045665740967,-0.03154939413070679
0.4277685880661011,0.3395014703273773,-0.2805093228816986,-0.02767699956893921,0.017040789127349854,0.0023915767669677734
0.4262380301952362,0.38006091117858887,-0.30957695841789246,-0.029371261596679688,0.016814202070236206,0.03636801242828369
0.33595719933509827,0.2670762836933136,-0.2780081033706665,-0.01825757324695587,0.012520253658294678,0.055647850036621094
0.19508545100688934,0.08283323794603348,-0.20877370238304138,-0.0025576353073120117,0.009242475032806396,0.07075482606887817
0.040168747305870056,-0.08261284977197647,-0.11745774745941162,0.005675990134477615,0.0011799037456512451,0.08273869752883911
-0.09962868690490723,-0.13330429792404175,-0.020401112735271454,0.009721025824546814,-0.012195587158203125,0.08716589212417603
-0.1454038769006729,-0.07510558515787125,0.0660986676812172,0.013976503163576126,-0.017077535390853882,0.06040596961975098
-0.09230473637580872,-0.014284013770520687,0.13030239939689636,0.012718603014945984,-0.015697360038757324,0.02374720573425293
-0.016934305429458618,0.00024830037727952003,0.16852626204490662,-0.0006296634674072266,-0.01909118890762329,-0.0024299025535583496
-0.03459431231021881,0.016618233174085617,0.18354082107543945,-0.01717066764831543,-0.021796435117721558,0.0016446709632873535
-0.09601809829473495,-0.02150026522576809,0.16558383405208588,-0.015266314148902893,-0.00997266173362732,-0.003222227096557617
-0.11004428565502167,-0.098500557243824,0.14396308362483978,-0.007133692502975464,-0.0009892582893371582,-0.029672563076019287
-0.0604429766535759,-0.1425681859254837,0.09739208221435547,-0.00566483661532402,-0.0002792775630950928,-0.04464966058731079
0.03884945437312126,-0.13900130987167358,0.06590918451547623,0.0027709640562534332,0.004218250513076782,-0.038841068744659424
0.09611088037490845,-0.12227559834718704,0.04585824906826019,0.00707346573472023,0.0031534433364868164,-0.0063536763191223145
0.07912524044513702,-0.07620339095592499,0.04684680327773094,0.0023433715105056763,0.0015894770622253418,0.04083186388015747
0.003136059734970331,-0.018100522458553314,0.028647681698203087,-0.009784936904907227,0.0005216002464294434,0.0705687403678894
-0.07551853358745575,0.049644868820905685,0.006479278206825256,-0.019556164741516113,-0.0011398792266845703,0.06421977281570435
-0.10540264844894409,0.0950499102473259,-0.013212650083005428,-0.01662014052271843,0.007786601781845093,0.023643076419830322
-0.08177941292524338,0.09284380823373795,-0.04891930893063545,-0.01294216513633728,0.01698392629623413,-0.03127431869506836
-0.04918532818555832,0.0667715072631836,-0.08961382508277893,-0.0089605413377285,0.02397260069847107,-0.061881303787231445
-0.029753737151622772,0.03836965933442116,-0.115908183157444,-0.003906667232513428,0.02438873052597046,-0.07884466648101807
0.028449730947613716,-0.020010966807603836,-0.13678434491157532,-0.005632549524307251,0.011127352714538574,-0.09087854623794556
0.12647181749343872,-0.05574783310294151,-0.1368001401424408,-0.004237145185470581,0.0016478300094604492,-0.08775532245635986
0.19222091138362885,-0.055908240377902985,-0.12453719973564148,0.00534212589263916,0.0021120309829711914,-0.053229689598083496
0.20810838043689728,-0.022323332726955414,-0.1011744812130928,0.008495509624481201,-0.0005897879600524902,-0.006491422653198242
0.18744750320911407,0.005006397143006325,-0.0754084661602974,0.012681499123573303,-0.00044676661491394043,0.025677382946014404
0.13957169651985168,0.006219122558832169,-0.03584737330675125,0.01440882682800293,-0.00540730357170105,0.04260385036468506
0.07377903163433075,0.011508582159876823,-0.003059432841837406,0.012037653475999832,-0.007474988698959351,0.05124622583389282
0.026051266118884087,0.031217632815241814,0.021625513210892677,0.018227342516183853,-0.0010187029838562012,0.041859209537506104
0.026107974350452423,0.05029997229576111,0.03359134495258331,0.027307167649269104,0.0075251758098602295,0.018239140510559082
0.059292085468769073,0.023238779976963997,0.04340727999806404,0.026387304067611694,0.005814343690872192,0.006004989147186279
0.06853044778108597,-0.012588354758918285,0.05912484601140022,0.021044880151748657,0.001669079065322876,0.0200345516204834
0.04478273168206215,-0.001001671887934208,0.05129671469330788,0.011278912425041199,0.0049735307693481445,0.052696824073791504
-0.014750881120562553,0.039638977497816086,0.046754442155361176,0.014921590685844421,0.009688645601272583,0.07079887390136719
-0.052604418247938156,0.06264429539442062,0.06363899260759354,0.021573305130004883,0.002134859561920166,0.058646559715270996
-0.04500225558876991,0.04083213210105896,0.08588825166225433,0.021027952432632446,-0.0058862268924713135,0.033583760261535645
-0.029899802058935165,0.008232378400862217,0.08876974135637283,0.01603636145591736,-0.0031716525554656982,0.026390552520751953
-0.05675120651721954,0.014231458306312561,0.08528544753789902,0.008152440190315247,-0.0030437707901000977,0.038897037506103516
-0.10202807188034058,0.04392250254750252,0.08219090849161148,0.0032219141721725464,-0.006372392177581787,0.04162943363189697
-0.11354516446590424,0.04352698475122452,0.09784765541553497,0.007283482700586319,-0.00692024827003479,0.019738852977752686
-0.08843110501766205,0.014201099053025246,0.11369045823812485,0.0003935396671295166,-0.00870630145072937,-0.006087064743041992
-0.07677405327558517,0.015104644931852818,0.10312049090862274,-0.0137854665517807,-0.00517117977142334,-0.01624739170074463
-0.046402592211961746,0.011202299036085606,0.06094852089881897,-0.021630272269248962,0.0013219714164733887,-0.02844160795211792
-0.021838124841451645,-0.0005927872844040394,0.04063285142183304,-0.018271595239639282,0.0017474591732025146,-0.03563410043716431
-0.00012199184857308865,-0.03639606758952141,0.03726121783256531,-0.010098591446876526,0.0007801055908203125,-0.03761625289916992
0.014442505314946175,-0.0713595375418663,0.03833893686532974,-0.00039649009704589844,0.011030614376068115,-0.02913147211074829
0.02411217987537384,-0.06435094773769379,0.03675222769379616,-0.0009440779685974121,0.009782969951629639,-0.013354361057281494
0.030809782445430756,-0.0455641970038414,0.03155694901943207,-0.007899880409240723,0.003482043743133545,0.0005831122398376465
0.04444805532693863,-0.03173091262578964,0.017376111820340157,-0.017152439802885056,0.0011747777462005615,0.0049326419830322266
0.0417962409555912,-0.033791542053222656,-0.0002669026143848896,-0.018591534346342087,0.005175948143005371,0.013986647129058838
0.030710650607943535,-0.03265073522925377,-0.019161414355039597,-0.019931793212890625,0.005801528692245483,0.018466472625732422
0.01128055527806282,-0.02123834937810898,-0.030191367492079735,-0.013811752200126648,0.008904486894607544,0.023741602897644043
-0.01665927842259407,-0.010770481079816818,-0.03354383260011673,-0.006506636738777161,0.010460585355758667,0.023773789405822754
-0.032806333154439926,-0.01280373614281416,-0.02715921401977539,-0.004258468747138977,0.00814923644065857,0.013843297958374023
-0.045867953449487686,-0.02641580067574978,-0.026454152539372444,-0.00936076045036316,0.0036854445934295654,0.005086541175842285
-0.058998458087444305,-0.05117253214120865,-0.03722377121448517,-0.003913328051567078,0.006000131368637085,-0.0018641948699951172
-0.03398888185620308,-0.06533951312303543,-0.05444340780377388,0.0005355477333068848,0.008618474006652832,-0.013173997402191162
0.007703585084527731,-0.05788073688745499,-0.06503304839134216,0.005862772464752197,0.0064147114753723145,-0.011357426643371582
0.02133176475763321,-0.026220817118883133,-0.05007089674472809,0.020917434245347977,0.004878640174865723,0.0026372671127319336
0.014893420040607452,0.002396104857325554,-0.0272727869451046,0.023192916065454483,0.0004980862140655518,0.014229178428649902
0.0009584301151335239,0.007934946566820145,-0.015037160366773605,0.014351561665534973,-0.002231299877166748,0.018017828464508057
-0.0009035475086420774,0.008171675726771355,-0.026968564838171005,0.00725497305393219,0.0012189149856567383,0.0183565616607666
-0.0032016937620937824,0.015231475234031677,-0.030325034633278847,0.008402485400438309,0.0039719343185424805,0.017889022827148438
-0.0010476673487573862,0.03082108125090599,-0.019227590411901474,0.013375446200370789,-5.9485435485839844e-05,0.013883829116821289
-0.008264157921075821,0.03405448794364929,0.014480456709861755,0.015080884099006653,-0.005267292261123657,0.009960651397705078
-0.02644452080130577,0.03118358924984932,0.03690636157989502,0.007291525602340698,-0.007235109806060791,0.011252403259277344
-0.03820902109146118,0.02145479992032051,0.03203173354268074,0.0001522935926914215,-0.0018391907215118408,0.0037683844566345215
-0.018837230280041695,-0.016291607171297073,0.011765018105506897,-0.005509629845619202,0.0033934712409973145,-0.0068264007568359375
0.024780547246336937,-0.044670578092336655,0.004539075307548046,-0.006181195378303528,0.002065807580947876,-0.007405400276184082
0.017180360853672028,-0.014137690886855125,0.0010638618841767311,-0.00900411605834961,0.0031343698501586914,0.02174001932144165
-0.03409503772854805,0.028658751398324966,-0.004301036708056927,-0.013613101094961166,0.0010156035423278809,0.04308241605758667
-0.10265263170003891,0.0465790256857872,-0.0007535452023148537,-0.011022180318832397,-0.0012436509132385254,0.039738476276397705
-0.10632898658514023,0.033838845789432526,-0.001164060551673174,-0.004258736968040466,0.003091275691986084,0.0032733678817749023
-0.044039998203516006,-0.005642056465148926,-0.017219681292772293,0.003036677837371826,0.013046473264694214,-0.0312725305557251
0.018393918871879578,0.0029372363351285458,-0.044244538992643356,0.0009889602661132812,0.011742621660232544,-0.032070279121398926
0.05501081049442291,0.0019015484722331166,-0.05929351598024368,0.006340235471725464,0.00651240348815918,-0.014753162860870361
0.04065513610839844,0.0034796069376170635,-0.04439116269350052,0.011492326855659485,0.0049717724323272705,0.012008607387542725
-0.01219293475151062,0.011094671674072742,-0.01903683878481388,0.012717857956886292,-0.0020523667335510254,0.03149998188018799
-0.045107536017894745,0.027217507362365723,0.0108741270378232,0.008764609694480896,-0.006914079189300537,0.029335975646972656
-0.041675277054309845,0.029731832444667816,0.02896362543106079,0.00566631555557251,-0.003932088613510132,0.011117041110992432
-0.020038768649101257,0.02662939950823784,0.03709762170910835,0.002959638833999634,0.0019049644470214844,-0.003848850727081299
-0.007657716050744057,0.005703253205865622,0.03818902373313904,-0.0032741129398345947,-0.0003447532653808594,-0.011580824851989746
-0.010689519345760345,-0.019823620095849037,0.03907898813486099,-0.006452426314353943,0.003099799156188965,-0.004967749118804932
-0.017066191881895065,-0.02548731304705143,0.02731446549296379,-0.012917041778564453,0.005886554718017578,0.0004343986511230469
-0.018522920086979866,-0.01198357529938221,0.009847888723015785,-0.013753533363342285,0.00980234146118164,0.0042005181312561035
-0.0049664657562971115,0.005812381394207478,-0.004460325464606285,-0.009924780577421188,0.010613113641738892,0.0006112456321716309
0.008504188619554043,0.007146988529711962,-0.009355350397527218,-0.0081736259162426,0.013593137264251709,0.0017138123512268066
-7.149670273065567e-05,0.006120361853390932,-0.020830949768424034,-0.00858396291732788,0.015807807445526123,0.0071471333503723145
-0.01879829168319702,0.007018345408141613,-0.042873114347457886,-0.00986805185675621,0.015731871128082275,0.013152003288269043
-0.031745292246341705,0.00021164200734347105,-0.05763186514377594,-0.006916895508766174,0.012616157531738281,0.011401772499084473
-0.028062012046575546,-0.016815338283777237,-0.038186147809028625,0.009414687752723694,0.009427398443222046,0.005153298377990723
-0.016822675243020058,-0.01575923152267933,-0.009264204651117325,0.01761452853679657,0.005702793598175049,0.003252387046813965
-0.023446427658200264,0.01327609084546566,0.002949379850178957,0.01028577983379364,0.0058186352252960205,0.01647716760635376
-0.0391598604619503,0.03187774866819382,-0.0081983283162117,0.001436486840248108,0.005635321140289307,0.019794046878814697
-0.048344116657972336,0.023960797116160393,-0.010404308326542377,0.0023068375885486603,0.0019000470638275146,0.01036149263381958
-0.037313878536224365,0.020300038158893585,0.004123463295400143,0.00908084586262703,0.00034373998641967773,0.0007155537605285645
-0.01630334183573723,0.023223599418997765,0.030005190521478653,0.008276104927062988,-0.0024997591972351074,-0.0017008781433105469
-0.0016340736765414476,0.02868780493736267,0.04923884570598602,0.006934866309165955,-0.0011225342750549316,0.0010259151458740234
-0.013324307277798653,0.026309635490179062,0.06130480766296387,0.0019172430038452148,0.0007357597351074219,0.00841832160949707
-0.05421445891261101,0.04240521416068077,0.07102030515670776,-0.007988616824150085,-0.0025073885917663574,0.010425269603729248
-0.06917621940374374,0.020050490275025368,0.06070390343666077,-0.012690156698226929,0.0030909478664398193,-0.010015368461608887
-0.000770836602896452,-0.03954543545842171,0.039042770862579346,-0.008861377835273743,0.015080362558364868,-0.03626513481140137
0.048867367208004,-0.05075947195291519,0.027810698375105858,-0.008749675005674362,0.016939163208007812,-0.02372986078262329
0.03915844485163689,-0.018942557275295258,0.01554939616471529,-0.012415289878845215,0.009701043367385864,0.008223176002502441
0.00037235207855701447,-0.0003829958732239902,0.010253098793327808,-0.015115797519683838,0.0033984780311584473,0.02539771795272827
-0.026339350268244743,-0.012735899537801743,0.011682212352752686,-0.011326804757118225,0.0004768073558807373,0.020964860916137695
-0.023664604872465134,-0.021046889945864677,0.019783154129981995,-0.006787523627281189,0.0002326369285583496,0.0058937668800354
0.005632544402033091,0.0009681179653853178,0.021540826186537743,-0.005753934383392334,0.0007633566856384277,-0.0032820701599121094
0.011608635075390339,0.017785783857107162,0.012194151058793068,-0.005661517381668091,0.004507124423980713,-0.009136080741882324
0.02841189131140709,-0.020359491929411888,0.004769560880959034,-0.001072511076927185,0.00535932183265686,-0.019380688667297363
0.04063563793897629,-0.04910551756620407,0.0038737799040973186,0.004730880260467529,0.007879316806793213,-0.014979183673858643
0.04955347999930382,-0.043135788291692734,-0.003363909898325801,0.0008710622787475586,0.005560487508773804,0.001979231834411621
0.031850941479206085,-0.010886269621551037,-0.01667783036828041,0.0015181154012680054,0.009626179933547974,0.025037705898284912
-0.008258791640400887,0.00887081678956747,-0.025147072970867157,0.00512164831161499,0.012148350477218628,0.03351873159408569
-0.026917366310954094,-0.014482180587947369,-0.02433076500892639,0.010269030928611755,0.009532243013381958,0.01868414878845215
0.001987720839679241,-0.02533375844359398,-0.019825544208288193,0.010483860969543457,0.008523911237716675,0.009188294410705566
0.0235196053981781,-0.017053969204425812,-0.015794357284903526,0.01244119182229042,0.008608013391494751,0.014451801776885986
0.005585712380707264,0.020084265619516373,-0.0034550330601632595,0.012969408184289932,0.009925603866577148,0.0349004864692688
-0.07372386008501053,0.06346355378627777,0.020531151443719864,0.014154702425003052,0.004990756511688232,0.047618567943573
-0.11590909212827682,0.049249663949012756,0.05189311504364014,0.020449891686439514,0.0010852217674255371,0.01860666275024414
-0.0797906145453453,0.007060833275318146,0.06784957647323608,0.010384533554315567,0.0018714368343353271,-0.023597657680511475
-0.017563670873641968,-0.019917096942663193,0.024484599009156227,-0.010294850915670395,0.004780679941177368,-0.0374828577041626
0.00461113965138793,-0.006908887065947056,-0.026143690571188927,-0.017300471663475037,0.006779134273529053,-0.024927496910095215
0.006334777921438217,-0.00795792881399393,-0.033868949860334396,-0.00318126380443573,0.0025927722454071045,-0.013935506343841553
0.025275103747844696,-0.01704980805516243,-0.003991574048995972,0.009466651827096939,-0.003208160400390625,-0.008800268173217773
0.023227661848068237,-0.012593913823366165,0.0282614566385746,0.014370918273925781,-0.003638535737991333,0.005845189094543457
0.012370798736810684,-0.005127541720867157,0.01717608980834484,0.0034314431250095367,-5.888938903808594e-05,0.019899189472198486
-0.0016160865779966116,-0.013013454154133797,0.009182119742035866,-0.0022717714309692383,-0.0015514194965362549,0.023665189743041992
-0.035281579941511154,-0.012719452381134033,0.009756620042026043,0.00020071864128112793,-0.0031363964080810547,0.02781546115875244
-0.03036036528646946,-0.012513567693531513,0.017533810809254646,0.002350732684135437,-0.0019626617431640625,0.015914499759674072
-0.020489666610956192,0.00823940522968769,0.01932687871158123,0.008731111884117126,0.006414949893951416,0.009855866432189941
-0.011867147870361805,0.015954315662384033,0.01331212930381298,0.005270421504974365,-0.00013881921768188477,0.0050345659255981445
0.0006458587013185024,0.007852829061448574,0.004468180239200592,0.0005651898682117462,-0.00408935546875,0.0032889842987060547
0.0012149326503276825,-0.010131428018212318,0.0061248899437487125,0.006767675280570984,-0.0044460296630859375,0.009463071823120117
-0.01698828488588333,0.005778844468295574,0.024769693613052368,0.013796836137771606,-0.005200028419494629,0.013243675231933594
-0.031078681349754333,0.004823935218155384,0.041376497596502304,0.012960433959960938,-0.0049540698528289795,0.006589233875274658
-0.004125245381146669,-0.026610851287841797,0.04242828115820885,0.0030879974365234375,-0.00424569845199585,-0.008448362350463867
-0.005750316195189953,-0.049740634858608246,0.0414157509803772,-0.002260938286781311,-0.0022889673709869385,0.0034170150756835938
-0.06567657738924026,-0.07448667287826538,0.03600199520587921,-0.007848650217056274,-0.0006060004234313965,0.024566173553466797
-0.1537254899740219,-0.11173386871814728,0.04259278625249863,-0.008374020457267761,0.002379506826400757,0.030265986919403076
-0.15535302460193634,-0.13338714838027954,0.04121984541416168,-0.00558646023273468,0.0017954111099243164,0.006810009479522705
-0.08021600544452667,-0.11150572448968887,0.04065597057342529,-0.006463848054409027,0.002773791551589966,-0.021078884601593018
-0.006976841948926449,-0.03016694076359272,0.019759828224778175,-0.014689132571220398,0.004805386066436768,-0.021059513092041016
0.04453333839774132,0.04913836345076561,-0.01483982615172863,-0.018662214279174805,0.006442755460739136,-0.01580631732940674
0.05228201299905777,0.046048834919929504,-0.02706991508603096,-0.014041230082511902,0.010555833578109741,-0.007406771183013916
0.021304471418261528,-0.016732247546315193,-0.01535247266292572,-0.009809240698814392,0.0033062994480133057,0.0017811059951782227
-0.007596663199365139,-0.04245638847351074,-0.00029226019978523254,-0.004435144364833832,0.004633516073226929,0.007153332233428955
-0.006223742850124836,-0.012216518633067608,0.004010404460132122,-0.005389899015426636,0.0049970149993896484,0.00481182336807251
0.028056055307388306,0.020161276683211327,-0.0029536387883126736,-0.008963674306869507,0.007476717233657837,-0.005591750144958496
0.054373860359191895,0.011591849848628044,-0.014238866977393627,-0.011978603899478912,0.00977778434753418,-0.00808250904083252
0.042047299444675446,-0.0099303238093853,-0.015156719833612442,-0.007490590214729309,0.01176115870475769,0.005238771438598633
0.012286962941288948,-0.013710658065974712,-0.0051720342598855495,-0.0015999078750610352,0.013011336326599121,0.01575106382369995
-0.0052702948451042175,-7.061666110530496e-05,0.010175123810768127,0.001851782202720642,0.016086488962173462,0.01441103219985962
-8.049001917243004e-05,-0.0018239052733406425,-0.0021671894937753677,-0.0024657249450683594,0.014326095581054688,0.0033677220344543457
0.019613176584243774,-0.013124345801770687,-0.0320245660841465,-0.0030466392636299133,0.01594904065132141,0.00024247169494628906
0.028774777427315712,-0.02378290705382824,-0.03289509192109108,0.007509313523769379,0.012928992509841919,0.012499332427978516
-0.008146945387125015,-0.00030142400646582246,0.018850991502404213,0.020648881793022156,0.0002892613410949707,0.03510701656341553
-0.050652459263801575,0.02985450252890587,0.06399358063936234,0.015066400170326233,0.002607882022857666,0.033516764640808105
-0.06002573296427727,0.028308264911174774,0.05615294724702835,6.00963830947876e-05,0.016064435243606567,0.018083631992340088
-0.03246534615755081,0.028225908055901527,0.02840321511030197,-0.015184924006462097,0.011338382959365845,-0.0011513829231262207
-0.0011896963696926832,0.020590323954820633,0.009720096364617348,-0.01813557744026184,0.00809413194656372,-0.008637309074401855
-0.0013950052671134472,-0.0070927380584180355,0.003531730268150568,-0.020692333579063416,0.0014462172985076904,-0.0007393360137939453
-0.0619356632232666,0.00303908484056592,0.01156587153673172,-0.02132701873779297,-0.004613429307937622,0.019079148769378662
-0.15245835483074188,0.023859959095716476,0.028139270842075348,-0.01086600124835968,-0.0015137791633605957,0.018601179122924805
-0.18803763389587402,-0.002866497030481696,0.026365630328655243,-0.0017179101705551147,0.010483920574188232,-0.014322161674499512
-0.12041664868593216,-0.0542946495115757,-0.01147031132131815,-0.009780310094356537,0.015092730522155762,-0.055775463581085205
