rotation_x,rotation_y,rotation_z,acceleration_x,acceleration_y,acceleration_z
0.11276303976774216,-0.2853585183620453,0.2648535966873169,0.05059674382209778,-0.03103739023208618,0.09460896253585815
0.2207358330488205,-0.28742608428001404,0.14669333398342133,0.01872783899307251,0.03114527463912964,-0.02279716730117798
0.47344979643821716,-0.0035279602743685246,0.020373109728097916,-0.007273823022842407,0.06534673273563385,-0.1535901427268982
0.5115439295768738,0.23065221309661865,-0.0668269470334053,0.01402464509010315,0.07445263862609863,-0.10978102684020996
0.3625409007072449,0.25496596097946167,-0.1683947741985321,0.04250383377075195,0.0483449250459671,0.02209794521331787
0.21625164151191711,0.08344326168298721,-0.27304938435554504,0.06250861287117004,0.03275427222251892,0.11049878597259521
0.14067679643630981,-0.19493985176086426,-0.35519203543663025,0.06799483299255371,0.048864126205444336,0.1398615837097168
0.16109152138233185,-0.30064380168914795,-0.47705915570259094,0.04518580436706543,0.05812820792198181,0.08485931158065796
0.17502014338970184,-0.22019432485103607,-0.5033543109893799,0.046807318925857544,0.12982884049415588,0.02306574583053589
0.02676529623568058,-0.21502460539340973,-0.44898414611816406,0.07378175854682922,0.15018898248672485,0.06309151649475098
-0.11974168568849564,-0.4304099678993225,-0.3724561631679535,0.11044174432754517,0.1289953738451004,0.12116658687591553
-0.1354520320892334,-0.7327263951301575,-0.34116026759147644,0.10733950138092041,0.11489379405975342,0.09503936767578125
-0.16136609017848969,-0.9507970809936523,-0.30102023482322693,0.09396320581436157,0.1096392571926117,0.0633125901222229
-0.2429688572883606,-0.9708980917930603,-0.15467469394207,0.1216285228729248,0.10214963555335999,0.04064178466796875
-0.2883502244949341,-0.8964443206787109,0.02627774141728878,0.1639237403869629,0.09364552795886993,0.025420069694519043
-0.3148450553417206,-0.952335000038147,0.1716073900461197,0.1515730619430542,0.06179895997047424,0.024016201496124268
-0.31160566210746765,-1.252556324005127,0.25300854444503784,0.1340147852897644,0.055125653743743896,0.0633704662322998
-0.19233661890029907,-1.5407891273498535,0.25148895382881165,0.09257537126541138,0.026425734162330627,0.027905821800231934
-0.12229587137699127,-1.6150695085525513,0.2686542868614197,0.05379605293273926,0.03721906244754791,-0.039918601512908936
-0.2627237141132355,-1.5758978128433228,0.3972727954387665,0.0832720398902893,0.02647317945957184,0.004863917827606201
-0.4868299663066864,-1.5083198547363281,0.5671219229698181,0.12016242742538452,-0.020437583327293396,0.04289728403091431
-0.733092188835144,-1.6562312841415405,0.6537466049194336,0.08775049448013306,-0.05115815997123718,0.060061752796173096
-0.720247745513916,-1.956153392791748,0.5477675199508667,-0.01857292652130127,-0.04763764142990112,-0.02380669116973877
-0.5401772260665894,-2.153630495071411,0.34419313073158264,-0.17557752132415771,0.025404244661331177,-0.17785680294036865
-0.36931198835372925,-1.97471284866333,0.2707364559173584,-0.18799149990081787,0.053773581981658936,-0.27880656719207764
-0.23256337642669678,-1.3675886392593384,0.3464198112487793,-0.06038379669189453,-0.05604711174964905,-0.30194908380508423
-0.49357858300209045,-0.9071456789970398,0.38235318660736084,-0.03658992052078247,-0.12675893306732178,-0.17945390939712524
-0.5607606172561646,-0.4894751310348511,0.28071460127830505,-0.03788101673126221,-0.15017405152320862,-0.10720378160476685
-0.27955761551856995,-0.02921185828745365,0.12209291011095047,-0.08507323265075684,-0.14897239208221436,-0.20591163635253906
0.11142271012067795,0.2775806188583374,0.010428594425320625,-0.120106041431427,-0.10136348009109497,-0.21451592445373535
0.39608317613601685,0.31269264221191406,0.029131093993782997,-0.07623040676116943,-0.05725541710853577,-0.14126157760620117
0.4204045534133911,0.17186100780963898,0.12087609618902206,-0.03108733892440796,-0.020620077848434448,0.0006895065307617188
0.3370271921157837,0.030423296615481377,0.23647382855415344,-0.0025252103805541992,-0.008621275424957275,0.08443868160247803
0.2858069837093353,-0.035258032381534576,0.29500263929367065,-0.004000544548034668,-0.015412509441375732,0.08026236295700073
0.24504734575748444,-0.0037269513122737408,0.3094214200973511,-0.001760721206665039,-0.027690887451171875,0.05958139896392822
0.23059166967868805,0.012442272156476974,0.23575270175933838,-0.03310054540634155,-0.0282096266746521,0.06609910726547241
0.26591676473617554,0.0169452503323555,0.1358480155467987,-0.04956632852554321,-0.030458152294158936,0.049276530742645264
0.2717912197113037,-0.0006080177263356745,0.11157310754060745,-0.022310197353363037,-0.021982043981552124,0.0574725866317749
0.251903235912323,-0.04868217557668686,0.08926600217819214,-0.0012243390083312988,-0.03139817714691162,0.07418578863143921
0.19347523152828217,-0.04274732246994972,0.07734955847263336,0.0029528141021728516,-0.04134729504585266,0.08492088317871094
0.10317784547805786,-0.06236320734024048,0.05010177940130234,0.029974043369293213,-0.04407823085784912,0.06933671236038208
0.03018965944647789,-0.08674231171607971,-0.016646094620227814,0.01793140172958374,-0.05374312400817871,0.08729815483093262
-0.03401249647140503,-0.07989133149385452,-0.06993301957845688,0.02221745252609253,-0.03760725259780884,0.0652276873588562
-0.05809034779667854,-0.055585142225027084,-0.08784660696983337,0.03269916772842407,-0.008847206830978394,0.039489805698394775
-0.036630552262067795,-0.03370961919426918,-0.07247336208820343,0.034208059310913086,0.02304321527481079,0.020054996013641357
0.010103033855557442,-0.05722639709711075,-0.040163200348615646,0.039915382862091064,0.028476417064666748,0.0051888227462768555
0.006009458564221859,-0.101683609187603,-0.002628094283863902,0.041520118713378906,0.031648069620132446,0.015051603317260742
-0.029978999868035316,-0.11249428242444992,0.005422327201813459,0.017513811588287354,0.031162559986114502,0.015274286270141602
-0.056722406297922134,-0.09429339319467545,-0.007309551350772381,-0.00018513202667236328,0.030297935009002686,0.012761116027832031
-0.07070668786764145,0.0015787543961778283,-0.012985688634216785,-0.025749921798706055,0.03466826677322388,-0.0092926025390625
-0.04489944502711296,0.136838898062706,-0.016085604205727577,-0.03637361526489258,0.04233771562576294,-0.0318523645401001
-0.0006497199647128582,0.20785506069660187,-0.008591670542955399,-0.041360557079315186,0.042648762464523315,-0.030096709728240967
0.06635888665914536,0.1815115511417389,0.010515372268855572,-0.04547464847564697,0.040430814027786255,-0.013089120388031006
0.10076893121004105,0.09691864997148514,0.046764858067035675,-0.04563891887664795,0.03450492024421692,0.018370449542999268
0.13417266309261322,0.03596160188317299,0.06192842125892639,-0.05385422706604004,0.024196654558181763,0.027110695838928223
0.1692943274974823,0.02339329570531845,0.05151421204209328,-0.07461029291152954,0.024887144565582275,0.020461618900299072
0.19775433838367462,0.04006612300872803,0.026234488934278488,-0.07865685224533081,0.021743953227996826,0.014011204242706299
0.186236172914505,0.06544844061136246,-0.0021827714517712593,-0.07970458269119263,0.025891035795211792,0.025491416454315186
0.12116201221942902,0.07314326614141464,0.018739784136414528,-0.06402009725570679,0.043339550495147705,0.052404940128326416
0.06579326838254929,0.025216229259967804,0.07847446203231812,-0.0320165753364563,0.052820682525634766,0.07720667123794556
0.010153016075491905,-0.027850080281496048,0.1237860769033432,-0.011028647422790527,0.04723849892616272,0.08451014757156372
-0.05388786643743515,-0.07139632850885391,0.17821890115737915,-0.0015345215797424316,0.03449806571006775,0.08286845684051514
-0.07603806257247925,-0.10634781420230865,0.20614007115364075,0.005222797393798828,0.01630920171737671,0.05517548322677612
-0.09439171105623245,-0.1806536763906479,0.2212318331003189,-0.005965709686279297,0.015675127506256104,0.03456336259841919
-0.06193530559539795,-0.27177608013153076,0.2212132215499878,-0.018181681632995605,0.004427134990692139,0.0035071969032287598
-0.01028552558273077,-0.28353628516197205,0.17815658450126648,-0.03814762830734253,0.002965390682220459,-0.02993178367614746
0.013911353424191475,-0.20667991042137146,0.11016803979873657,-0.0492243766784668,-0.004849225282669067,-0.061692893505096436
-0.0024188703391700983,-0.08391617238521576,0.0655132308602333,-0.04231542348861694,-0.011134326457977295,-0.061572253704071045
0.009784350171685219,0.0037377283442765474,0.017437558621168137,-0.021404385566711426,-0.01946932077407837,-0.058769404888153076
0.04542951285839081,0.04386858269572258,-0.027472414076328278,-0.01795065402984619,-0.021818220615386963,-0.049073219299316406
0.08248253911733627,0.02649816684424877,-0.056135717779397964,-0.01218336820602417,-0.002754002809524536,-0.026477575302124023
0.07727374136447906,0.01950038969516754,-0.04449879378080368,-0.0038895606994628906,0.014496028423309326,-0.0042716264724731445
0.044789429754018784,0.04892262443900108,-0.022613544017076492,-0.0036181211471557617,0.03664824366569519,0.00044536590576171875
0.024012917652726173,0.025606485083699226,-0.008137322962284088,-0.013303637504577637,0.05053892731666565,0.0082777738571167
0.005877310875803232,-0.015286882407963276,0.043490976095199585,-0.00846409797668457,0.06631052494049072,0.016613304615020752
0.017144151031970978,-0.03820609673857689,0.10433245450258255,0.013836324214935303,0.05999436974525452,0.014749288558959961
0.05520293489098549,-0.039467960596084595,0.1273416131734848,0.02814096212387085,0.02673277258872986,0.007853209972381592
0.10970488935709,-0.03279530256986618,0.11335153132677078,0.023723721504211426,0.0034837722778320312,0.008060097694396973
0.11940561234951019,-0.023812994360923767,0.10573770850896835,0.020061016082763672,-0.003516167402267456,0.02829110622406006
0.081960529088974,-0.0659424439072609,0.11875984817743301,0.021172642707824707,-0.007124423980712891,0.0546380877494812
-0.012822004035115242,-0.13823656737804413,0.11075200140476227,0.014593362808227539,-0.011340409517288208,0.07682937383651733
-0.10604491829872131,-0.19369295239448547,0.06296942383050919,-0.01141667366027832,-0.011253893375396729,0.06497782468795776
-0.1874592900276184,-0.17707274854183197,-0.05487336218357086,-0.03950423002243042,-0.007946759462356567,0.02896559238433838
-0.28559839725494385,-0.08182334899902344,-0.17328451573848724,-0.05167078971862793,0.00047641992568969727,-0.009611964225769043
-0.366271048784256,0.022687984630465508,-0.24199055135250092,-0.028949081897735596,0.02249354124069214,-0.0403895378112793
-0.37874850630760193,0.08218950033187866,-0.21906240284442902,0.0259285569190979,0.030056029558181763,-0.06319105625152588
-0.29771482944488525,0.07619120925664902,-0.13786664605140686,0.08053559064865112,0.030784249305725098,-0.08771359920501709
-0.144713893532753,0.06581185758113861,-0.03450693562626839,0.1083785891532898,0.028453469276428223,-0.10870683193206787
0.025008969008922577,0.010945575311779976,0.08509103208780289,0.11517292261123657,0.034998416900634766,-0.11422741413116455
0.16910873353481293,-0.07649468630552292,0.2099376916885376,0.11818480491638184,0.041169673204422,-0.0866466760635376
0.2727257311344147,-0.13281676173210144,0.2869167923927307,0.09312266111373901,0.02890104055404663,-0.06886512041091919
0.2712245583534241,-0.16549065709114075,0.3176755905151367,0.05279660224914551,0.01147797703742981,-0.03214925527572632
0.1982736885547638,-0.20882326364517212,0.3299793303012848,0.03403371572494507,-0.00923919677734375,0.00039321184158325195
0.13550235331058502,-0.2322099208831787,0.28469598293304443,0.007331669330596924,-0.024982720613479614,0.005390942096710205
0.09387838840484619,-0.18228082358837128,0.20246097445487976,-0.018673479557037354,-0.03522288799285889,-0.020508646965026855
0.045038025826215744,-0.11147812753915787,0.12988631427288055,-0.026158154010772705,-0.03432595729827881,-0.034015953540802
0.01946398802101612,-0.03119005635380745,0.11656180769205093,-0.014480412006378174,-0.024432003498077393,-0.04232931137084961
0.06760359555482864,-0.036808472126722336,0.13518117368221283,0.005566895008087158,-0.016454041004180908,-0.05129808187484741
0.17558033764362335,-0.08323940634727478,0.16435568034648895,0.02033066749572754,-0.025870442390441895,-0.05058324337005615
0.25804373621940613,-0.11435545980930328,0.180122971534729,0.025253355503082275,-0.034602344036102295,-0.04165804386138916
0.2523684501647949,-0.06948737055063248,0.15681055188179016,0.01410740613937378,-0.04160752892494202,-0.026408910751342773
0.17580343782901764,-0.03160066157579422,0.10469664633274078,-0.0040201544761657715,-0.04511788487434387,-0.005912601947784424
0.10766837745904922,-0.023668279871344566,0.014203054830431938,-0.01985865831375122,-0.04707598686218262,-0.0007021427154541016
0.08103852719068527,-0.003271237015724182,-0.11272431164979935,-0.04363018274307251,-0.04709964990615845,-0.02225714921951294
0.026794198900461197,0.033541638404130936,-0.23914989829063416,-0.04169374704360962,-0.036995261907577515,-0.031966567039489746
-0.05082571879029274,0.11024526506662369,-0.332076758146286,-0.023411095142364502,-0.02212226390838623,-0.04099893569946289
-0.08109144866466522,0.21412573754787445,-0.3836354613304138,-0.011419892311096191,0.014363855123519897,-0.059320271015167236
-0.047399699687957764,0.2740277945995331,-0.37062081694602966,0.015146613121032715,0.04752126336097717,-0.06859838962554932
-0.004150822293013334,0.2701270282268524,-0.31837084889411926,0.04669523239135742,0.05523335933685303,-0.05818670988082886
0.05230938643217087,0.21754778921604156,-0.2803272604942322,0.0683068037033081,0.04787319898605347,-0.038358867168426514
0.07494769990444183,0.20223942399024963,-0.2507399320602417,0.07943570613861084,0.03471440076828003,-0.014394998550415039
0.04424560070037842,0.2601248323917389,-0.22779399156570435,0.0747365951538086,0.034437209367752075,-0.003840506076812744
0.007338475435972214,0.2946733832359314,-0.2052108347415924,0.07545167207717896,0.03661346435546875,0.009666621685028076
-0.01250249519944191,0.26455071568489075,-0.1685992330312729,0.07614868879318237,0.04596558213233948,0.022034406661987305
-0.0364016592502594,0.19684523344039917,-0.12722927331924438,0.06843382120132446,0.06280392408370972,0.0272560715675354
-0.06384161114692688,0.16972605884075165,-0.047541871666908264,0.06360548734664917,0.07815828919410706,0.01899343729019165
-0.03076990321278572,0.18345816433429718,0.030348017811775208,0.061054766178131104,0.09570926427841187,-0.014647960662841797
0.06235162913799286,0.2067270129919052,0.11132607609033585,0.04971790313720703,0.09266805648803711,-0.05423027276992798
0.2512320578098297,0.1336640864610672,0.23715929687023163,0.047504425048828125,0.08028599619865417,-0.06224989891052246
0.45794975757598877,-0.12145081162452698,0.40305596590042114,0.04324138164520264,0.034910112619400024,-0.038834452629089355
0.5896225571632385,-0.3088417947292328,0.5252712368965149,0.02318638563156128,0.016874611377716064,-0.007269322872161865
0.6249819993972778,-0.3715403378009796,0.546989917755127,-0.012536466121673584,-0.02621212601661682,-0.0007516145706176758
0.5977525115013123,-0.35124877095222473,0.5028747320175171,-0.06053590774536133,-0.030247479677200317,0.012281537055969238
0.5445826053619385,-0.29111766815185547,0.4666435420513153,-0.07113289833068848,-0.023816198110580444,0.020750701427459717
0.4652382731437683,-0.23642008006572723,0.4373573064804077,-0.06642365455627441,-0.01467713713645935,0.02794623374938965
0.339335173368454,-0.15401190519332886,0.4214123785495758,-0.06406879425048828,-0.004095911979675293,0.04184746742248535
0.20826546847820282,-0.09893075376749039,0.3934902250766754,-0.03905767202377319,-0.014174044132232666,0.045662760734558105
0.14086461067199707,-0.046447042375802994,0.3321605622768402,-0.033358871936798096,-0.02412816882133484,0.019598722457885742
0.12195039540529251,-0.010075345635414124,0.27517959475517273,-0.016873478889465332,-0.026366978883743286,-0.011067092418670654
0.12543638050556183,-0.013175373896956444,0.26263076066970825,0.008665382862091064,-0.02543988823890686,-0.02454686164855957
0.1495557725429535,-0.02117396518588066,0.2702277600765228,0.03171724081039429,-0.016411155462265015,-0.03550887107849121
0.18818943202495575,-0.05474710091948509,0.31618326902389526,0.04990839958190918,-0.0059625208377838135,-0.045782387256622314
0.23828308284282684,-0.10528713464736938,0.3698425590991974,0.06267744302749634,0.0023856759071350098,-0.0512349009513855
0.2880765199661255,-0.1801309734582901,0.4068175256252289,0.06401723623275757,0.005576103925704956,-0.05603522062301636
0.31016820669174194,-0.24075382947921753,0.424597829580307,0.05453675985336304,0.003970593214035034,-0.0475308895111084
0.35327672958374023,-0.285252183675766,0.42380738258361816,0.03718256950378418,-0.00112992525100708,-0.051290273666381836
0.39305204153060913,-0.27928248047828674,0.3940644860267639,0.020194828510284424,-0.006495833396911621,-0.06210494041442871
0.4081714451313019,-0.25182196497917175,0.3422969579696655,-0.0021631717681884766,-0.022391200065612793,-0.057110488414764404
0.42350688576698303,-0.24202539026737213,0.30894747376441956,-0.01279360055923462,-0.02312484383583069,-0.051516056060791016
0.46278226375579834,-0.27800148725509644,0.30449002981185913,-0.004855692386627197,-0.014291346073150635,-0.03853750228881836
0.47334736585617065,-0.31762629747390747,0.3253348767757416,0.004101693630218506,-0.0029044151306152344,-0.018045246601104736
0.4596818685531616,-0.348103404045105,0.3326329290866852,0.005939483642578125,0.003723710775375366,-0.004173099994659424
0.42338699102401733,-0.32477185130119324,0.3201679289340973,-0.000847160816192627,0.009847790002822876,0.001267552375793457
0.3736652135848999,-0.28949207067489624,0.2976572513580322,-0.004767477512359619,0.006949096918106079,0.006881058216094971
0.32641732692718506,-0.24216978251934052,0.2621750235557556,-0.0073133111000061035,0.008336842060089111,0.011828720569610596
0.28991377353668213,-0.18275290727615356,0.21576352417469025,-0.014150857925415039,0.011439979076385498,0.003931999206542969
0.24135972559452057,-0.16132602095603943,0.18420101702213287,-0.010511636734008789,0.015458345413208008,0.007869839668273926
0.19520719349384308,-0.135149747133255,0.16046655178070068,-0.004363894462585449,0.015072643756866455,0.010473132133483887
0.14668121933937073,-0.08737124502658844,0.1170816719532013,-0.004479825496673584,0.014355629682540894,0.0018874406814575195
0.08851654082536697,-0.013308156281709671,0.07271677255630493,-0.003968954086303711,0.013139128684997559,-0.0006448626518249512
0.06557700037956238,0.006747208070009947,0.04623289778828621,-2.7954578399658203e-05,0.016862690448760986,-0.003278970718383789
0.06923163682222366,-0.02237797901034355,0.05170822516083717,0.019509613513946533,0.023209840059280396,0.0006262063980102539
0.0489567331969738,-0.06264816969633102,0.07405507564544678,0.03214287757873535,0.02737101912498474,0.008526206016540527
0.004738388583064079,-0.12422710657119751,0.11207567900419235,0.042532503604888916,0.028871536254882812,0.019238710403442383
0.004278489854186773,-0.19178734719753265,0.1321869045495987,0.046923279762268066,0.030981004238128662,0.017124950885772705
0.07579195499420166,-0.1763940155506134,0.08543603122234344,0.02536386251449585,0.028119295835494995,-0.03168177604675293
0.09021042287349701,-0.054771073162555695,0.02369709685444832,0.015948593616485596,0.02812141180038452,-0.05779528617858887
0.00640736473724246,0.06467127799987793,0.0026026389095932245,0.015563547611236572,0.019297540187835693,-0.036781907081604004
-0.012917191721498966,0.013187047094106674,0.024820199236273766,0.026059329509735107,0.017493247985839844,-0.0021284818649291992
0.016670651733875275,-0.04656326770782471,0.03875019773840904,0.0170210599899292,0.0167330801486969,-0.004347264766693115
0.031239252537488937,-0.05145144462585449,0.030113451182842255,-4.792213439941406e-05,0.011663377285003662,-0.012999176979064941
0.0251004695892334,-0.03428155928850174,0.012835360132157803,-0.007639825344085693,0.006053060293197632,-0.012556135654449463
0.026413170620799065,-0.011726661585271358,0.004016710910946131,-0.007998108863830566,0.004370242357254028,-0.01057744026184082
0.019978972151875496,-0.0024861879646778107,-0.006661028601229191,-0.009956896305084229,0.00586855411529541,-0.006034970283508301
-0.011146456003189087,0.003771441290155053,-0.007621098309755325,-0.004520416259765625,0.0009531378746032715,0.005762040615081787
-0.03795432671904564,0.02894316241145134,-0.022638246417045593,-0.004085719585418701,0.0032772719860076904,0.004483819007873535
-0.0570346936583519,0.03403256833553314,-0.024303728714585304,0.001020669937133789,0.006068050861358643,-0.0004475116729736328
-0.07070308923721313,0.048119254410266876,-0.03185771405696869,0.006066620349884033,0.0070149898529052734,-0.004927873611450195
-0.0780002772808075,0.046903885900974274,-0.03929637745022774,0.010514676570892334,0.005492419004440308,-0.011503815650939941
-0.10478664934635162,0.09007357060909271,-0.06172586604952812,0.011108160018920898,0.004736363887786865,-0.012335658073425293
-0.08146356046199799,0.09516255557537079,-0.0789756178855896,0.008108675479888916,0.0049738287925720215,-0.02788090705871582
-0.07515084743499756,0.06441497802734375,-0.060352277010679245,0.02012115716934204,0.005480259656906128,-0.019362211227416992
-0.08722658455371857,0.0652908906340599,-0.02111794427037239,0.026191413402557373,0.013028562068939209,-0.016001641750335693
-0.07715792953968048,0.02528727799654007,-0.0008304889779537916,0.030656814575195312,-0.0004069507122039795,-0.01662158966064453
-0.06822729110717773,0.02288254350423813,-0.002221782226115465,0.01313471794128418,-0.0047896504402160645,-0.02081078290939331
-0.04793466255068779,0.0063500721007585526,0.0020682341419160366,0.011052727699279785,-0.005639553070068359,-0.027149975299835205
-0.030954431742429733,0.0041924333199858665,-0.004506820812821388,0.01039344072341919,-0.014125615358352661,-0.02547287940979004
-0.003986295312643051,0.003498038277029991,-0.012917929328978062,0.010492026805877686,-0.01698872447013855,-0.02743661403656006
-0.002984946360811591,0.027932971715927124,-0.02470182441174984,0.0031771063804626465,-0.014444172382354736,-0.02542698383331299
-0.03180287033319473,0.0355466827750206,-0.031084485352039337,-0.0030031800270080566,-0.013547956943511963,-0.011342883110046387
-0.05900472030043602,0.028516950085759163,-0.019379787147045135,-0.0015657544136047363,-0.008925199508666992,-0.004683256149291992
-0.04216214641928673,-0.012960238382220268,-0.007666567340493202,-0.0005969405174255371,-0.011225283145904541,-0.01154792308807373
-0.00918513536453247,-0.01464122999459505,0.0066382186487317085,0.0036935806274414062,-0.010420173406600952,-0.02637702226638794
0.028728842735290527,-0.00019305513706058264,0.0010031202109530568,-0.00019419193267822266,-0.011009395122528076,-0.03696751594543457
0.05638350173830986,-0.003011043183505535,0.004946915432810783,0.00033223628997802734,-0.009307622909545898,-0.034300923347473145
0.05408158898353577,-0.016939006745815277,0.025817643851041794,0.013170063495635986,-0.007651925086975098,-0.013079941272735596
0.04780879616737366,-0.01967098005115986,0.036712974309921265,0.015397071838378906,-0.005022197961807251,-0.009035050868988037
0.04244273900985718,-0.0166278388351202,0.015416842885315418,0.006862342357635498,-0.004475593566894531,-0.010725557804107666
0.022534064948558807,-0.004268425516784191,0.008951709605753422,0.0043724775314331055,0.0002168416976928711,-0.007856786251068115
0.009608162567019463,-0.017633235082030296,0.01516088005155325,0.011712968349456787,0.003921777009963989,-0.004823625087738037
0.007414081133902073,-0.012746390886604786,0.021451253443956375,0.011685609817504883,0.0038953423500061035,-0.01149284839630127
0.03138342499732971,-0.0008110597264021635,0.01823313534259796,0.008022010326385498,-0.0015752017498016357,-0.021672308444976807
0.056386008858680725,0.003877328708767891,0.018700867891311646,0.006005823612213135,-0.0004149973392486572,-0.02198237180709839
0.054232969880104065,0.00642943661659956,0.01815185137093067,0.006627082824707031,0.003142416477203369,-0.011076569557189941
0.042250990867614746,0.005900372751057148,0.021569011732935905,0.005930185317993164,0.00468754768371582,-0.001659989356994629
0.025507204234600067,-0.0024115643464028835,0.02539772167801857,0.004556715488433838,0.004811108112335205,-1.6808509826660156e-05
0.0093096774071455,-0.022239118814468384,0.02407224476337433,0.003658592700958252,0.0006690025329589844,0.006822943687438965
-0.004172239452600479,-0.014093626290559769,0.01796931028366089,0.0002726912498474121,-0.002863645553588867,0.0036078691482543945
0.0076314788311719894,0.015897715464234352,0.0030980552546679974,0.0016036033630371094,0.0013763904571533203,-0.011707603931427002
0.019403211772441864,-0.003493399126455188,-0.0007778280414640903,0.004441380500793457,0.003143489360809326,-0.015746116638183594
0.017988987267017365,-0.030170494690537453,0.0025974854361265898,0.010631561279296875,-0.001438438892364502,-0.004880726337432861
0.009462149813771248,-0.015131675638258457,0.005068864673376083,0.0026796460151672363,0.004200071096420288,-0.006354808807373047
0.01311243325471878,-0.007189435884356499,-0.001515059731900692,0.0029799938201904297,0.001794576644897461,-0.011200428009033203
0.020656928420066833,-0.0008596417610533535,-0.002699878066778183,-0.0007326602935791016,0.003614068031311035,-0.01305854320526123
0.024984315037727356,-0.004114228766411543,-0.004892861470580101,-0.0011701583862304688,0.0015720725059509277,-0.009678006172180176
0.016178935766220093,0.00698630278930068,-0.011188321746885777,-0.004773616790771484,0.002760559320449829,-0.005282461643218994
0.005325069651007652,0.012050306424498558,-0.007951663807034492,-0.003341078758239746,0.0028880536556243896,-0.002931356430053711
-0.0015704436227679253,0.012995942495763302,-0.00377865182235837,-0.0011052489280700684,0.005738407373428345,-8.165836334228516e-06
-0.014298055320978165,0.015895750373601913,-0.0027240875642746687,-0.0018748044967651367,0.004778832197189331,0.0036292672157287598
-0.017771895974874496,0.016039399430155754,-0.012198886834084988,-0.004808962345123291,0.002922147512435913,-0.000303804874420166
-0.016255520284175873,0.008446834981441498,-0.00916482787579298,-0.003601670265197754,0.000951915979385376,-0.0036186575889587402
-0.007325534243136644,0.0012392540229484439,0.005804406479001045,0.003815948963165283,-0.0028476715087890625,-0.002669215202331543
-0.005478029605001211,0.012909440323710442,0.011783169582486153,0.009082615375518799,-0.0025285184383392334,-0.006711363792419434
-0.005928622093051672,0.022191517055034637,-0.0009176419116556644,0.001161813735961914,-0.001206815242767334,-0.010168671607971191
-0.022107046097517014,0.01719425618648529,-0.005141876172274351,0.0017374157905578613,0.00489962100982666,-0.0038409829139709473
-0.03944791108369827,-0.00292167067527771,0.0003075140994042158,0.005811512470245361,0.002293407917022705,-0.0008510351181030273
-0.0223049595952034,-0.006029791664332151,-0.0062837861478328705,-0.002523362636566162,-0.0009397566318511963,-0.011452555656433105
0.010369251482188702,-0.010021708905696869,0.0045962342992424965,0.0007835030555725098,-0.0016367435455322266,-0.026894807815551758
0.04052146151661873,-0.009010450914502144,0.011606487445533276,0.007046937942504883,-0.0013788044452667236,-0.023395657539367676
0.04765128716826439,-0.019293084740638733,0.01141921803355217,0.0040923357009887695,-0.004037141799926758,-0.013489246368408203
0.03260836750268936,-0.01399168185889721,0.004637907259166241,-0.0004368424415588379,-0.004105329513549805,0.0003342628479003906
0.007411950267851353,0.0003174796001985669,-0.0020796393509954214,-0.0015974044799804688,-0.002176254987716675,0.008047342300415039
-0.018697485327720642,0.019186291843652725,-0.011004390195012093,-0.0032970309257507324,0.0021814703941345215,0.007097601890563965
-0.03778592869639397,0.014144721440970898,-0.013717744499444962,-0.00011795759201049805,0.0001830756664276123,0.007934212684631348
-0.03688056766986847,0.012743894010782242,-0.015397517010569572,-0.0012835264205932617,0.0013998150825500488,-0.0015339255332946777
-0.01712292619049549,0.009454309940338135,-0.014412596821784973,-8.761882781982422e-05,-0.004804521799087524,-0.014175772666931152
0.0023770062252879143,0.0075016808696091175,0.0002361205406486988,0.00498044490814209,0.0029666125774383545,-0.016641736030578613
0.020262081176042557,-0.00959257036447525,0.015266385860741138,0.010708332061767578,0.0005675554275512695,-0.014945149421691895
0.01890033669769764,-0.006600557826459408,0.012418760918080807,0.004043757915496826,0.0018492341041564941,-0.008809208869934082
0.007191286887973547,-0.013711681589484215,0.012062869034707546,0.0027717947959899902,-0.0008117556571960449,-0.005090951919555664
0.0014799553900957108,-0.00037765526212751865,0.01654580421745777,0.0029453039169311523,0.002370387315750122,-0.0015917420387268066
0.016201544553041458,-0.000771112332586199,0.013735589571297169,0.001222074031829834,8.976459503173828e-05,-0.011762022972106934
0.02209555357694626,-0.01798456348478794,0.02124725468456745,0.0020914077758789062,-0.0014468729496002197,-0.006577014923095703
0.01461287122219801,-0.00789730716496706,0.02321932651102543,0.003491997718811035,-0.0007170140743255615,-0.0036562085151672363
0.0056563387624919415,-0.007187196984887123,0.016796479001641273,0.0019001960754394531,-0.0005101859569549561,-0.0025041699409484863
0.0011065378785133362,0.001156700192950666,0.009663039818406105,0.0009028911590576172,0.004307806491851807,-0.0037102699279785156
0.005750081967562437,-0.0008165471954271197,0.013922867365181446,0.0025861263275146484,0.00684782862663269,-0.0023958683013916016
0.007050741463899612,-0.007078597322106361,0.01636463776230812,0.0022585391998291016,0.006801605224609375,-0.004835605621337891
0.0015832297503948212,-0.006867832038551569,0.0090994443744421,-0.002407073974609375,0.002872377634048462,-0.0014230012893676758
0.002831901889294386,0.0020282454788684845,0.0022524804808199406,-0.001398622989654541,0.0029900074005126953,-0.0026721954345703125
-0.006681287195533514,0.008353146724402905,-1.4192890375852585e-05,-0.0042678117752075195,0.0038319826126098633,-0.0025151968002319336
-0.010149984620511532,0.006923347245901823,0.0006219417555257678,3.814697265625e-05,0.0013620555400848389,0.0021253228187561035
-0.01854555867612362,0.012428789399564266,-0.0019708203617483377,0.0003222823143005371,0.002842545509338379,0.001148223876953125
-0.02338860183954239,0.01755223423242569,0.0005008827429264784,0.001789093017578125,0.0032119154930114746,-0.001511991024017334
-0.023632321506738663,0.014627926051616669,-0.0050242021679878235,0.0006642341613769531,0.0012653172016143799,-0.003515958786010742
-0.01924707740545273,0.010201697237789631,-0.005335283000022173,0.0013459324836730957,0.0012120306491851807,-0.0048850178718566895
-0.025830088183283806,0.01643115095794201,-0.005846448242664337,-0.0011481642723083496,-0.00015369057655334473,-0.006251156330108643
-0.01539994589984417,0.00756634259596467,-0.00546801695600152,0.002247452735900879,0.0002041459083557129,-0.009947896003723145
0.0036470401100814342,0.008415251970291138,0.0036456845700740814,0.006815850734710693,0.00032335519790649414,-0.01312255859375
0.011965746060013771,0.015857772901654243,0.0038114949129521847,0.007224917411804199,-0.0018572807312011719,-0.009154558181762695
-0.01103369239717722,0.0165438000112772,0.010881004855036736,0.004565536975860596,0.0038770735263824463,-0.0007352828979492188
-0.0243032556027174,0.022615864872932434,0.012597691267728806,0.0026216506958007812,0.004829138517379761,0.004380464553833008
-0.0209310632199049,0.0072942739352583885,0.0002981959842145443,-0.004853725433349609,0.004132002592086792,-0.0015053153038024902
-0.02131444588303566,0.0023938973899930716,0.0036104260943830013,-0.0077446699142456055,-0.0019667744636535645,-0.005754709243774414
-0.00048205163329839706,-0.0012219303753226995,0.008175592869520187,-0.003664076328277588,-0.004253029823303223,-0.013260245323181152
0.03163616359233856,0.0013663407880812883,0.010052703320980072,0.0007781386375427246,-0.0029552876949310303,-0.01896524429321289
0.03556051105260849,0.0015701266238465905,0.011403748765587807,0.001993417739868164,-0.0011364221572875977,-0.0111924409866333
0.011489657685160637,0.006239980459213257,0.002051122020930052,0.0008649230003356934,-0.001996666193008423,0.002325892448425293
-0.016415506601333618,0.005881892517209053,0.002634539734572172,0.001419365406036377,-0.0033519864082336426,0.01153111457824707
-0.032671019434928894,0.003781084669753909,-0.0013128549326211214,-0.0006078481674194336,0.00023445487022399902,0.008523821830749512
-0.03543201833963394,0.006083546206355095,-0.0036016227677464485,-0.0018270611763000488,0.0010234415531158447,-0.0012808442115783691
-0.013820480555295944,0.018266014754772186,-0.004356433171778917,-0.0007495880126953125,0.0030894577503204346,-0.014100074768066406
0.023712361231446266,0.005972067825496197,0.008976534008979797,0.002867460250854492,0.0010289251804351807,-0.02280956506729126
0.038623932749032974,-0.01342736091464758,0.012973612174391747,0.003381490707397461,-0.0009751319885253906,-0.011517167091369629
0.025055406615138054,-0.013052758760750294,0.00522894412279129,-0.004068493843078613,-0.002574920654296875,-0.0018248558044433594
-0.0033091087825596333,-0.0033760005608201027,0.0015706305857747793,-0.006789565086364746,0.0005486011505126953,0.007357776165008545
-0.0117458775639534,-0.002982118632644415,0.0005987051408737898,-0.0033893585205078125,-4.184246063232422e-05,0.005905747413635254
-0.007200142368674278,0.0025585275143384933,0.0018665052484720945,-0.0018064379692077637,0.0035501718521118164,-0.002505660057067871
0.0008043674752116203,0.002011785749346018,0.0068912082351744175,0.0038924813270568848,0.0016067326068878174,-0.008617639541625977
0.01757252775132656,-0.0015122677432373166,0.013674592599272728,0.006067991256713867,0.0019095540046691895,-0.010884642601013184
0.02590523660182953,-0.003273735288530588,0.011888249777257442,0.0035752058029174805,0.0002410411834716797,-0.007481396198272705
0.023248450830578804,-0.0023423233069479465,0.002791086444631219,-0.0028539299964904785,0.00030800700187683105,-0.0055002570152282715
-0.004795040935277939,0.0012446894543245435,0.003277507610619068,-0.002203226089477539,0.0005706548690795898,0.006376206874847412
-0.011313142254948616,-0.0061743431724607944,0.0018910565413534641,0.0008635520935058594,0.0037456750869750977,0.0041773319244384766
-0.005846863146871328,-0.0072859469801187515,-0.007711898535490036,-0.0035004019737243652,0.0032410919666290283,-0.0017642378807067871
0.006827890872955322,-0.008993459865450859,-0.002743319608271122,-0.005083739757537842,0.0035665929317474365,-0.00886613130569458
0.014983724802732468,-0.01587624102830887,0.0057702260091900826,0.003941714763641357,0.0029499828815460205,-0.007621705532073975
0.020313579589128494,-0.014309288933873177,0.0036037114914506674,0.0011276006698608398,0.0034455955028533936,-0.006380856037139893
0.016782045364379883,-0.012697863392531872,0.0012087069917470217,0.0009152889251708984,-0.0007520914077758789,-0.0017037391662597656
0.0006704945117235184,-0.0012663534143939614,-0.0037217787466943264,-0.0024299025535583496,0.0019266009330749512,0.004137277603149414
-0.001717057777568698,0.0033150857780128717,-0.012209558859467506,-0.0015810728073120117,0.0026862621307373047,-5.334615707397461e-05
-0.0014603575691580772,-0.0011539210099726915,-0.011335443705320358,0.000643312931060791,0.0031324028968811035,-0.0014147758483886719
-0.0016246174927800894,0.011078462935984135,-0.010559444315731525,7.68899917602539e-05,0.004210472106933594,-0.0045566558837890625
0.0076729548163712025,0.017767205834388733,-0.01836639642715454,-0.0019504427909851074,-0.0004316568374633789,-0.00992727279663086
0.017370251938700676,0.013533096760511398,-0.019130690023303032,-0.005137622356414795,-0.0009829998016357422,-0.013097822666168213
0.014092039316892624,0.008230003528296947,-0.01308611873537302,0.0035648345947265625,-0.0016380548477172852,-0.006799101829528809
0.018007617443799973,-0.0040644267573952675,-0.009470311924815178,0.004719734191894531,-0.0020487308502197266,-0.004370927810668945
0.02597503922879696,-0.002143228892236948,-0.0074425507336854935,0.0045716166496276855,-0.003436952829360962,-0.004396259784698486
0.006109145935624838,0.0023829233832657337,-0.003811422735452652,0.005372226238250732,-0.0016837716102600098,0.003964126110076904
-0.021223030984401703,0.008835336193442345,-0.009025568142533302,0.0005697011947631836,0.0044460296630859375,0.006859719753265381
-0.027111545205116272,-0.005093529354780912,-0.0031618201173841953,0.0016380548477172852,0.010824382305145264,0.0029158592224121094
0.0019279969856142998,-0.03883322700858116,-0.006395210511982441,-0.000470578670501709,0.00375935435295105,-0.005788564682006836
0.025463782250881195,-0.022387033328413963,8.483952842652798e-05,-0.008782804012298584,0.0024771690368652344,-0.017210543155670166
0.042006537318229675,-0.005554789211601019,-0.0023104078136384487,-0.0063422322273254395,-0.0025272369384765625,-0.017337322235107422
0.046066682785749435,-0.006249446887522936,-0.009723374620079994,-0.005867660045623779,-0.005031943321228027,-0.006498157978057861
0.03072233498096466,-0.007342037744820118,-0.007530863396823406,-0.004670858383178711,-0.0014247894287109375,0.00844663381576538
-0.000192930456250906,-0.0064940317533910275,-0.008999180048704147,-0.0010649561882019043,-1.5497207641601562e-05,0.016915202140808105
-0.026865538209676743,0.009688029065728188,-0.01871645078063011,-0.003959178924560547,-0.0006325244903564453,0.013930976390838623
-0.039462894201278687,0.021398266777396202,-0.02758474461734295,-0.005193173885345459,0.0014888942241668701,0.004159688949584961
-0.025164928287267685,0.007595473434776068,-0.02090134471654892,0.00014954805374145508,0.0039049386978149414,-0.007531523704528809
-0.005927009973675013,-0.0009681321680545807,-0.007992053404450417,0.007338106632232666,0.0010830461978912354,-0.011504828929901123
0.022206217050552368,-0.008573751896619797,-0.0029679310973733664,0.0044476985931396484,0.0007316172122955322,-0.01628488302230835
0.03133034706115723,-0.019898412749171257,0.004502966068685055,0.0015742182731628418,0.001682370901107788,-0.011527061462402344
0.01658513955771923,-0.03228418901562691,0.004805524833500385,-0.0008251070976257324,-0.0017036497592926025,0.0012439489364624023
0.00324357021600008,-0.03240850940346718,0.005962308496236801,-0.00403594970703125,-0.0009967386722564697,0.006301522254943848
0.006874747574329376,-0.03152519464492798,0.001418538624420762,-0.004988312721252441,-0.0005716085433959961,8.368492126464844e-05
0.026736589148640633,-0.02887081913650036,0.0003010649234056473,-0.002436220645904541,-0.00293770432472229,-0.0062364935874938965
0.0446341410279274,-0.004465022124350071,0.010748263448476791,-0.0027556419372558594,0.007656216621398926,-0.01452338695526123
0.06400877982378006,-0.002601875923573971,0.005582935176789761,-0.0006829500198364258,-0.0006048679351806641,-0.012637853622436523
0.0476510226726532,-0.01187841035425663,-0.0009313994087278843,-0.0041918158531188965,0.0020307302474975586,0.001785874366760254
0.017441092059016228,-0.006638483610004187,-0.0037775663658976555,-0.0027022957801818848,0.001080155372619629,0.012363076210021973
-0.005861398298293352,-0.006861066911369562,-0.013155076652765274,-0.005934417247772217,0.0033409595489501953,0.011456310749053955
-0.016035402193665504,-0.008853860199451447,-0.014881164766848087,0.00025534629821777344,0.001902461051940918,0.007258415222167969
-0.021804705262184143,-0.003369188867509365,-0.011470766738057137,0.0018926262855529785,0.0028201639652252197,0.0012317299842834473
-0.020946551114320755,-0.002880819607526064,-0.005892532877624035,0.001657724380493164,0.0015964210033416748,-0.0029935240745544434
-0.008359276689589024,-0.0021949508227407932,-0.004597380291670561,0.0011202096939086914,-0.002000182867050171,-0.006772220134735107
-0.0034020671155303717,-0.00490401778370142,-0.006736105773597956,-0.002150893211364746,-0.00392913818359375,-0.0069512128829956055
-0.00550426822155714,-0.0035696662962436676,-0.004992486909031868,-0.0004755854606628418,-0.005553007125854492,-0.00530010461807251
-0.0017144926823675632,-0.012675071135163307,-0.004674252588301897,0.0007488131523132324,-0.005627155303955078,-0.002246856689453125
0.003708894830197096,-0.01599816232919693,0.004499399568885565,1.9311904907226562e-05,-0.0017764866352081299,-0.005319356918334961
0.012457182630896568,-0.0023636275436729193,0.0069318972527980804,0.0012766122817993164,-0.0010152757167816162,-0.006900489330291748
0.02356082573533058,0.004343912936747074,0.00434443773701787,-0.0015922784805297852,-0.0012728571891784668,-0.008669614791870117
0.024721331894397736,0.00582425482571125,0.00559740886092186,-0.0012238025665283203,0.00019860267639160156,-0.005673587322235107
0.02294396609067917,-0.0017725188517943025,0.008120568469166756,0.0008273124694824219,-0.0005668997764587402,-0.0016427040100097656
0.010570177808403969,-0.009070592932403088,0.011404141783714294,0.0017209649085998535,0.005168318748474121,0.0023983120918273926
0.009232781827449799,-0.003148465184494853,0.018460337072610855,0.003260672092437744,0.0042393505573272705,0.0014046430587768555
0.028711238875985146,0.0035346783697605133,0.013442132622003555,-0.0008181333541870117,0.002569258213043213,-0.0054212212562561035
0.03951432555913925,0.014890405349433422,0.012767263688147068,-0.001789093017578125,-0.0004547238349914551,-0.006385087966918945
0.004933848511427641,0.011332784779369831,0.01243844535201788,0.0002949833869934082,0.0006222724914550781,0.009898900985717773
-0.02786141075193882,0.005751172546297312,0.008968531154096127,-0.0033013224601745605,0.006721019744873047,0.017585039138793945
-0.03501017391681671,-0.0008762582438066602,0.008364965207874775,-0.006379425525665283,0.008821368217468262,0.006559610366821289
-0.01902366615831852,-0.005439639091491699,-0.0015547997318208218,-0.011071085929870605,0.0007923543453216553,-0.005488157272338867
0.014803259633481503,-0.0030768788419663906,-0.007839605212211609,-0.011773943901062012,-0.005601644515991211,-0.017487287521362305
0.031493473798036575,4.9854861572384834e-06,0.0018631131388247013,-0.0025989413261413574,-0.0026990175247192383,-0.011743426322937012
0.03022085875272751,-0.0006175562739372253,0.006287480238825083,0.004676342010498047,-0.0002575218677520752,-0.002309143543243408
0.012594196014106274,0.0055681681260466576,-0.002131304470822215,3.141164779663086e-05,0.0006237626075744629,0.00806725025177002
-0.022487889975309372,0.008948252536356449,-0.0035904503893107176,-0.0007565021514892578,0.0009562671184539795,0.014312028884887695
-0.0500774160027504,0.02200722135603428,-0.012144442647695541,-6.604194641113281e-05,-2.9921531677246094e-05,0.014141619205474854
-0.04495775327086449,0.017775991931557655,-0.016545582562685013,-0.003350377082824707,0.001919180154800415,-0.0021976232528686523
-0.01699838787317276,0.01485359575599432,-0.011742351576685905,0.00035881996154785156,0.0038810670375823975,-0.014494895935058594
0.012620769441127777,0.003027725499123335,-0.0022294707596302032,0.00046193599700927734,0.0004620552062988281,-0.017568588256835938
0.020121676847338676,-0.002899300307035446,0.00229503121227026,0.0017175674438476562,-0.0012364983558654785,-0.009152054786682129
0.014718430116772652,0.010790201835334301,-0.00689485389739275,-0.007709205150604248,-0.0010149180889129639,-0.0013913512229919434
-0.0012110578827559948,0.010584120638668537,-0.01532211434096098,-0.00871574878692627,-0.0017794966697692871,0.0038039684295654297
-0.018745381385087967,0.009188939817249775,-0.013954547233879566,-0.003135859966278076,-0.001992255449295044,0.010214805603027344
-0.01917378604412079,0.0006126058287918568,-0.008490227162837982,0.0011074542999267578,0.0005773305892944336,0.004002213478088379
-0.02167298085987568,0.01634315401315689,-0.006907220929861069,0.0021021366119384766,0.0010750889778137207,-0.0015017986297607422
-0.011243492364883423,0.02040383778512478,-0.00320003111846745,0.0023903250694274902,0.003141939640045166,-0.008612215518951416
-0.013190027326345444,0.011998575180768967,0.009077003225684166,0.009036660194396973,0.0022824108600616455,-0.0049324631690979
-0.01253380998969078,0.00914942380040884,0.0018966570496559143,0.000785529613494873,-0.0014317333698272705,-0.0028470754623413086
-0.01736646518111229,0.0022947676479816437,-0.005219552665948868,-0.004208624362945557,-0.0017580687999725342,-0.0012111663818359375
-0.01808808371424675,0.00997277069836855,-0.008294924162328243,-0.0030573606491088867,-0.0028831660747528076,-0.00275421142578125
-0.005152424797415733,-0.0032769956160336733,-0.005952257663011551,-0.0031244754791259766,-0.0006354749202728271,-0.008775889873504639
0.005391955375671387,-0.015179725363850594,-0.0035896399058401585,0.000862419605255127,-0.0018297433853149414,-0.006124675273895264
0.0054649668745696545,-0.03619244694709778,-0.006613832898437977,0.0015102624893188477,-0.005386322736740112,0.0004634857177734375
0.00669498136267066,-0.03881017863750458,-0.01402651984244585,-0.0026147961616516113,-0.0025330781936645508,-4.07099723815918e-05
-0.010451709851622581,-0.02286667935550213,-0.0095977196469903,-0.0003037452697753906,0.0015528202056884766,-0.00014263391494750977
-0.015368982218205929,0.00788751058280468,0.010562397539615631,0.0027681589126586914,0.004153579473495483,-0.001743614673614502
0.007736714091151953,0.02289186418056488,0.01262986846268177,0.003522515296936035,0.009119182825088501,-0.011248171329498291
0.017599323764443398,0.01269994955509901,0.010088007897138596,-0.0008498430252075195,0.0008873641490936279,-0.010297596454620361
0.015629513189196587,-0.0013213248457759619,0.007718188222497702,-0.004166722297668457,-0.0006532967090606689,-0.0013810396194458008
0.0011718268506228924,-0.002128050895407796,0.004012642428278923,-0.006205081939697266,-0.0027584433555603027,0.004628181457519531
-0.009081203490495682,-0.0001559824449941516,-0.0038475384935736656,-0.006717860698699951,-0.0017048418521881104,0.004726588726043701
-0.004723221994936466,-0.0043626101687550545,-0.0037575920578092337,-0.003918707370758057,-0.00011867284774780273,-0.00011110305786132812
-0.003489376977086067,-0.003501707222312689,-0.0025990598369389772,-0.0015553832054138184,0.0008437633514404297,-0.0020530223846435547
0.0006610197015106678,0.0007351174717769027,-0.002965649589896202,-0.0011152029037475586,0.0008624494075775146,-0.004650533199310303
0.014819812960922718,-0.0020263725891709328,0.005027550272643566,0.0017365813255310059,0.002657860517501831,-0.004348933696746826
0.017515042796730995,-0.0042928848415613174,0.005360503681004047,0.0046797990798950195,-0.0005702674388885498,-0.001282334327697754
-0.0073982286266982555,-0.0006565585499629378,-0.0022959099151194096,-0.001599729061126709,-0.0010630488395690918,0.00823754072189331
-0.022052057087421417,-0.029627105221152306,-0.00919493380934,-0.0018932819366455078,0.0038188695907592773,0.012821733951568604
-0.02039823681116104,-0.02917676605284214,-0.001693075755611062,0.0016071796417236328,0.009272515773773193,0.0010221004486083984
-0.011816775426268578,-0.024787399917840958,0.0029814206063747406,-0.0038370490074157715,0.002925097942352295,-0.00978630781173706
0.015382482670247555,0.000813037040643394,0.012307671830058098,-0.004957973957061768,-7.027387619018555e-05,-0.018763363361358643
0.06325086951255798,-0.013538953848183155,0.017776774242520332,-0.0005046725273132324,-0.0015493035316467285,-0.023119211196899414
0.062332142144441605,-0.014554372057318687,0.015816064551472664,-0.003662705421447754,-0.0034210681915283203,-0.005913674831390381
0.0241165142506361,-0.013381294906139374,0.004722224548459053,-0.007194995880126953,-0.0020623505115509033,0.01560598611831665
-0.021203255280852318,-0.0012813361827284098,-0.010512826964259148,-0.0074198246002197266,-0.001683056354522705,0.023418068885803223
-0.04680943861603737,0.012243896722793579,-0.015781298279762268,-0.0068762898445129395,0.0010288655757904053,0.01569843292236328
-0.04403772950172424,0.012134508229792118,-0.01628517359495163,-0.0017334222793579102,0.004361897706985474,0.0026698708534240723
-0.02373802475631237,0.008071045391261578,-0.013814265839755535,0.0014832019805908203,0.0012658238410949707,-0.01222538948059082
-0.007590659894049168,0.006166735198348761,-0.006005578674376011,0.0017334818840026855,0.0016636550426483154,-0.012355327606201172
0.011444684118032455,-0.00031797110568732023,-0.002756437985226512,0.0025665760040283203,0.0005199313163757324,-0.012080907821655273
0.012540031224489212,-0.005508731119334698,0.0008643824839964509,-0.0008936524391174316,-8.752942085266113e-05,-0.004469931125640869
0.007664836477488279,-0.00603496516123414,-0.0009053009562194347,-0.0024628043174743652,0.0011089146137237549,-0.0021749138832092285
0.007013344205915928,-0.015311499126255512,0.005299088545143604,0.0010389089584350586,-0.0024625062942504883,-0.0017390251159667969
0.008601171895861626,0.0056194947101175785,0.005137541331350803,-0.001613318920135498,-0.0013130009174346924,-0.0030747056007385254
0.0266831424087286,-0.004321224056184292,0.004603587090969086,-0.003411591053009033,-0.0019091665744781494,-0.009343087673187256
0.014802179299294949,-0.010100862942636013,0.010628015734255314,0.00424802303314209,-0.000812530517578125,0.001519322395324707
0.0018399273976683617,0.006059722509235144,0.00842227041721344,4.9591064453125e-05,0.004403829574584961,0.0034285783767700195
0.0008022207766771317,-0.002764392178505659,0.004723799880594015,-0.0005888938903808594,0.0010850727558135986,0.0019685029983520508
-0.010560616850852966,0.009118583053350449,-0.003867859486490488,-0.002645254135131836,0.003145158290863037,0.0035010576248168945
-0.013101456686854362,0.004879841115325689,-0.005961925256997347,-0.004723489284515381,0.0005242228507995605,-0.002500176429748535
-0.012453227303922176,-0.00022820394951850176,9.337253868579865e-05,-0.0020905137062072754,0.0007163584232330322,-0.0006091594696044922
-0.00555944349616766,0.0006342718843370676,0.005382123403251171,0.0007677674293518066,0.003954976797103882,-0.0059983134269714355
0.011377396993339062,-0.004084193147718906,0.004199029412120581,-0.0017767548561096191,-0.0007043182849884033,-0.006798207759857178
0.011532070115208626,-0.004460550379008055,8.774572052061558e-05,-0.0024829506874084473,0.0006226301193237305,-0.003076016902923584
0.006316982675343752,-0.0007500815554521978,0.00027146912179887295,-0.0023779869079589844,-0.0004209280014038086,-0.0002630949020385742
-4.4228509068489075e-06,0.002027592621743679,-0.0023143214639276266,-0.0023039579391479492,6.273388862609863e-05,0.0028742551803588867
-0.009114071726799011,0.003990188241004944,-0.0002765634562820196,-0.000911712646484375,0.0012251436710357666,0.003325343132019043
-0.019210971891880035,0.0030392170883715153,-0.004403882659971714,-0.00352400541305542,0.001436471939086914,0.0013010501861572266
-0.013077503070235252,-9.058159776031971e-05,-0.008322620764374733,-0.00446009635925293,0.0016828179359436035,-0.0015388131141662598
-0.001293392851948738,-0.0038193773943930864,-0.0060677798464894295,-0.0021968483924865723,-0.0005590319633483887,-0.004544496536254883
0.00779894832521677,0.004726497922092676,0.00016709603369235992,0.0007377862930297852,-0.0002924203872680664,-0.0066111087799072266
0.012193514034152031,0.012514324858784676,0.009622359648346901,0.004575788974761963,0.003071516752243042,-0.007378756999969482
0.00624667527154088,0.010547047480940819,0.0071445549838244915,0.0017401576042175293,0.0018258094787597656,-0.0022493600845336914
-0.005954863503575325,0.0072180964052677155,-0.0021152556873857975,-0.0018140077590942383,0.0001601874828338623,0.0018618106842041016
0.0018192660063505173,0.018969234079122543,-0.013655276037752628,-0.0047872066497802734,-0.0017878413200378418,-0.003777742385864258
0.009707830846309662,0.0178585946559906,-0.016671238467097282,-0.0011554956436157227,-0.006661921739578247,-0.005503714084625244
-0.008514133282005787,0.017621628940105438,-0.019141295924782753,-0.0012856721878051758,0.0011633336544036865,0.002133309841156006
-0.031962133944034576,0.010173611342906952,-0.012855795212090015,0.001238405704498291,0.006979823112487793,0.008574426174163818
-0.023148398846387863,-0.005444592330604792,0.00033196876756846905,0.0006794929504394531,0.010217905044555664,0.0008935332298278809
0.009953906759619713,-0.01830313727259636,0.005093446467071772,-0.0038101673126220703,0.0027448534965515137,-0.010775744915008545
0.0373818464577198,-0.01290165726095438,0.0025766431353986263,-0.009944021701812744,-0.003387242555618286,-0.014667809009552002
0.05504414066672325,-0.016444779932498932,0.009832795709371567,-0.0059566497802734375,-0.003771573305130005,-0.010451555252075195
0.03800687938928604,-0.007143898867070675,0.0052776094526052475,-0.005845010280609131,-0.002125382423400879,0.0057179927825927734
-0.004285398405045271,0.009437358006834984,-0.010595791041851044,-0.009400010108947754,-0.0010409653186798096,0.017292559146881104
-0.039524804800748825,0.013860286213457584,-0.019850311800837517,-0.004174530506134033,0.0008711814880371094,0.019119858741760254
-0.05252424627542496,0.02194494567811489,-0.024334877729415894,-0.0005936026573181152,0.003146439790725708,0.010622203350067139
-0.05226391181349754,0.03006216138601303,-0.02346169576048851,0.004490852355957031,0.0056160688400268555,-0.0021821260452270508
-0.021801121532917023,0.01950773224234581,-0.011242996901273727,0.009333133697509766,0.007486253976821899,-0.016455233097076416
0.010426053777337074,-0.01332602184265852,0.004780922085046768,0.01119232177734375,0.004465550184249878,-0.014919400215148926
0.026397161185741425,-0.024551337584853172,0.011390803381800652,0.005322754383087158,0.002885103225708008,-0.010790228843688965
0.009440239518880844,-0.009043009020388126,0.008999400772154331,-0.0033164620399475098,0.0007891356945037842,-0.007829725742340088
-0.0035391654819250107,-0.00282873073592782,0.005499624647200108,-0.0074326395988464355,-0.005273193120956421,-0.0017402172088623047
0.011841977015137672,-0.015062175691127777,0.0035751203540712595,-0.008590102195739746,-0.004794299602508545,-0.0027698874473571777
0.01686244085431099,-0.006730745546519756,0.007567870430648327,-0.006368041038513184,-0.005123555660247803,-0.005517482757568359
0.02457350865006447,-0.0022073762957006693,0.0016456861048936844,-0.007919013500213623,-0.0007912218570709229,-0.003961920738220215
0.019588802009820938,-0.00025159562937915325,-0.0018411001656204462,-0.006047964096069336,7.69197940826416e-05,0.0029963254928588867
0.0020543551072478294,-0.0025704591535031796,-0.0009180840570479631,-0.001919567584991455,0.002606719732284546,0.00706249475479126
-0.009487085044384003,0.005723845679312944,-0.002616161247715354,-6.300210952758789e-05,0.0038419365882873535,0.007666945457458496
-0.016196582466363907,0.015402257442474365,3.6312034353613853e-05,0.0018752813339233398,0.004469931125640869,0.0011356472969055176
-0.012075960636138916,0.014825033023953438,0.004252595826983452,0.0021117329597473145,0.006112962961196899,-0.0029718875885009766
-0.009895753115415573,0.0036598993465304375,0.007240590639412403,0.0017263293266296387,0.002441495656967163,-0.0042684078216552734
-0.006089368369430304,0.007324191275984049,0.006931699812412262,-0.001139223575592041,0.0007439255714416504,-0.0029793977737426758
0.0021302271634340286,0.0005628567887470126,-0.0071449014358222485,-0.006967425346374512,-0.0019720494747161865,-0.006585478782653809
0.004417154937982559,-0.0004619773244485259,-0.0107146380469203,-0.005954742431640625,-0.0028439760208129883,-0.003985702991485596
-0.0008817799389362335,-0.0038873921148478985,-0.005495259538292885,-0.0019080638885498047,-0.0032682418823242188,-0.00020235776901245117
-0.002088892040774226,-0.002173538552597165,0.0022689669858664274,-0.0006597638130187988,-0.00035962462425231934,0.0006482601165771484
0.0016943947412073612,-0.002971421694383025,0.010949274525046349,0.002254188060760498,0.0010120570659637451,-0.0012578368186950684
-0.0007113073952496052,-0.00592571496963501,0.01091661024838686,4.827976226806641e-06,0.000280916690826416,-8.761882781982422e-05
0.0012633404694497585,0.01576242223381996,-0.0019792497623711824,-0.007660031318664551,4.887580871582031e-05,-0.00318753719329834
0.011193373240530491,0.014613593928515911,-0.0022759141866117716,-0.004468262195587158,0.004518747329711914,-0.00873100757598877
-0.0044882758520543575,0.007445365656167269,0.003519657999277115,0.00276029109954834,6.791949272155762e-05,0.0015164017677307129
-0.009936876595020294,0.002941540442407131,0.0011421602685004473,0.0017464756965637207,0.004127532243728638,0.0022246837615966797
-0.00969175435602665,0.004876697435975075,-0.0027904717717319727,-0.0031781792640686035,0.0019892454147338867,-0.004047513008117676
-0.00013006804510951042,0.011862166225910187,-0.002326143207028508,-0.002573847770690918,0.0020903348922729492,-0.005995512008666992
0.012798372656106949,0.012485348619520664,0.0017374347662553191,0.004176616668701172,-0.0026752054691314697,-0.0038968324661254883
-0.008840426802635193,0.024398254230618477,0.0022242837585508823,0.003555774688720703,0.001268148422241211,0.003625154495239258
-0.028697488829493523,0.01653926633298397,-0.002926269778981805,-0.0008611679077148438,0.002541661262512207,0.007779359817504883
-0.025988226756453514,-0.014466426335275173,-0.004573087207973003,-0.0024022459983825684,0.0072593092918396,0.0030254125595092773
-0.01221463829278946,-0.028392527252435684,0.013671893626451492,0.0004572272300720215,0.0006369054317474365,-0.0027083754539489746
0.0018532155081629753,-0.005218923557549715,0.008605947718024254,-0.005820214748382568,0.0015843510627746582,-0.01651942729949951
0.034536298364400864,-0.015232568606734276,0.00850626453757286,-0.006407797336578369,-0.005558103322982788,-0.017153441905975342
0.04287479817867279,-0.01487500499933958,0.008225496858358383,-0.005270242691040039,-0.0025589466094970703,-0.006560683250427246
0.02105593867599964,0.007512583862990141,-0.0025865191128104925,-0.00997549295425415,0.0024563372135162354,0.004506111145019531
0.0013837991282343864,0.005828777328133583,-0.009064080193638802,-0.007310271263122559,0.0007758438587188721,0.010326802730560303
-0.028813209384679794,0.011798576451838017,-0.010805104859173298,-0.002529740333557129,-0.000352323055267334,0.01519632339477539
-0.04804769530892372,0.014109451323747635,-0.018663523718714714,-0.0029847025871276855,-5.030632019042969e-05,0.00971764326095581
-0.03890988230705261,0.021470002830028534,-0.02088175341486931,-0.0005543828010559082,0.0032647252082824707,-0.0012537837028503418
-0.01342487521469593,0.0249173603951931,-0.012012685649096966,0.0016558170318603516,0.0069245100021362305,-0.01284778118133545
0.006045718211680651,0.002892161952331662,0.002913382835686207,0.005442500114440918,0.004203349351882935,-0.010691225528717041
0.005236890632659197,-0.006775370333343744,0.008934766985476017,0.0024053454399108887,0.001115351915359497,-0.004406154155731201
-0.005326734855771065,-0.0028114723972976208,-0.001346193253993988,-0.007960498332977295,-0.00280076265335083,-0.0022403597831726074
-0.0065981317311525345,-0.00466254074126482,-0.0035745161585509777,-0.0062830448150634766,-0.004114747047424316,-0.002065718173980713
0.009721595793962479,-0.004533474799245596,0.002767198020592332,-0.0002778172492980957,-0.002001136541366577,-0.006460070610046387
0.025433335453271866,-0.00427951430901885,0.012366770766675472,0.0014613866806030273,0.0003154873847961426,-0.008708536624908447
0.0202440544962883,-0.010501561686396599,0.018270673230290413,0.003999829292297363,-0.0013129711151123047,-0.0013691186904907227
0.010221585631370544,-0.0027835052460432053,0.012934996746480465,0.0008946657180786133,-9.736418724060059e-05,0.0009970664978027344
0.006392659619450569,0.0016058078035712242,0.011195640079677105,-0.0014318227767944336,0.002189815044403076,0.00029277801513671875
-0.007831397466361523,0.002644699066877365,0.01003385428339243,0.00020450353622436523,0.0013006031513214111,0.0029417872428894043
-0.02047991380095482,0.0009263172978535295,0.006832156330347061,-0.002993345260620117,-0.0003803670406341553,0.0032140612602233887
-0.014063993468880653,0.00938409473747015,-0.004560002125799656,-0.005576372146606445,-0.0016185939311981201,-0.0017443299293518066
-0.00800970196723938,0.020393606275320053,-0.0042368341237306595,-0.0040937066078186035,-0.0011681914329528809,-0.004287838935852051
0.004234645050019026,0.015847543254494667,0.0053948466666042805,0.0020027756690979004,0.0017423927783966064,-0.004278898239135742
0.008100347593426704,0.012869162485003471,0.02750581130385399,0.007304549217224121,0.00316542387008667,-0.0018110275268554688
0.011368900537490845,0.0003355792723596096,0.032575566321611404,0.0061637163162231445,-0.0008516907691955566,0.0027849674224853516
0.01746688038110733,-0.04043662175536156,0.00988317746669054,0.0013147592544555664,-0.006712496280670166,0.0005116462707519531
-0.0013688593171536922,-0.025422517210245132,0.020636223256587982,-0.0010146498680114746,0.0004999935626983643,-0.002102196216583252
0.0002811392769217491,-0.012337015010416508,0.025726865977048874,-0.0003418922424316406,0.004970431327819824,-0.008508265018463135
0.0266233179718256,-0.007093731313943863,0.028675679117441177,-0.0027968287467956543,0.004264235496520996,-0.01847529411315918
0.042574308812618256,-0.00977516733109951,0.031563010066747665,-0.001982390880584717,0.003801017999649048,-0.01618659496307373
0.03969398885965347,-0.01664542779326439,0.022882644087076187,-0.005104184150695801,-0.0018641948699951172,-0.0044800639152526855
0.03561801835894585,-0.011124428361654282,0.005563575774431229,-0.012850046157836914,-0.0015225410461425781,-0.0008664727210998535
0.02782840095460415,-0.005684918724000454,-0.0032180710695683956,-0.010269701480865479,0.001216888427734375,0.0019921064376831055
0.020614374428987503,0.00994751788675785,-0.009432187303900719,-0.004294455051422119,0.004942357540130615,0.009295940399169922
0.006626525893807411,0.01722646877169609,-0.0010476175229996443,0.006193339824676514,0.0045930445194244385,0.014243721961975098
-0.03054293431341648,0.023254260420799255,0.002052580937743187,0.004280686378479004,0.012692868709564209,0.01837170124053955
-0.05565526336431503,0.021797895431518555,0.006242958828806877,0.0006574392318725586,0.011859714984893799,0.01508718729019165
-0.04346942529082298,0.008370764553546906,0.0034498474560678005,-0.00534975528717041,0.007587522268295288,0.0010277628898620605
-0.015387358143925667,-0.006027239374816418,-0.0017456673085689545,-0.008817553520202637,-0.003069758415222168,-0.01383519172668457
0.004098402336239815,0.008977224119007587,-0.011228547431528568,-0.011169373989105225,-0.0033414363861083984,-0.02108144760131836
0.029089000076055527,-0.0018773950869217515,-0.01127906609326601,-0.006393611431121826,-0.006410449743270874,-0.01613098382949829
0.01914258301258087,-0.008400864899158478,-0.0018039552960544825,0.0016181468963623047,0.0022884011268615723,-0.0019863247871398926
-0.0031698839738965034,0.0027877658139914274,-0.004855857230722904,0.0023044943809509277,0.0013245046138763428,0.008085131645202637
-0.023203862830996513,0.0043191383592784405,-0.014987031929194927,-0.003478705883026123,-0.00011911988258361816,0.009629547595977783
-0.030519146472215652,0.00961259938776493,-0.018926169723272324,-0.0028905272483825684,-0.0010492801666259766,0.004454374313354492
-0.02089204266667366,0.016570962965488434,-0.019109247252345085,-0.00040411949157714844,0.001476585865020752,-0.00332564115524292
-0.011648979969322681,0.016976723447442055,-0.010021660476922989,0.002887129783630371,0.003707200288772583,-0.009666800498962402
0.010391495190560818,0.010997554287314415,-0.0002609665971249342,0.0035595297813415527,0.002962052822113037,-0.008988618850708008
0.011972501873970032,0.006231189705431461,-0.0043396553955972195,-0.00419241189956665,0.004619598388671875,-0.00535815954208374
-0.00506123062223196,0.007874731905758381,-0.01462392695248127,-0.007912635803222656,-0.0004982054233551025,0.0011804699897766113
-0.011200408451259136,0.01925686001777649,-0.00933910347521305,-0.007329285144805908,-0.0002893209457397461,0.0011365413665771484
0.012774081900715828,0.02000766061246395,0.005220953840762377,0.002272307872772217,0.005136549472808838,-0.009144783020019531
0.024601461365818977,0.008814921602606773,0.013953737914562225,0.004678785800933838,-7.230043411254883e-05,-0.007399141788482666
0.012227937579154968,-0.0010280695278197527,0.01702772080898285,0.004423737525939941,-0.0019316673278808594,0.0041877031326293945
0.0010060793720185757,-0.0021681077778339386,0.007703205570578575,-0.0014216303825378418,-0.005108892917633057,0.0031949281692504883
-0.007767367176711559,-0.006825493648648262,0.004250115714967251,-0.0024601221084594727,-0.003749072551727295,0.004533827304840088
-0.01222488284111023,-0.009044228121638298,-0.0078095002099871635,-0.003942966461181641,-0.002959132194519043,0.0007696151733398438
-0.014147446490824223,0.0020311670377850533,-0.011018157005310059,-0.0043261051177978516,0.00037020444869995117,-0.0044196248054504395
-0.0003037620335817337,0.002990857930853963,-0.011174924671649933,-0.002799689769744873,0.0026396214962005615,-0.009610295295715332
0.014740107581019402,-0.005438005551695824,-0.0048749009147286415,-0.003056049346923828,0.0037314295768737793,-0.008443713188171387
0.014162487350404263,-0.012614088132977486,-0.005424453876912594,-0.0024794340133666992,0.0028168857097625732,-0.0034797191619873047
0.011435995809733868,-0.008001345209777355,-0.01076052337884903,-0.005106687545776367,0.0006425380706787109,0.001743316650390625
0.007079963572323322,-0.0012493230169638991,-0.010390831157565117,-0.0036808252334594727,0.0035797953605651855,0.002599954605102539
-0.011446567252278328,0.00629610987380147,-0.010591831058263779,0.0006629824638366699,0.001162886619567871,0.008092343807220459
-0.019210118800401688,-0.0027429861947894096,-0.0024798528756946325,0.0008893609046936035,0.005903959274291992,0.00606304407119751
-0.018009886145591736,0.004851402249187231,0.005177161656320095,0.0036606192588806152,0.0028679966926574707,0.0016537904739379883
-0.006137262098491192,-0.0003967869561165571,0.0037786667235195637,-0.0027601122856140137,0.0016298294067382812,-0.007180392742156982
-0.006464858539402485,7.922679651528597e-05,-0.0007381353061646223,-0.0020912885665893555,-0.0039567649364471436,-0.005233466625213623
-0.0011245612986385822,-0.0077635133638978004,-0.003379331436008215,-0.004092574119567871,-0.0012453198432922363,-0.007662534713745117
0.0010419725440442562,-0.01446734182536602,-0.0016705405432730913,0.003214418888092041,-0.0007174015045166016,-0.005201816558837891
-0.0007647532038390636,-0.0093159731477499,0.001007497077807784,0.0008798837661743164,0.0016865730285644531,-0.007209897041320801
0.010665882378816605,-0.001836442737840116,0.005023463629186153,0.005135476589202881,0.0010479390621185303,-0.004803001880645752
-0.001734650693833828,0.005495187360793352,0.003390783444046974,0.004179716110229492,0.00019878149032592773,0.0007074475288391113
-0.031561098992824554,0.012117300182580948,-0.004215795546770096,-0.0018426179885864258,0.0001150369644165039,0.010772705078125
-0.04460819065570831,0.00821683369576931,-0.001628534635528922,-0.004155874252319336,0.006604433059692383,0.007527828216552734
-0.0294477716088295,-0.0003962573828175664,0.002471460262313485,-0.0016107559204101562,0.002937883138656616,-0.004942536354064941
0.0059625436551868916,-0.005391012877225876,0.0023853008169680834,-0.006582379341125488,0.00027635693550109863,-0.014321744441986084
0.029814936220645905,-0.002341108862310648,0.003207314759492874,-0.005439162254333496,-0.003373265266418457,-0.01645529270172119
0.030397018417716026,0.0026710154488682747,0.012739589437842369,-0.00036984682083129883,-0.0042147040367126465,-0.0036436915397644043
0.013569077476859093,0.015797622501850128,0.010438180528581142,-0.002332329750061035,0.0009079575538635254,0.005225419998168945
-0.006126330234110355,0.02061288431286812,0.004186409525573254,-0.0013521313667297363,-6.99162483215332e-05,0.009324193000793457
-0.022243836894631386,0.012881143018603325,-0.0001975824125111103,0.0004137754440307617,-0.00283658504486084,0.0076427459716796875
-0.026143237948417664,0.021243467926979065,-0.004366494715213776,-0.003261387348175049,-0.004487037658691406,0.001139819622039795
-0.011208878830075264,0.015120850875973701,-0.01030226144939661,-0.002279937267303467,-0.004990339279174805,-0.010589063167572021
0.0029291603714227676,0.010733303613960743,-0.005707663018256426,0.0014762282371520996,-0.0021171271800994873,-0.01242685317993164
0.012369899079203606,0.007310186512768269,-0.00022070598788559437,0.0016542673110961914,-0.0001971125602722168,-0.010575413703918457
0.017732424661517143,-0.00166296714451164,0.004834970459342003,-0.0022205710411071777,0.002818197011947632,-0.005690455436706543
0.00973181426525116,0.002611363073810935,0.009054169058799744,-0.00185471773147583,0.0003299713134765625,0.0015544891357421875
0.008002188056707382,-0.005093755200505257,0.01587398163974285,-0.002463996410369873,7.298588752746582e-05,0.0034282803535461426
0.01988452672958374,-0.006352090742439032,0.02269817888736725,0.000500023365020752,-0.0036777257919311523,-8.165836334228516e-05
0.026569649577140808,-0.009067131206393242,0.02197449281811714,-0.00513380765914917,-0.0028822124004364014,-0.0022205114364624023
0.014545168727636337,-0.004471105057746172,0.016876254230737686,-0.004886925220489502,-0.0026088356971740723,0.0016793012619018555
0.014661028981208801,-1.91050348803401e-05,0.013452241197228432,-0.004150509834289551,3.8117170333862305e-05,-6.23464584350586e-05
0.00795024074614048,0.0004904612433165312,0.01265708077698946,-0.0016259551048278809,0.0038489699363708496,-0.0005835890769958496
0.0072661894373595715,-0.002769504440948367,0.005435500293970108,0.002492189407348633,0.003148376941680908,-0.0017336606979370117
0.0015495596453547478,0.006131683010607958,-0.0006300571840256453,-0.002993762493133545,0.005363672971725464,5.7816505432128906e-05
-0.0004466795362532139,0.0054454319179058075,-0.0054981401190161705,-0.004513800144195557,0.004615724086761475,-0.0022712349891662598
-0.006237647496163845,0.00021670304704457521,-0.005399049259722233,-0.002881646156311035,0.0026677846908569336,0.0049405694007873535
-0.012325875461101532,0.02072356641292572,-0.005448027513921261,-0.005581200122833252,0.007138758897781372,0.0016379952430725098
-0.004285359755158424,0.008005262352526188,0.0006673443131148815,-0.00011157989501953125,0.001865297555923462,-0.001425325870513916
-0.015827886760234833,0.007391208317130804,0.0013309901114553213,-0.0005338191986083984,0.0005291402339935303,0.006048023700714111
-0.0295257568359375,0.008744568563997746,-0.0010592087637633085,-0.004016458988189697,-0.0012388527393341064,0.004905581474304199
-0.03029545582830906,0.0021712961606681347,-0.00040155788883566856,-0.0010688304901123047,-0.004031836986541748,0.0019374489784240723
-0.01766005903482437,-4.0299841202795506e-05,4.1407300159335136e-05,-0.002886056900024414,4.979968070983887e-05,-0.007553577423095703
-0.0036546229384839535,-0.010379759594798088,-0.00020985561423003674,0.0009711384773254395,-0.00026300549507141113,-0.01251453161239624
0.006024202797561884,-0.006228846497833729,-0.0011451125610619783,0.0002084970474243164,0.0016590356826782227,-0.013024091720581055
0.004963842686265707,-0.00826685968786478,-0.005823162384331226,-0.0011896491050720215,0.0022676289081573486,-0.00834345817565918
-0.00034939032047986984,-0.005135096609592438,-0.005884853191673756,-0.0005789399147033691,-0.00024136900901794434,-0.0040743350982666016
-0.0011697662994265556,-0.0019652326591312885,-0.011748673394322395,-0.00308382511138916,-2.6106834411621094e-05,0.00037980079650878906
-0.0009663007222115993,0.015047307126224041,-0.008222115226089954,-0.00021225214004516602,-0.0006423294544219971,0.0027562975883483887
-0.02496030554175377,0.018942438066005707,-0.015607580542564392,-0.00040137767791748047,0.0008488297462463379,0.0077478885650634766
-0.042256955057382584,0.013446435332298279,-0.012410782277584076,-0.0014610886573791504,0.00507238507270813,0.010169506072998047
-0.03376563638448715,0.0020320680923759937,-0.004387221299111843,0.00021535158157348633,0.005435734987258911,-0.0020393729209899902
-0.012664491310715675,-0.0029330323450267315,0.002194585744291544,-0.0015839934349060059,0.0011458992958068848,-0.011922717094421387
0.017023378983139992,-0.005108668934553862,0.0077260397374629974,-0.0005115270614624023,2.8252601623535156e-05,-0.016306698322296143
0.03163444995880127,-0.005458015017211437,0.013895529322326183,0.0013384222984313965,-0.00191575288772583,-0.012290716171264648
0.024520346894860268,-0.003949068021029234,0.010377493686974049,-0.0032241344451904297,-0.004730880260467529,-0.0010291337966918945
-0.006007608957588673,0.0055531891994178295,-0.0075327265076339245,-0.0059084296226501465,-0.0057656168937683105,0.008955419063568115
-0.022015169262886047,0.006329561583697796,-0.008972687646746635,-0.0030279159545898438,-0.005434542894363403,0.008168637752532959
-0.028548087924718857,0.012005063705146313,-0.005025162361562252,0.00015407800674438477,0.002485513687133789,0.002200901508331299
-0.005297427531331778,0.00847819447517395,0.0027721310034394264,0.003985345363616943,0.0027907490730285645,-0.011975884437561035
0.018485959619283676,-0.0072846305556595325,0.006894253194332123,0.003937780857086182,0.0024434030055999756,-0.01463472843170166
0.030546532943844795,0.0008391309529542923,0.009651713073253632,0.0006786584854125977,0.0007209479808807373,-0.013100087642669678
0.023861872032284737,-0.012734205462038517,0.006054720841348171,-0.004550158977508545,0.0010119080543518066,-0.00016605854034423828
0.006721362937241793,-0.015410944819450378,0.0012968441005796194,-0.0071111321449279785,0.0009210109710693359,0.007027149200439453
-0.009600229561328888,-0.010767626576125622,-0.0007276195101439953,-0.005268692970275879,0.0013777315616607666,0.009480416774749756
-0.0013914934825152159,-0.01138855330646038,0.004175547044724226,-0.002007126808166504,0.0035950541496276855,-8.434057235717773e-05
0.008019848726689816,-0.006879992783069611,0.004888951778411865,-0.0008972287178039551,0.0025607645511627197,-0.0032392144203186035
0.008602018468081951,-0.002273618709295988,-0.004560153931379318,-0.0033668875694274902,0.0020168423652648926,-0.0023802518844604492
0.0009614927694201469,-0.0014313156716525555,-0.004412105306982994,-0.0019124746322631836,0.0038612782955169678,0.00026530027389526367
-0.007615202106535435,-0.004912702366709709,-0.006495426408946514,0.00101548433303833,0.00562894344329834,0.0043236613273620605
-0.022505398839712143,0.009149368852376938,-0.007284081541001797,0.0004976391792297363,0.005693286657333374,0.0037621259689331055
-0.025226999074220657,0.007676365785300732,-0.008525761775672436,0.002158224582672119,0.0076705217361450195,0.0003597736358642578
-0.020032603293657303,0.007423254195600748,-0.007006206549704075,-0.0006911754608154297,0.006164610385894775,-0.002935171127319336
-0.008626379072666168,0.0019960603676736355,-0.006983826868236065,-0.0024170875549316406,0.003268420696258545,-0.0044634342193603516
-0.005530287511646748,0.0021922248415648937,-0.0060104867443442345,-0.0028191208839416504,0.0015085041522979736,-0.005020260810852051
-0.007526072673499584,0.004585081245750189,-0.012972002848982811,-0.004699051380157471,-0.0025669336318969727,-0.002432584762573242
-0.008892377838492393,0.0011218886356800795,-0.006905954331159592,-0.002960681915283203,-1.2040138244628906e-05,2.0742416381835938e-05
-0.015069209039211273,0.0036649592220783234,0.0013036058517172933,0.0015402436256408691,-0.00034618377685546875,0.0028280019760131836
-0.020458145067095757,0.0007851239060983062,0.0031296543311327696,0.0008069872856140137,0.0010452568531036377,0.002464771270751953
-0.011089774779975414,-0.0041463617235422134,0.0002653789706528187,-0.0011040568351745605,0.0009296536445617676,-0.003556489944458008
-0.003708390984684229,-0.003758715931326151,-0.004061504267156124,-0.003352046012878418,-0.0019437074661254883,-0.0072776079177856445
0.0026318244636058807,0.001776024466380477,-0.0029415637254714966,-0.0012679696083068848,0.0017960667610168457,-0.008468091487884521
0.005365070421248674,-0.009319177828729153,-0.0012955812271684408,8.720159530639648e-05,0.0016823410987854004,-0.005820512771606445
0.0054613929241895676,-0.0042481981217861176,0.0024653582368046045,0.0013703107833862305,0.0038397908210754395,-0.0031656622886657715
0.011180797591805458,0.009040175937116146,-0.0017871775198727846,-0.0027425289154052734,0.0018850266933441162,-0.004222869873046875
0.005947980564087629,0.010958344675600529,-0.007544318214058876,-0.001154184341430664,-0.002899736166000366,0.0029987096786499023
-0.03142811357975006,0.009571523405611515,-0.013339795172214508,-0.0050713419914245605,-0.0013614892959594727,0.016200721263885498
-0.055807895958423615,0.006935794837772846,-0.014466185122728348,-0.00661468505859375,0.0019531846046447754,0.014682948589324951
-0.0430106520652771,-0.004282829351723194,-0.004203843884170055,-4.8160552978515625e-05,0.0032215118408203125,-0.002047717571258545
0.0032627657055854797,-0.019957616925239563,0.006157221272587776,-0.0009274482727050781,-0.0008918344974517822,-0.0182797908782959
0.03365679830312729,-0.007253304589539766,0.00974163506180048,-1.895427703857422e-05,0.00011473894119262695,-0.022857606410980225
0.04490405693650246,-0.008687633089721203,0.01088443212211132,-0.003457367420196533,-0.004407286643981934,-0.012623608112335205
0.031122755259275436,-0.012732988223433495,0.00540953129529953,-0.003686368465423584,-0.0024868547916412354,0.0033625364303588867
-0.0070412540808320045,0.0020519797690212727,-0.007215241901576519,-0.005823016166687012,-0.0019189417362213135,0.012935817241668701
-0.02945229969918728,0.009549317881464958,-0.012780996039509773,-0.0025197863578796387,0.0022752583026885986,0.0131911039352417
-0.029135338962078094,0.002077078213915229,-0.008215655572712421,0.0023940205574035645,0.0019693374633789062,0.002254009246826172
-0.020436126738786697,0.005720110610127449,-0.0046111224219202995,0.0005549788475036621,0.0021255910396575928,-0.005044341087341309
-0.002291284268721938,0.006251991726458073,-0.0007790634408593178,0.0016158223152160645,0.000666499137878418,-0.009741425514221191
0.020101994276046753,0.0017977069364860654,0.003855933900922537,-0.0007418394088745117,-0.0001195371150970459,-0.01307976245880127
0.020053774118423462,-0.00687744002789259,0.004661205690354109,-0.004197478294372559,0.0023244917392730713,-0.005649745464324951
-0.0006370954215526581,-0.008005130104720592,0.005099110305309296,-0.004090726375579834,-0.00048232078552246094,0.0061740875244140625
-0.0016770430374890566,-0.005397995002567768,-0.0015454082749783993,-0.00462949275970459,-0.0013201534748077393,0.0032016634941101074
0.00817965343594551,-0.009340854361653328,0.0006133144488558173,-0.0029694437980651855,0.004984438419342041,-0.007195949554443359
0.015304991975426674,-0.005625599063932896,0.007628454826772213,0.002175271511077881,0.002091705799102783,-0.004453420639038086
0.018359515815973282,0.0011845399858430028,0.009484339505434036,-0.0005701780319213867,0.00295180082321167,-0.00233304500579834
0.01066603697836399,0.005628027021884918,0.004120327532291412,0.00012302398681640625,0.002056032419204712,0.0009757876396179199
-0.004909854382276535,0.007987052202224731,-0.003674605395644903,-0.0008440613746643066,0.004255056381225586,0.005746364593505859
-0.02879663184285164,0.012336408719420433,-0.003699936904013157,-0.0010169148445129395,0.0029091238975524902,0.010351896286010742
-0.034950677305459976,0.01919352449476719,-0.01727062091231346,-0.0064353346824646,0.001073598861694336,0.003702998161315918
-0.018147028982639313,0.009622810408473015,-0.010896390303969383,-0.00515294075012207,0.0021284818649291992,-0.0050553083419799805
-0.0039507001638412476,-0.0007132398313842714,-0.00657010730355978,-0.002483069896697998,0.000554502010345459,-0.007343471050262451
-0.001727926079183817,-0.0029251500964164734,-0.008386604487895966,-0.003382265567779541,-0.002133607864379883,-0.006034493446350098
0.002250892575830221,0.0009929443476721644,-0.0015727439895272255,-0.0028333663940429688,-0.0012958943843841553,-0.003241121768951416
0.013204207643866539,0.0016270430060103536,-0.0040071397088468075,-0.0010604262351989746,0.0006597936153411865,-0.00472646951675415
0.009138526394963264,0.00032517826184630394,-0.0014699907042086124,-0.0007535815238952637,0.001345217227935791,-0.0022553205490112305
-0.0025094759184867144,-0.008715011179447174,0.0037555783055722713,0.0005121231079101562,-0.0009219944477081299,0.002239823341369629
-0.0005757701583206654,-0.00750769954174757,0.0009578594472259283,-0.0009149909019470215,0.0005560517311096191,-0.0011281371116638184
0.007832484319806099,-0.001156763406470418,-0.00023463182151317596,-0.0017737746238708496,0.0002365410327911377,-0.005913794040679932
0.011659234762191772,-0.0014717639423906803,-0.0021873649675399065,-0.0014737248420715332,0.003497570753097534,-0.007594704627990723
0.004222091753035784,-0.0040270667523145676,-0.004297920502722263,0.0009461641311645508,0.00215265154838562,-0.003125786781311035
-0.00028086407110095024,-0.0028038211166858673,-0.00614799652248621,-0.0007463693618774414,0.0023090243339538574,0.0028051137924194336
0.008596068248152733,0.005305448547005653,-0.0032688749488443136,-0.0016235709190368652,0.0017997026443481445,7.82012939453125e-05
0.0042760432697832584,0.0023753356654196978,0.0006325970171019435,0.0018726587295532227,0.0005265474319458008,0.0016112923622131348
-0.027133695781230927,0.005531991366297007,-0.0059279873967170715,-0.0018798112869262695,0.0022034049034118652,0.01140505075454712
-0.03590851649641991,0.0050575751811265945,-0.011061415076255798,-0.006854414939880371,0.0036001205444335938,0.0057828426361083984
-0.016713351011276245,-0.0008622098248451948,-0.0004740641452372074,-0.0024460554122924805,0.003402233123779297,-0.00855177640914917
0.014923561364412308,-0.0039278785698115826,-0.0017913216724991798,-0.0029746294021606445,-0.001991868019104004,-0.017399847507476807
0.04051043093204498,-0.01062050275504589,0.005779580678790808,-0.0024240612983703613,-0.002855360507965088,-0.016470909118652344
0.03809897601604462,-0.012362590059638023,0.009079065173864365,0.0015667080879211426,-0.004519462585449219,-0.004692196846008301
0.02074638195335865,-0.007173091173171997,-0.001538288313895464,-0.0034033656120300293,-0.0026304423809051514,0.00612485408782959
-0.005951699800789356,0.008546416647732258,-0.005327165126800537,-0.0020890235900878906,-0.00012359023094177246,0.00981748104095459
-0.016687728464603424,0.004732077941298485,6.93832989782095e-05,0.0035030245780944824,0.002133876085281372,0.0032958984375
-0.017455024644732475,0.003699684049934149,0.002307675778865814,0.005198538303375244,0.004050552845001221,-0.0008422136306762695
0.0024135722778737545,0.005302852485328913,0.0011110949562862515,0.0003879070281982422,0.0030107200145721436,-0.009091436862945557
0.014622567221522331,-0.0005939190741628408,-0.0014988030306994915,-0.0033711791038513184,0.0019837617874145508,-0.011124849319458008
0.0190898384898901,-0.0030265054665505886,-0.0012239874340593815,-0.0035567283630371094,-0.0006949007511138916,-0.004343628883361816
0.00714585417881608,-0.010336190462112427,0.00014043133705854416,-0.007012784481048584,0.0002669095993041992,0.004204928874969482
-0.006671281531453133,-0.00861535407602787,-0.0043835509568452835,-0.0068198442459106445,-0.0008012056350708008,0.006926178932189941
-0.003043288830667734,-0.002747942693531513,-0.007059100084006786,-0.007884204387664795,0.0006720423698425293,0.0028598904609680176
0.008028674870729446,-0.002981505822390318,-0.0004817505832761526,-0.0022886991500854492,0.0009026527404785156,-0.0049391984939575195
0.016381513327360153,0.00022851338144391775,-0.003878034884110093,-0.0002499222755432129,0.0011486709117889404,-0.005570471286773682
0.00639336695894599,0.002518983092159033,-0.00520925410091877,0.002479076385498047,0.00047957897186279297,-0.0005571842193603516
-0.0036421336699277163,0.0035657240077853203,-0.005626539699733257,0.0024963021278381348,0.004250198602676392,0.0028572678565979004
-0.014719314873218536,0.00997126568108797,-0.005538203753530979,0.003912925720214844,0.006254702806472778,0.00420147180557251
-0.02340799942612648,0.0002884470159187913,-0.007507682777941227,0.0034856796264648438,0.007200181484222412,0.0022699832916259766
-0.017312979325652122,0.004317381419241428,-0.011156421154737473,-0.0038587450981140137,0.0019395053386688232,-7.230043411254883e-05
0.00018795207142829895,0.0046273088082671165,-0.016319628804922104,-0.0066106319427490234,0.0015463829040527344,-0.00925058126449585
0.007794811390340328,0.006776430644094944,-0.0144354784861207,-0.006105482578277588,0.00026425719261169434,-0.007197439670562744
0.003216520417481661,0.005960735492408276,-0.016975803300738335,-0.0077432990074157715,-0.0008093416690826416,-0.0022931694984436035
-0.004656531848013401,0.003934571985155344,-0.020007874816656113,-0.005451798439025879,-0.0010289549827575684,0.0039288997650146484
-0.02273733727633953,0.006509098224341869,-0.020767640322446823,-0.004198729991912842,-0.0024225711822509766,0.007635951042175293
-0.022006860002875328,0.008435736410319805,-0.019579952582716942,-0.0011290311813354492,-0.00021693110466003418,0.0018337368965148926
-0.015075374394655228,0.012718399055302143,-0.01132422685623169,0.003538668155670166,0.0036886632442474365,-0.005068480968475342
0.0005049123428761959,0.0034108355175703764,-0.006407460197806358,0.004945337772369385,0.003545224666595459,-0.012498199939727783
0.008868363685905933,-0.0019174842163920403,-0.0010269517078995705,0.0036006569862365723,0.003060579299926758,-0.008676528930664062
0.005986180622130632,-0.001774308388121426,-0.007119790650904179,0.0011658072471618652,-0.00012224912643432617,-0.003998160362243652
-0.0021249474957585335,0.006711816880851984,-0.0169793963432312,-0.006009817123413086,0.0040934085845947266,-1.6689300537109375e-05
-0.006427423097193241,0.007793330121785402,-0.01617845892906189,-0.0014429688453674316,0.0009351670742034912,0.00014925003051757812
0.005312073510140181,0.0014280079631134868,-0.014848674647510052,-0.00026476383209228516,0.003727436065673828,-0.0012164115905761719
0.014076603576540947,0.003932223655283451,-0.0066185323521494865,0.0022050142288208008,-0.0021059513092041016,0.000996708869934082
-0.013571441173553467,0.012977851554751396,-0.01565944030880928,-0.004249393939971924,-0.0013537406921386719,0.008627712726593018
-0.034455738961696625,0.006369965150952339,-0.018860988318920135,-0.005628407001495361,0.002815842628479004,0.009202957153320312
-0.01633291319012642,-0.03453069552779198,-0.0047861142084002495,0.005732059478759766,0.006434023380279541,0.003776729106903076
-0.004929911345243454,-0.011643053032457829,0.002670132089406252,0.003612697124481201,0.006012529134750366,-0.013645052909851074
0.009610094130039215,0.007515942677855492,-0.005350138992071152,-0.004976034164428711,-0.001002192497253418,-0.020394980907440186
0.033201828598976135,-0.0023384555242955685,-0.0010029904078692198,-0.0026523470878601074,-0.00923261046409607,-0.014568030834197998
0.03573693335056305,-0.011494611389935017,0.0031839145813137293,-0.002930164337158203,-0.0015363097190856934,-0.004812180995941162
0.0202061515301466,-0.006374310236424208,-0.0006061112508177757,-0.00224226713180542,-0.002837955951690674,0.003770589828491211
0.0015305629931390285,-0.0021026625763624907,-0.006277055479586124,-0.002121865749359131,-0.00033798813819885254,0.010612964630126953
-0.017865294590592384,0.004615642596036196,-0.012383047491312027,-0.0032881498336791992,-0.00018221139907836914,0.010762155055999756
-0.019303346052765846,0.011730595491826534,-0.01806766912341118,-0.006857097148895264,0.0035836994647979736,0.0012500882148742676
-0.007235903292894363,0.005887623410671949,-0.011184070259332657,0.000558316707611084,0.0024020373821258545,-0.0040070414543151855
0.004057791084051132,0.003406515810638666,-0.013786430470645428,-0.003275573253631592,0.0035243332386016846,-0.007653236389160156
0.006867382675409317,0.0044663939625024796,-0.01780981570482254,-0.004982113838195801,0.002322763204574585,-0.00363236665725708
-0.01650501787662506,0.009801038540899754,-0.03017766773700714,-0.009558916091918945,0.000675886869430542,0.003972113132476807
-0.023089544847607613,0.015890086069703102,-0.029719196259975433,-0.0021039247512817383,0.0029433369636535645,0.006047487258911133
-0.019746607169508934,0.011674565263092518,-0.014152881689369678,0.0047866106033325195,0.003042936325073242,-0.002464592456817627
-0.0077860732562839985,0.005968734156340361,-0.011651892215013504,0.004585385322570801,0.001592397689819336,-0.0066672563552856445
0.0032656677067279816,0.003213325049728155,-0.014757995493710041,0.0015783905982971191,-0.0012795627117156982,-0.006344854831695557
0.0003034505061805248,0.006465743761509657,-0.013091588392853737,0.0009264945983886719,-0.0012267231941223145,-0.003924727439880371
-0.004670341499149799,0.002968528773635626,-0.015306503511965275,0.0026851296424865723,0.0004341006278991699,-0.0025914907455444336
0.013821236789226532,-0.03817441686987877,-0.014952225610613823,0.006007373332977295,0.0031380653381347656,0.0026252269744873047
0.009158948436379433,-0.020469525828957558,-0.01080115232616663,0.0014904141426086426,0.007354795932769775,-0.0016235709190368652
-0.012378844432532787,0.0036837542429566383,-0.007343584671616554,-0.00175553560256958,0.0037250518798828125,0.0004832744598388672
-0.010223764926195145,0.014890745282173157,-0.013977941125631332,-0.007193505764007568,-0.0018631517887115479,-0.0025668740272521973
0.006599640008062124,0.007166103459894657,-0.018851900473237038,-0.011142551898956299,-0.0017136335372924805,-0.007917821407318115
0.010638720355927944,0.004298584535717964,-0.021568676456809044,-0.009580612182617188,-0.002297043800354004,-0.005785167217254639
-0.0008846302516758442,0.0055314479395747185,-0.02105645276606083,-0.006449997425079346,-0.0017587542533874512,0.0025857090950012207
-0.014551550149917603,0.014350933954119682,-0.027215605601668358,-0.005795776844024658,-0.00010412931442260742,0.007968008518218994
-0.020306164398789406,0.020931821316480637,-0.030716758221387863,-0.00451737642288208,-0.0006622076034545898,0.00319516658782959
-0.026180073618888855,0.015980852767825127,-0.02528293989598751,0.0016464591026306152,0.002991586923599243,0.00366818904876709
-0.010485004633665085,-0.011639764532446861,-0.02829849161207676,0.0042403340339660645,0.00439104437828064,-0.0048941969871521
0.009704492054879665,-0.02715165913105011,-0.020169226452708244,0.007261872291564941,0.0035224556922912598,-0.0029918551445007324
0.0041262186132371426,-0.0006749461172148585,-0.016546595841646194,0.004506886005401611,0.008458077907562256,-0.00879669189453125
-0.014837702736258507,0.013960511423647404,-0.028064213693141937,-0.0030338168144226074,0.0027892589569091797,-0.0014699697494506836
-0.017632506787776947,0.004338033497333527,-0.03640095144510269,-0.007638514041900635,-5.879998207092285e-05,0.00040847063064575195
-0.015036696568131447,0.00908873975276947,-0.04322708398103714,-0.006722688674926758,0.0038123130798339844,-0.003850400447845459
-0.012333981692790985,0.014652611687779427,-0.04738999903202057,-0.003321349620819092,0.0014636516571044922,-0.0036340951919555664
-0.03790697827935219,0.0257747620344162,-0.041479360312223434,-0.0009429454803466797,0.005213797092437744,0.004251837730407715
-0.045949164777994156,0.02842974290251732,-0.036841344088315964,0.004173576831817627,0.010188013315200806,0.003384411334991455
-0.02784307673573494,0.02255113236606121,-0.015592354349792004,0.008234739303588867,0.009350419044494629,-0.003578364849090576
-0.009402384981513023,0.013700006529688835,0.0015833904035389423,0.007739901542663574,0.0027823448181152344,-0.008119821548461914
-0.0018710822332650423,0.0071171922609210014,0.011338437907397747,0.004051029682159424,-0.004128158092498779,-0.007758438587188721
0.007806651294231415,0.0003876036498695612,0.011569296941161156,-0.0027348995208740234,-0.009865611791610718,-0.005079329013824463
0.00346559239551425,-0.013975553214550018,0.015588801354169846,-0.002192556858062744,-0.006604313850402832,-0.0009899139404296875
-0.006751430220901966,0.00453160097822547,0.0014570396160706878,-0.008029699325561523,-0.00256386399269104,0.0035455822944641113
-0.013556971214711666,0.01775648258626461,-0.012056950479745865,-0.01222306489944458,-0.002095460891723633,-0.0005559921264648438
-0.028734469786286354,0.017016485333442688,-0.018605057150125504,-0.006645798683166504,-0.0020248591899871826,0.0044291019439697266
-0.03287975490093231,0.023553792387247086,-0.03394216671586037,-0.00902104377746582,-0.002521008253097534,0.001039266586303711
-0.019402261823415756,0.00024933810345828533,-0.04185747727751732,-0.00983494520187378,-0.005659610033035278,-0.002587556838989258
-0.002678491175174713,-0.018725361675024033,-0.03392976149916649,0.0006949901580810547,-0.001974344253540039,0.0013164281845092773
-0.016881510615348816,-0.0017290811520069838,-0.0233206357806921,0.004476308822631836,0.004246830940246582,0.0008933544158935547
-0.035644758492708206,0.017880622297525406,-0.017294805496931076,-0.0001946091651916504,-0.00023755431175231934,0.0020470619201660156
-0.0340530090034008,0.01147973258048296,-0.01745275780558586,-0.002871394157409668,-0.0022829174995422363,-0.001550436019897461
-0.018377676606178284,0.013621912337839603,-0.012011522427201271,-0.005464911460876465,-0.005282074213027954,-0.008361876010894775
-0.004017323721200228,0.02038133144378662,-0.0074261948466300964,-0.004023909568786621,-0.005136460065841675,-0.008421540260314941
-0.006114569492638111,0.014264232479035854,-0.007029609754681587,-0.0048010945320129395,-0.006467074155807495,-0.004644274711608887
-0.006780547089874744,0.006951763294637203,-0.0007843081839382648,-0.0038129687309265137,-0.007484257221221924,0.0009245872497558594
-0.016019748523831367,0.001399888307787478,-0.0022289729677140713,-0.0023688077926635742,-0.004464507102966309,0.005545258522033691
-0.019122866913676262,-0.015912162140011787,0.0057229045778512955,0.00026297569274902344,-0.002947896718978882,0.004424870014190674
-0.004785683937370777,-0.020952409133315086,0.003042062744498253,0.0013989806175231934,0.0022202134132385254,-0.002404332160949707
-0.006975601427257061,0.008877924643456936,0.003625561250373721,-0.0003083944320678711,0.003389328718185425,-0.009768426418304443
-0.007354330271482468,0.01749575510621071,-0.010873301886022091,-0.006769537925720215,-0.004948318004608154,-0.009056508541107178
0.002617187798023224,0.004968347959220409,-0.013564634136855602,-0.008351445198059082,-0.0032963454723358154,-0.006047487258911133
0.005304400343447924,9.124528151005507e-05,-0.013802475295960903,-0.0037963390350341797,-0.0032790303230285645,-0.0033456087112426758
-0.003979684319347143,-0.000980827957391739,-0.01028879638761282,-0.0043541789054870605,-4.363059997558594e-05,0.002531588077545166
-0.013187363743782043,-0.0003438452258706093,-0.0011822925880551338,-0.0004407167434692383,0.00013583898544311523,0.006230652332305908
-0.02457638829946518,0.006161026656627655,0.0005433675833046436,-0.0033901333808898926,-0.00013947486877441406,0.006437182426452637
-0.018788762390613556,0.004242544062435627,0.00097867741715163,-0.0019370317459106445,-0.0028933286666870117,0.001255035400390625
-0.009753772988915443,0.004256158601492643,0.0058832187205553055,-0.000831902027130127,-0.0015076696872711182,-0.006753265857696533
0.0019955672323703766,-0.005513206124305725,0.011322511360049248,-0.0012292265892028809,-0.002428680658340454,-0.008701920509338379
0.011632105335593224,-0.013398664072155952,0.013528881594538689,-0.0011028647422790527,-0.004399597644805908,-0.0068776607513427734
0.004979528486728668,-0.012692127376794815,0.004994516260921955,-0.006052136421203613,-0.0035890042781829834,-0.0044106245040893555
0.016004731878638268,-0.010976684279739857,0.004325995221734047,-0.00371551513671875,-0.0012679100036621094,-0.00499957799911499
0.020991601049900055,-0.0024379470851272345,0.007916780188679695,-0.0004942417144775391,-0.0001697242259979248,-0.002949059009552002
0.0072928606532514095,0.0026310067623853683,0.005942127667367458,0.0005256533622741699,-0.0034061074256896973,0.005229532718658447
-0.028740257024765015,0.009473565965890884,-0.0020665975753217936,-0.004630982875823975,-0.001153707504272461,0.013289332389831543
-0.03716893494129181,-0.0023409007117152214,-0.0042739203199744225,-0.006511270999908447,0.0022038519382476807,0.009047865867614746
-0.02205449901521206,-0.012587019242346287,0.0038034464232623577,-0.004998385906219482,0.0018817484378814697,-0.0035257339477539062
0.009932208806276321,-0.009129882790148258,0.00446827569976449,-0.005006730556488037,0.0007815361022949219,-0.01528465747833252
0.038695525377988815,-0.013344231061637402,0.009886535815894604,-0.0020294785499572754,-0.0028879940509796143,-0.01793128252029419
0.044222213327884674,-0.013717138208448887,0.01943129673600197,0.0018810629844665527,-0.0021599531173706055,-0.0076141357421875
0.027651872485876083,-0.006477322895079851,0.018560290336608887,0.0023932456970214844,-6.237626075744629e-05,0.0063256025314331055
-0.0036821095272898674,-0.007113977335393429,0.018041688948869705,0.0014078617095947266,0.0010184049606323242,0.012663483619689941
-0.023532435297966003,0.003481178544461727,0.009661445394158363,-0.0006712675094604492,0.001255333423614502,0.012748360633850098
-0.02673139050602913,0.00687384745106101,0.0006475783884525299,-0.005625724792480469,3.7550926208496094e-05,0.0007402300834655762
-0.015769220888614655,-0.0017195967957377434,-0.0017344425432384014,-0.0030403733253479004,-0.00027304887771606445,-0.006621599197387695
-0.001351437997072935,0.0038899346254765987,-0.0023774253204464912,-0.002768874168395996,-0.0001379847526550293,-0.013069510459899902
0.01873340643942356,0.001744969398714602,0.005205636844038963,-0.00013715028762817383,-0.0011208057403564453,-0.01165926456451416
0.02613590657711029,0.0006679994985461235,0.0023488386068493128,-0.0048337578773498535,0.0012431740760803223,-0.005411624908447266
0.009109331294894218,-0.0010097527410835028,-0.0034659854136407375,-0.005120456218719482,-0.0011897087097167969,0.005695462226867676
-0.008630855940282345,-0.006170378997921944,-0.003167408285662532,-0.005187094211578369,0.001166224479675293,0.010409832000732422
-0.011192895472049713,-0.00313467881642282,0.004147838801145554,-2.6166439056396484e-05,0.00024071335792541504,0.005233287811279297
0.004560358356684446,0.003993102349340916,0.006587632931768894,0.0013055801391601562,0.004964768886566162,-0.006205856800079346
0.01857067085802555,0.006592287681996822,0.011769729666411877,0.003215014934539795,0.004722386598587036,-0.010005831718444824
0.018772833049297333,-0.0008478927775286138,0.01653447188436985,0.0044078826904296875,0.004136979579925537,-0.005166530609130859
0.002839927561581135,-0.006963567342609167,0.008745777420699596,0.0017622113227844238,0.002290964126586914,0.0030030012130737305
-0.011177015490829945,0.004429387394338846,-0.005091511178761721,-0.006173670291900635,-6.636977195739746e-05,0.005444765090942383
-0.019955188035964966,0.01093095913529396,-0.010697325691580772,-0.007866501808166504,0.0032853782176971436,0.002254664897918701
-0.017158132046461105,0.011678813025355339,-0.010004053823649883,-0.003341197967529297,0.002687394618988037,0.0004292726516723633
-0.006320152897387743,0.00841885432600975,-0.011170280165970325,-0.003959834575653076,0.002565056085586548,-0.004483580589294434
-0.004039033316075802,0.009019226767122746,-0.013794220052659512,-0.006168186664581299,-0.0019018054008483887,-0.0039070844650268555
-0.005149582866579294,0.0034425752237439156,-0.0158267579972744,-0.004809081554412842,-0.0006838738918304443,-0.00038045644760131836
-0.009348844178020954,0.010174505412578583,-0.00930306501686573,-0.0010338425636291504,0.0017608404159545898,0.0013145804405212402
-0.013515875674784184,0.007048388011753559,-0.006475786678493023,0.0022674202919006348,0.0040000975131988525,0.0007944107055664062
-0.018543653190135956,0.011232825927436352,-0.004328249953687191,0.0023183822631835938,0.002366870641708374,0.00018477439880371094
-0.016386430710554123,0.0025439606979489326,-0.0005463475827127695,0.004047870635986328,0.003802359104156494,-0.003911256790161133
-0.0020391102880239487,-0.004946226719766855,0.0067714499309659,0.004178464412689209,0.002400308847427368,-0.008854687213897705
0.005075945984572172,-0.0023124641738831997,0.008313627913594246,0.0010707974433898926,0.0029637515544891357,-0.008919298648834229
0.012313508428633213,-0.001641983399167657,0.008588140830397606,0.0007582306861877441,0.00038552284240722656,-0.007776856422424316
0.011936654336750507,0.003203471191227436,0.002109401160851121,-0.0040781497955322266,0.001081019639968872,-0.004921317100524902
0.0030904319137334824,-0.003463752567768097,0.0047155702486634254,-0.0034749507904052734,0.002030402421951294,0.002457737922668457
0.0020710621029138565,-0.005624257028102875,0.004579514730721712,-0.0023076534271240234,0.0003795027732849121,0.0008406639099121094
0.005950511898845434,-0.0043970877304673195,0.00491723045706749,-0.004123866558074951,-0.0006883442401885986,0.0008143186569213867
-0.0033713309094309807,-6.591551937162876e-05,0.006608727388083935,-0.0010515451431274414,-0.0016685724258422852,0.002240777015686035
-0.033199381083250046,0.0055978200398385525,-0.0014940546825528145,-0.003468036651611328,0.002984076738357544,0.011052966117858887
-0.043217044323682785,-0.0015466978074982762,-0.003052558982744813,-0.0013846755027770996,0.009466469287872314,0.008709609508514404
-0.03105972707271576,-0.03259249031543732,0.008622725494205952,0.0027980804443359375,0.007556408643722534,-0.0035381317138671875
-0.027260594069957733,0.0007120235823094845,0.005873365327715874,-0.001591324806213379,0.008306294679641724,-0.009558022022247314
0.016481593251228333,0.006649342831224203,-0.001762316096574068,-0.007140457630157471,-0.0037387609481811523,-0.019928574562072754
0.032465070486068726,-0.0048934961669147015,0.0017862784443423152,-0.0039136409759521484,-0.00028055906295776367,-0.01312321424484253
0.009056666865944862,0.00251951115205884,0.0012290783924981952,-0.0019306540489196777,-0.0008919835090637207,0.0040708184242248535
-0.007457311265170574,0.010700643062591553,-0.004282266832888126,-0.0025501251220703125,0.0011966228485107422,0.009765148162841797
-0.02484062872827053,0.013758973218500614,-0.008662010543048382,0.0008871555328369141,0.0032305121421813965,0.0044969916343688965
-0.026361888274550438,0.01181916706264019,-0.007374322973191738,0.0002091526985168457,0.0028215646743774414,-0.0003008842468261719
-0.014423230662941933,0.001105909701436758,-0.00503135472536087,-0.00016945600509643555,0.002205073833465576,-0.005392193794250488
0.0038600065745413303,-0.005163419991731644,-0.0019952517468482256,-0.0010353326797485352,-0.0010894536972045898,-0.010524630546569824
0.013186968863010406,-0.010532199405133724,-0.0018670593854039907,-0.002934098243713379,-0.0021898746490478516,-0.006902515888214111
0.013027135282754898,-0.009519458748400211,0.00012909714132547379,-0.004089057445526123,-0.0012639164924621582,-0.0025777816772460938
0.004490333143621683,-0.01223443727940321,-0.0029293715488165617,-0.0058068037033081055,0.0012135207653045654,0.0039039254188537598
-0.006233762018382549,-0.01048113964498043,-0.002459606621414423,-0.004072785377502441,-0.0009614825248718262,0.0030591487884521484
-0.008524018339812756,-0.0018831625347957015,-0.01013142615556717,-0.0027039051055908203,-0.00026297569274902344,-0.0011469125747680664
0.006349158938974142,-0.0015790893230587244,-0.005998615175485611,-0.0008906126022338867,0.0007281303405761719,-0.007546424865722656
0.015422137454152107,-0.00992268044501543,0.0028050707187503576,0.00428396463394165,0.0017719268798828125,-0.005290627479553223
0.01501728780567646,-0.007475375197827816,0.006635118275880814,0.00490725040435791,0.0023936033248901367,-0.0041838884353637695
0.009143346920609474,-0.004984206985682249,0.0037901001051068306,0.0009949803352355957,0.005176067352294922,-0.0013321638107299805
-0.00045102881267666817,-0.0013398905284702778,-0.0033719022758305073,-0.0022658705711364746,-0.0007790327072143555,0.002426743507385254
-0.010931910946965218,-0.0013060595374554396,-0.012448236346244812,-0.007073342800140381,0.0008728504180908203,0.003197312355041504
-0.01370326243340969,-0.0019180979579687119,-0.015125954523682594,-0.007499873638153076,-0.0020675063133239746,0.0014177560806274414
-0.008221245370805264,0.0005111267091706395,-0.011042575351893902,-0.004513740539550781,8.845329284667969e-05,-0.0024641752243041992
-0.0012103626504540443,0.006550213787704706,-0.009579108096659184,-0.004229545593261719,0.0014153718948364258,-0.005638420581817627
0.012671014294028282,-0.006131969392299652,-0.0031182577367872,0.0023830533027648926,0.004382044076919556,-0.005787551403045654
0.008514131419360638,-0.009877646341919899,-0.005535726435482502,-0.0020976662635803223,0.0011448562145233154,-0.0033745169639587402
0.008191157132387161,-0.010829415172338486,-0.007248761132359505,-0.003972649574279785,0.0027908384799957275,0.00032901763916015625
0.006583883427083492,-0.013844965025782585,-0.0067815398797392845,-0.005698800086975098,0.010617673397064209,-0.002299368381500244
0.015412850305438042,-0.018947528675198555,-0.010295418091118336,-0.008713006973266602,0.013233363628387451,-0.0048961639404296875
0.004170348402112722,-0.026003243401646614,-0.01434408500790596,-0.01348656415939331,0.016598552465438843,0.0010284185409545898
-0.01404944621026516,-0.036207202821969986,-0.02644910104572773,-0.019458651542663574,0.0190410315990448,0.009508728981018066
-0.02488495036959648,-0.04516756534576416,-0.03778054192662239,-0.025192439556121826,0.027682214975357056,0.012088775634765625
-0.015193022787570953,-0.0642685666680336,-0.06281916052103043,-0.03825491666793823,0.03272205591201782,0.011540055274963379
-0.05234086513519287,-0.07987179607152939,-0.10545242577791214,-0.047090768814086914,0.0329858660697937,0.024386286735534668
-0.11120223253965378,-0.07934285700321198,-0.14016307890415192,-0.04247081279754639,0.039512842893600464,0.03710150718688965
-0.14422813057899475,-0.07614537328481674,-0.18014943599700928,-0.03544008731842041,0.047292560338974,0.0330958366394043
-0.16197644174098969,-0.05021650716662407,-0.2104688584804535,-0.02647101879119873,0.06335341930389404,0.029169797897338867
-0.20234975218772888,-0.01589268445968628,-0.2431851327419281,-0.013642728328704834,0.06556260585784912,0.036431968212127686
-0.2872704565525055,0.01604950614273548,-0.2765250504016876,-0.008402585983276367,0.06859469413757324,0.049459993839263916
