rotation_x,rotation_y,rotation_z,acceleration_x,acceleration_y,acceleration_z
-0.16228614747524261,0.519025444984436,-0.12575946748256683,-0.048600152134895325,0.007425844669342041,0.07220196723937988
-0.20290985703468323,0.2588723301887512,-0.07795759290456772,0.00670565664768219,0.022177159786224365,0.019015192985534668
-0.1770409196615219,-0.006848940160125494,0.011199010536074638,0.03895476460456848,0.014396816492080688,-0.02025371789932251
-0.08991193771362305,-0.08312081545591354,0.09740125387907028,0.054125651717185974,0.010635793209075928,-0.0370403528213501
-0.04030144587159157,0.05345020443201065,0.14360518753528595,0.03070041537284851,0.007193028926849365,-0.0189284086227417
-0.08024054765701294,0.18345022201538086,0.10689914971590042,-0.004609107971191406,0.015837162733078003,0.014109015464782715
-0.12217447906732559,0.17035998404026031,0.05011121928691864,-0.021413549780845642,0.02524387836456299,0.01336216926574707
-0.11889299005270004,0.05998852476477623,0.006672607734799385,-0.024092063307762146,0.027792304754257202,-0.009046971797943115
-0.10016990453004837,-0.04189559072256088,0.005493511911481619,-0.011591210961341858,0.027779579162597656,-0.015309154987335205
-0.0989292711019516,-0.049280811101198196,0.007908961735665798,-0.009674325585365295,0.015027821063995361,0.003863036632537842
-0.09999240934848785,0.0327594056725502,-0.0022549559362232685,-0.01136469841003418,0.005190461874008179,0.008346736431121826
-0.0660533532500267,0.07566304504871368,-0.037972282618284225,-0.005423873662948608,0.003244251012802124,-0.0012334585189819336
-0.010676178149878979,0.024475334212183952,-0.05194678157567978,0.007378339767456055,0.0044554173946380615,-0.02139335870742798
-0.00020681694149971008,-0.01863609440624714,-0.03848867490887642,0.02111959457397461,0.0034515857696533203,-0.010001003742218018
-0.04493754729628563,-0.020448412746191025,-0.00985397957265377,0.025129467248916626,-0.004271745681762695,0.02130228281021118
-0.09783890098333359,0.04142283275723457,0.04792327061295509,0.03695230185985565,-0.00800246000289917,0.037700533866882324
-0.13671326637268066,0.10926893353462219,0.11261958628892899,0.03972695767879486,-0.013000518083572388,0.02796107530593872
-0.132425919175148,0.12862904369831085,0.15350140631198883,0.03164447844028473,-0.014274686574935913,0.0025568008422851562
-0.06866830587387085,0.03656142204999924,0.1470847725868225,0.020738616585731506,-0.00011640787124633789,-0.03114175796508789
0.017728034406900406,-0.09317359328269958,0.10247159004211426,0.0077488720417022705,0.016099900007247925,-0.045346856117248535
0.0402999222278595,-0.1058579608798027,0.05988471955060959,-0.0035765618085861206,0.018770724534988403,-0.01247560977935791
-0.016810297966003418,-0.013622904196381569,0.0575704462826252,0.005349144339561462,0.011240899562835693,0.03982353210449219
-0.08909095823764801,0.08192574232816696,0.0911436453461647,0.003143593668937683,-0.0087776780128479,0.061851680278778076
-0.11658157408237457,0.11670821160078049,0.1298164427280426,-0.0034286826848983765,-0.020778775215148926,0.04265934228897095
-0.10089688748121262,0.08810456097126007,0.12925803661346436,-0.01388542354106903,-0.0114937424659729,0.012118935585021973
-0.07028058171272278,0.03821444511413574,0.08001518249511719,-0.027760758996009827,-0.0006664395332336426,-0.006563305854797363
-0.04460285231471062,0.023739460855722427,0.02158530056476593,-0.04442484676837921,0.0007439255714416504,-0.007350921630859375
-0.05389974266290665,0.05077877268195152,-0.009614607319235802,-0.037390634417533875,0.003937721252441406,0.005462706089019775
-0.09249821305274963,0.09886397421360016,-0.023964833468198776,-0.024449139833450317,0.0066634416580200195,0.017471492290496826
-0.07997435331344604,0.08748134225606918,-0.018796496093273163,-0.011972710490226746,-0.0051770806312561035,-0.005243897438049316
-0.03245390206575394,0.052443619817495346,0.007648520637303591,0.0016587674617767334,-0.01199844479560852,-0.03098618984222412
-0.0049987779930233955,0.0074185701087117195,0.0003384668380022049,-0.007099628448486328,-0.008417189121246338,-0.029281020164489746
-0.0007888597901910543,-0.023030923679471016,-0.009403830394148827,-0.0073356181383132935,0.003170698881149292,-0.014659643173217773
0.007866881787776947,-0.0171704962849617,-0.00804902333766222,-0.010884955525398254,-0.005833327770233154,-0.0023592710494995117
-0.008312355726957321,0.0056766727939248085,-0.003613642882555723,-0.011436402797698975,-0.008442878723144531,0.014069557189941406
-0.019826864823698997,0.032511208206415176,-0.005576943513005972,-0.017138004302978516,-0.005969434976577759,0.018382251262664795
-0.022979317232966423,0.04175541549921036,-0.020065966993570328,-0.01481175422668457,0.00420263409614563,0.016115546226501465
-0.008344380185008049,0.04754549264907837,-0.03045056387782097,-0.005590468645095825,0.006668567657470703,0.006237506866455078
0.033128827810287476,0.06577596068382263,-0.02159716933965683,0.010700821876525879,0.004736065864562988,-0.0013440251350402832
0.06578177958726883,0.04355587065219879,0.005227766931056976,0.022901952266693115,0.001050412654876709,-0.0011358857154846191
0.05967548489570618,-0.00751754455268383,0.06293164193630219,0.02623496949672699,-0.00651860237121582,0.00848841667175293
0.005961190443485975,-0.03107837401330471,0.11233044415712357,0.020372062921524048,-0.010399103164672852,0.02076965570449829
-0.02713843807578087,-0.015131955966353416,0.14401490986347198,0.014921799302101135,-0.006636202335357666,0.01532280445098877
-0.019783852621912956,0.005533375311642885,0.14483143389225006,0.009666875004768372,0.005447328090667725,-0.0021408796310424805
0.0028759832493960857,-0.002410770859569311,0.11529508978128433,-0.005976378917694092,0.012510716915130615,-0.02234417200088501
0.027378465980291367,-0.020311109721660614,0.07869779318571091,-0.01579435169696808,0.01853036880493164,-0.02607017755508423
0.03353516012430191,-0.010869229212403297,0.046824973076581955,-0.022615984082221985,0.01922541856765747,-0.01434868574142456
0.023270338773727417,0.003037836402654648,0.02862057462334633,-0.02154715359210968,0.019807279109954834,-0.002799093723297119
0.01861559972167015,0.022343941032886505,0.004890686832368374,-0.025279223918914795,0.019567430019378662,-0.0012033581733703613
0.016447585076093674,0.04353143647313118,-0.008135995827615261,-0.018544405698776245,0.023616760969161987,-0.004183650016784668
0.014550085179507732,0.05751679092645645,-0.0230689849704504,-0.017367035150527954,0.022407054901123047,-0.0068149566650390625
0.02530333399772644,0.02294815704226494,-0.03525935858488083,-0.01530812680721283,0.022212326526641846,-0.01617056131362915
0.05960244685411453,-0.04735453799366951,-0.047762516885995865,-0.00836789608001709,0.03158849477767944,-0.0212404727935791
0.07632636278867722,-0.07618208974599838,-0.05860597640275955,-0.003714725375175476,0.03829914331436157,-0.008022785186767578
0.06123749166727066,-0.04783746972680092,-0.06567642092704773,-0.0040172189474105835,0.027274399995803833,0.018205463886260986
0.03026732988655567,-0.010515808127820492,-0.044915031641721725,0.0056297630071640015,0.018263518810272217,0.034716784954071045
-0.00600798986852169,-0.013671940192580223,-0.01674840971827507,0.009579285979270935,0.008768647909164429,0.04279685020446777
-0.05592454969882965,-0.020341724157333374,0.027836520224809647,0.013805881142616272,0.004885375499725342,0.04401504993438721
-0.1006050705909729,-0.04369061812758446,0.05934666097164154,0.017367735505104065,0.01072084903717041,0.042967140674591064
-0.10294332355260849,-0.07615689188241959,0.058204662054777145,0.009625926613807678,0.009226411581039429,0.03322881460189819
-0.08394526690244675,-0.04814346507191658,0.04672867804765701,0.0035700052976608276,0.008338063955307007,0.026279330253601074
-0.06965333223342896,6.884918548166752e-06,0.0391932837665081,-0.006642535328865051,-0.0013286173343658447,0.024427473545074463
-0.09632150828838348,0.015795568004250526,0.04460107907652855,-0.0009198933839797974,-0.004252046346664429,0.02650552988052368
-0.11961343884468079,-0.01287231594324112,0.04104943200945854,-0.0024524927139282227,-0.012881159782409668,0.008873522281646729
-0.10376916825771332,-0.005133518949151039,0.017349865287542343,-0.003185674548149109,-0.00874239206314087,-0.013052701950073242
-0.05135197192430496,0.03443967178463936,0.005655450280755758,0.0011812001466751099,-0.009054094552993774,-0.03535795211791992
0.013287412002682686,0.06548966467380524,-0.003093279432505369,0.00529065728187561,-0.00788867473602295,-0.05465543270111084
0.040058769285678864,0.0605916902422905,-0.016507450491189957,0.014187708497047424,0.005601942539215088,-0.058715879917144775
0.053328704088926315,0.017425302416086197,-0.017694706097245216,0.020726948976516724,0.009944111108779907,-0.05672931671142578
0.07385987043380737,-0.01664956845343113,0.008010940626263618,0.02884659171104431,0.0066232383251190186,-0.04689335823059082
0.0877150446176529,-0.034221239387989044,0.025766439735889435,0.027394726872444153,0.008093327283859253,-0.02224409580230713
0.06328120827674866,-0.015551612712442875,0.024777423590421677,0.015066996216773987,0.010606706142425537,0.012811660766601562
0.02521452307701111,0.014119293540716171,0.01713079959154129,0.00546690821647644,0.010141551494598389,0.04313725233078003
-0.021321363747119904,0.05032737925648689,0.0227661095559597,-0.001003548502922058,0.005666673183441162,0.05255007743835449
-0.044955916702747345,0.0571710504591465,0.024927768856287003,0.0008820593357086182,0.00438883900642395,0.04453855752944946
-0.030255600810050964,0.041512630879879,0.017364609986543655,-0.0014241039752960205,0.007483839988708496,0.022672057151794434
-0.059206295758485794,0.05626591667532921,-0.008723563514649868,-0.006275847554206848,0.011826038360595703,0.021814167499542236
-0.09197703003883362,0.07337625324726105,-0.028622476384043694,-0.0029977113008499146,0.012858867645263672,0.020771384239196777
-0.08570194989442825,0.1044568121433258,-0.024743011221289635,0.004235953092575073,0.008724123239517212,0.004706323146820068
-0.057576972991228104,0.11647120118141174,-0.01586669497191906,0.008968725800514221,0.004015117883682251,-0.009482800960540771
-0.028433330357074738,0.10617955029010773,-0.00484436796978116,0.00776304304599762,0.0017850697040557861,-0.01573413610458374
-0.0166543647646904,0.09384128451347351,0.0012413142248988152,0.004948794841766357,0.0013442635536193848,-0.01571124792098999
-0.016232121735811234,0.06487397849559784,-0.004858008120208979,0.0054788738489151,0.0073111653327941895,-0.013174474239349365
-0.007635381072759628,0.04044264182448387,-0.017168067395687103,0.00415194034576416,0.00813913345336914,-0.01117706298828125
0.010513396002352238,0.031754449009895325,-0.028895676136016846,0.0029836148023605347,0.0036783218383789062,-0.004007399082183838
0.018421392887830734,0.06644108891487122,-0.020863965153694153,0.007254764437675476,0.0028647184371948242,0.006113648414611816
0.023481126874685287,0.08107338845729828,0.004329841583967209,0.016222208738327026,-2.473592758178711e-05,0.013722240924835205
0.017062310129404068,0.059712573885917664,0.05034906044602394,0.02272665500640869,-0.001184701919555664,0.016242802143096924
-0.03297169879078865,0.055556073784828186,0.0982048436999321,0.0238800048828125,0.0013709664344787598,0.0311853289604187
-0.0786360427737236,0.05038073658943176,0.10597029328346252,0.0005849450826644897,-0.006591498851776123,0.03232532739639282
-0.08474494516849518,0.047029539942741394,0.08509454131126404,-0.016424834728240967,0.001730114221572876,0.0129929780960083
-0.06374472379684448,0.06052326411008835,0.036786966025829315,-0.02214619517326355,0.008357137441635132,-0.006623506546020508
-0.014993693679571152,0.06230201572179794,-0.012535154819488525,-0.016866832971572876,0.007834434509277344,-0.024326026439666748
0.04926665127277374,0.03709503635764122,-0.02812568098306656,-0.006561532616615295,0.003553450107574463,-0.03666752576828003
0.06733393669128418,-0.011619936674833298,-0.021514499559998512,0.010159403085708618,0.0025561153888702393,-0.023870766162872314
0.038421131670475006,-0.005052271764725447,0.01952783204615116,0.018715813755989075,-0.005395650863647461,0.0011210441589355469
-0.0051749516278505325,0.023925118148326874,0.06448180973529816,0.0221402645111084,-0.016161590814590454,0.014379322528839111
0.00836116261780262,0.035987116396427155,0.08219397813081741,0.016400054097175598,-0.015481024980545044,-0.0009145140647888184
0.06899154931306839,0.02134760655462742,0.058004844933748245,0.0026395022869110107,-0.007242381572723389,-0.021978437900543213
0.1046336367726326,0.011730718426406384,0.012361938133835793,-0.006383031606674194,0.0023510754108428955,-0.019685089588165283
0.08917851746082306,0.00672998558729887,-0.0077126286923885345,0.001240566372871399,0.0077664852142333984,0.0034632086753845215
0.0632694885134697,0.026703527197241783,0.037718817591667175,0.016448915004730225,0.003592550754547119,0.017967283725738525
0.047162026166915894,0.03961057960987091,0.08443458378314972,0.01729850471019745,-0.0038262903690338135,0.022439897060394287
0.03535809367895126,0.06159810349345207,0.08637367933988571,0.00024297833442687988,0.00368344783782959,0.022891104221343994
0.022878656163811684,0.07511671632528305,0.038032811135053635,-0.01888011395931244,0.02007204294204712,0.021675288677215576
0.02714097872376442,0.0446995310485363,-0.004838848952203989,-0.02545662224292755,0.023957759141921997,0.013323664665222168
0.03618946298956871,-0.00861827377229929,-0.01333669200539589,-0.014031335711479187,0.019517749547958374,0.009869575500488281
0.02646007388830185,-0.033128682523965836,-0.005077182315289974,-0.015002191066741943,0.006445527076721191,0.017919480800628662
-0.021271830424666405,0.01110153179615736,-0.0008415586780756712,-0.017607450485229492,-0.0012202262878417969,0.035814881324768066
-0.06718725711107254,0.07552382349967957,-0.009687934070825577,-0.022918447852134705,-0.0023911595344543457,0.03301721811294556
-0.04949008673429489,0.04438386112451553,-0.03293955698609352,-0.014335796236991882,-0.0029140114784240723,-0.009917914867401123
0.020663969218730927,-0.0347265787422657,-0.05510066822171211,-0.0006600469350814819,0.0068197548389434814,-0.050163328647613525
0.07524038851261139,-0.07236556708812714,-0.06533440202474594,0.0061216652393341064,0.0030049383640289307,-0.0505218505859375
0.06924083083868027,-0.05614564195275307,-0.05679067224264145,0.012416467070579529,-0.006565719842910767,-0.01642584800720215
0.04851730540394783,-0.029880676418542862,-0.026089221239089966,0.018697500228881836,-0.014096468687057495,0.007187008857727051
0.02955380268394947,-0.012441488914191723,0.01658555492758751,0.026367634534835815,-0.017481833696365356,0.016165435314178467
0.015967952087521553,-0.0021757404319941998,0.04271511733531952,0.02213159203529358,-0.017606079578399658,0.01875370740890503
0.01998586393892765,0.01129159890115261,0.04439956694841385,0.011746406555175781,-0.009846299886703491,0.011142969131469727
0.03126148879528046,0.016116566956043243,0.03070562146604061,0.0033534616231918335,-0.0026138722896575928,0.0017771124839782715
0.046788111329078674,0.017699239775538445,0.012748001143336296,-0.0017806589603424072,0.003218412399291992,-0.0026134848594665527
0.043522629886865616,0.02263292856514454,-0.004076786804944277,-0.0018601715564727783,0.011560797691345215,-0.0018175244331359863
0.048527494072914124,0.027452334761619568,-0.020183071494102478,-0.006759330630302429,0.007891267538070679,-0.003916263580322266
0.052556656301021576,0.03933986648917198,-0.04015018045902252,-0.011753425002098083,0.0084686279296875,-0.0017151236534118652
0.04148289933800697,0.050194431096315384,-0.07150869071483612,-0.008401349186897278,0.013253062963485718,0.003289520740509033
0.07919306308031082,0.026549596339464188,-0.07834360003471375,0.0012567788362503052,0.016183853149414062,-0.00682377815246582
0.10131819546222687,0.024119587615132332,-0.057009242475032806,0.012714460492134094,0.018527507781982422,0.0027992725372314453
0.05650478973984718,0.08008895069360733,-0.041566215455532074,0.006671622395515442,0.006920903921127319,0.034117043018341064
0.0018203812651336193,0.15026850998401642,-0.03540899232029915,1.3694167137145996e-05,0.0027428269386291504,0.04521334171295166
0.011014937423169613,0.10859790444374084,-0.016807612031698227,0.007548853754997253,0.00503087043762207,0.013582587242126465
0.06030645594000816,0.026442766189575195,0.008029032498598099,0.020048901438713074,0.013604700565338135,-0.01332247257232666
0.052712582051754,0.01681545563042164,0.015973543748259544,0.01576201617717743,0.017270982265472412,0.007719993591308594
-0.016276605427265167,0.07881736755371094,0.01464485377073288,0.0005936026573181152,0.011298716068267822,0.04957777261734009
-0.055881936103105545,0.09827381372451782,0.02758968621492386,-0.0027915537357330322,0.006070196628570557,0.04910087585449219
-0.05049247294664383,0.06833496689796448,0.06376232206821442,0.009556740522384644,0.007530272006988525,0.018815934658050537
-0.04296008124947548,0.06648217141628265,0.07258874922990799,0.005978137254714966,0.0033836960792541504,0.0011113286018371582
-0.031136440113186836,0.056916724890470505,0.060588132590055466,0.00019820034503936768,0.0032100677490234375,-0.007787764072418213
-0.03142578527331352,0.019234586507081985,0.0471298024058342,0.009457364678382874,0.010324597358703613,-0.010367631912231445
-0.04618510231375694,-0.028030741959810257,0.0664115771651268,0.014563962817192078,0.001582413911819458,-0.005814850330352783
-0.08727101981639862,-0.02266719564795494,0.10379919409751892,0.02325253188610077,-0.004380226135253906,0.00957632064819336
-0.10923709720373154,0.0039030401967465878,0.1243298202753067,0.0271160751581192,-0.0031664371490478516,0.014054417610168457
-0.07281504571437836,0.02250937558710575,0.13753283023834229,0.020621180534362793,-0.00426405668258667,-0.0023238062858581543
-0.0317438468337059,0.011492698453366756,0.12600618600845337,0.010859459638595581,-0.008002758026123047,-0.01680701971054077
-0.004590850323438644,-0.0018326096469536424,0.09766226261854172,0.003173515200614929,-0.011020690202713013,-0.013915717601776123
0.015510018914937973,0.020608587190508842,0.0835922509431839,0.002149522304534912,-0.013719677925109863,-0.00145035982131958
0.027925875037908554,0.043656494468450546,0.09131452441215515,0.011253133416175842,-0.013728737831115723,0.011675894260406494
0.025227094069123268,0.05286340415477753,0.12444625049829483,0.019416213035583496,-0.011579632759094238,0.023840129375457764
0.002089753281325102,0.07249438762664795,0.16943268477916718,0.02324715256690979,-0.007075846195220947,0.03445732593536377
0.026059331372380257,0.09177464246749878,0.20592376589775085,0.01930074393749237,-0.0015241503715515137,0.0243988037109375
0.07704435288906097,0.09655926376581192,0.1993398517370224,0.001393333077430725,0.0032625198364257812,0.007149994373321533
0.10232727229595184,0.08264154195785522,0.14092804491519928,-0.023530885577201843,0.005183309316635132,0.010095357894897461
0.07822813093662262,0.10625213384628296,0.10791893303394318,-0.025755807757377625,0.001323699951171875,0.029964208602905273
0.015193236991763115,0.16962552070617676,0.1417035311460495,0.005069956183433533,-0.00529441237449646,0.044765353202819824
0.0006794738583266735,0.19065077602863312,0.2536256015300751,0.037895455956459045,-0.018360137939453125,0.018729805946350098
0.0334511399269104,0.14756309986114502,0.3587109446525574,0.049692749977111816,-0.016038835048675537,-0.01625347137451172
0.06584756076335907,0.12266944348812103,0.4110606908798218,0.038655102252960205,-0.005397379398345947,-0.024473488330841064
0.058212410658597946,0.1451190710067749,0.41209128499031067,0.011238887906074524,0.003925502300262451,-0.004081845283508301
0.012506840750575066,0.17533431947231293,0.4094174802303314,-0.003417298197746277,0.010901451110839844,0.02002483606338501
-0.040078409016132355,0.18457210063934326,0.4246109127998352,-0.009337127208709717,0.009546160697937012,0.027793526649475098
-0.03780952841043472,0.17131076753139496,0.445717453956604,-0.018045291304588318,0.0033675730228424072,0.008433163166046143
-0.008111084811389446,0.17501559853553772,0.43909701704978943,-0.030063852667808533,0.00698930025100708,-0.007831335067749023
0.007558220531791449,0.18674299120903015,0.37849581241607666,-0.05464005470275879,0.010458171367645264,-0.0026401877403259277
-0.0067117949947714806,0.17885364592075348,0.31629395484924316,-0.06927222013473511,0.011638522148132324,0.00829470157623291
-0.032771360129117966,0.1536336988210678,0.27913200855255127,-0.06118476390838623,0.015344500541687012,0.015781879425048828
-0.061495352536439896,0.13831397891044617,0.27435123920440674,-0.053097739815711975,0.007003426551818848,0.014098405838012695
-0.08448661863803864,0.14671483635902405,0.2657611072063446,-0.052086398005485535,-0.004157304763793945,0.009107887744903564
-0.07593587040901184,0.18190090358257294,0.24577359855175018,-0.06306777894496918,-0.014747202396392822,-0.006506025791168213
-0.03576575219631195,0.16405369341373444,0.20947635173797607,-0.059894412755966187,-0.006062239408493042,-0.027559995651245117
0.038785986602306366,0.10673338174819946,0.17086195945739746,-0.0561039000749588,-0.001122504472732544,-0.04684746265411377
0.09913194179534912,0.06581521034240723,0.12824814021587372,-0.05635662376880646,-0.0023938119411468506,-0.03137332201004028
0.10121919959783554,0.0649920180439949,0.1061161607503891,-0.05520595610141754,-0.006153970956802368,0.00932091474533081
0.038848500698804855,0.15579302608966827,0.12614208459854126,-0.047583818435668945,-0.020507782697677612,0.042988121509552
-0.00830862857401371,0.21916785836219788,0.15526844561100006,-0.030100062489509583,-0.023904502391815186,0.03705984354019165
0.07035230100154877,0.15617342293262482,0.17766615748405457,-0.022420108318328857,-0.02011808753013611,-0.0234796404838562
0.1563226580619812,0.07140405476093292,0.1856592297554016,-0.023104608058929443,-0.00881001353263855,-0.049749016761779785
0.10083690285682678,0.06341058760881424,0.17451101541519165,-0.036928847432136536,-0.008566796779632568,0.006649315357208252
-0.027257950976490974,0.045797090977430344,0.18218296766281128,-0.03056281805038452,0.004774600267410278,0.06489962339401245
-0.1484508067369461,-0.011798806488513947,0.2296312153339386,-0.005293533205986023,0.02255973219871521,0.07857000827789307
-0.20231637358665466,-0.054070714861154556,0.26145464181900024,0.012969046831130981,0.03830981254577637,0.05824172496795654
-0.1596132516860962,-0.05567362532019615,0.24359141290187836,0.01424659788608551,0.048383891582489014,0.01078498363494873
-0.08694425225257874,-0.038897089660167694,0.1314026415348053,-0.0003037452697753906,0.06398648023605347,-0.006987214088439941
-0.014320578426122665,0.00922402273863554,0.024497654289007187,-0.01727713644504547,0.050127267837524414,0.005660355091094971
-0.018693555146455765,0.0604635588824749,0.0012343530543148518,-0.006047472357749939,0.026497483253479004,0.04102301597595215
-0.1009000763297081,0.1289733350276947,0.08189288526773453,0.01965770125389099,-0.005198299884796143,0.06580501794815063
-0.16273021697998047,0.22447729110717773,0.1889542043209076,0.027879953384399414,-0.02904808521270752,0.055983006954193115
-0.13277138769626617,0.26492738723754883,0.23038041591644287,0.009113386273384094,-0.02756422758102417,0.002792537212371826
-0.054082971066236496,0.2041536420583725,0.1925235092639923,-0.006381765007972717,0.004764676094055176,-0.059523940086364746
-0.013639874756336212,0.11392033845186234,0.12786132097244263,-0.010503515601158142,0.033477962017059326,-0.07607412338256836
0.0007471186108887196,0.048408739268779755,0.08736786991357803,-0.00292930006980896,0.04052808880805969,-0.05938994884490967
0.04054519906640053,0.019452793523669243,0.09110772609710693,0.011322155594825745,0.029390573501586914,-0.04330724477767944
0.10410040616989136,0.008098662830889225,0.11200447380542755,0.024903565645217896,0.025911688804626465,-0.016829371452331543
0.12951408326625824,0.0030052997171878815,0.13869495689868927,0.021400094032287598,0.01680898666381836,0.024065494537353516
0.07320188730955124,-0.04278084635734558,0.19136209785938263,0.02374909818172455,0.006555289030075073,0.05681067705154419
-0.006750874221324921,-0.1574934870004654,0.25497737526893616,0.04082401096820831,0.020311176776885986,0.06677556037902832
-0.10344845056533813,-0.21996918320655823,0.2882217466831207,0.03697437047958374,0.03296208381652832,0.06891381740570068
-0.20815642178058624,-0.1447904407978058,0.2783617079257965,0.028644666075706482,0.043596476316452026,0.08823710680007935
-0.2612881660461426,0.014529266394674778,0.21932312846183777,0.0021904557943344116,0.03421059250831604,0.08737856149673462
-0.2487870752811432,0.17868246138095856,0.15165585279464722,-0.015364736318588257,0.029685795307159424,0.05721902847290039
-0.1857488602399826,0.2563592195510864,0.08663956820964813,-0.0154799222946167,0.03469359874725342,0.014972686767578125
-0.08797602355480194,0.2174229472875595,0.035019807517528534,-0.010806828737258911,0.03411322832107544,-0.03902179002761841
-0.028625549748539925,0.15755222737789154,0.012573599815368652,0.0065681785345077515,0.036547064781188965,-0.051672518253326416
-0.03909197449684143,0.17819209396839142,0.004370400216430426,-0.0005913674831390381,0.018460333347320557,-0.026561498641967773
-0.08110859990119934,0.24355272948741913,-0.0014549803454428911,-0.013209372758865356,0.0011255145072937012,-0.001755833625793457
-0.12196235358715057,0.31582891941070557,0.02113613858819008,-0.002681627869606018,0.000985562801361084,-0.0066336989402771
-0.14865601062774658,0.33723771572113037,0.03021138533949852,0.01514597237110138,0.010040283203125,-0.028087317943572998
-0.09747465699911118,0.2669924199581146,0.007678177673369646,0.01870405673980713,7.50422477722168e-05,-0.06879550218582153
0.029349535703659058,0.15718485414981842,-0.0038649681955575943,0.032621413469314575,-0.004763692617416382,-0.08935129642486572
0.1431906819343567,0.11553089320659637,0.041064176708459854,0.05620701611042023,-0.009467661380767822,-0.0682947039604187
0.14554885029792786,0.1624118983745575,0.12265510857105255,0.06380520761013031,-0.02274179458618164,0.0009118318557739258
0.030233576893806458,0.23427636921405792,0.22457744181156158,0.06849642097949982,-0.02975711226463318,0.06053537130355835
-0.08048801124095917,0.22368919849395752,0.26806169748306274,0.05653578042984009,-0.027830958366394043,0.07217800617218018
-0.1238669827580452,0.1289779543876648,0.24878734350204468,0.037306517362594604,-0.021248340606689453,0.0399172306060791
-0.1259399801492691,0.033963076770305634,0.19127102196216583,0.03424660861492157,-0.011756330728530884,0.01734226942062378
-0.1595946103334427,0.03678780794143677,0.1585465967655182,0.037524595856666565,-0.013740181922912598,0.02923661470413208
-0.1888929158449173,0.041994016617536545,0.1733558028936386,0.05414605140686035,-0.019112616777420044,0.04475051164627075
-0.16522440314292908,0.06041724607348442,0.20773948729038239,0.04803864657878876,-0.03787800669670105,0.04320693016052246
-0.13468174636363983,0.024710698053240776,0.1929199993610382,0.02470618486404419,-0.049746930599212646,0.04029744863510132
-0.16901463270187378,0.024287056177854538,0.16138868033885956,0.008826494216918945,-0.044608891010284424,0.05904185771942139
-0.2321425825357437,0.06171474978327751,0.17805272340774536,0.018341749906539917,-0.04626375436782837,0.06157797574996948
-0.2360355257987976,0.12292838096618652,0.21328100562095642,0.03186456859111786,-0.04437556862831116,0.029555439949035645
-0.14077484607696533,0.16364078223705292,0.1944155991077423,0.01761418581008911,-0.03605136275291443,-0.01933884620666504
-0.04850511625409126,0.17924092710018158,0.1300719976425171,-0.0047020092606544495,-0.016354411840438843,-0.03911978006362915
-0.03056493028998375,0.16670991480350494,0.05561114475131035,-0.013383530080318451,0.007894843816757202,-0.011257708072662354
-0.040358640253543854,0.09509263932704926,0.020275689661502838,-0.009616553783416748,0.00044718384742736816,-0.003342926502227783
-0.07001186162233353,0.08044964075088501,0.006653354503214359,-0.012731343507766724,-0.00447314977645874,0.008207917213439941
-0.09229793399572372,0.11687860637903214,-0.04652496799826622,-0.008697949349880219,0.009207457304000854,0.0029917359352111816
-0.033201392740011215,0.10968945175409317,-0.12311993539333344,0.0012897998094558716,0.02316296100616455,-0.006467282772064209
0.03350593149662018,0.0752689465880394,-0.20282307267189026,0.0012263208627700806,0.00993165373802185,0.026065945625305176
0.01812024973332882,0.09741570055484772,-0.21410834789276123,0.012936130166053772,-0.013866007328033447,0.07951873540878296
-0.12507745623588562,0.25638243556022644,-0.1314009726047516,0.03995872288942337,-0.019172757863998413,0.09610974788665771
-0.29431623220443726,0.4034045338630676,-0.02154522016644478,0.06871475279331207,0.019038736820220947,0.026549339294433594
-0.22323758900165558,0.2846851646900177,0.021824263036251068,0.036988697946071625,0.027598470449447632,-0.10045629739761353
0.010057197883725166,0.05508359521627426,-0.007120419293642044,-0.007179871201515198,0.02998456358909607,-0.12053054571151733
0.12172681093215942,-0.06455259025096893,-0.07215572148561478,-0.024488873779773712,0.037245213985443115,-0.022508740425109863
0.03100196085870266,-0.0008904478163458407,-0.10607387870550156,-0.022256791591644287,0.015128880739212036,0.0719977617263794
-0.11861050128936768,0.13410617411136627,-0.03449128568172455,-0.0052207037806510925,-0.018125414848327637,0.0789560079574585
-0.18573981523513794,0.18642988801002502,0.10592036694288254,0.00612698495388031,-0.03573453426361084,0.012462496757507324
-0.1576126217842102,0.098689503967762,0.21331970393657684,0.0004735812544822693,-0.01994037628173828,-0.06070214509963989
-0.12396299093961716,-0.048096124082803726,0.21854868531227112,-0.017092354595661163,0.01522168517112732,-0.08439677953720093
-0.09991496801376343,-0.11235672235488892,0.13112753629684448,-0.03871523588895798,0.021939903497695923,-0.08304488658905029
-0.05818690359592438,-0.09082082659006119,0.03194357082247734,-0.0314955860376358,0.02052682638168335,-0.07681125402450562
0.028698258101940155,-0.07109656929969788,-0.03698290139436722,-0.007844619452953339,0.012753158807754517,-0.07296693325042725
0.10534949600696564,-0.06276937574148178,-0.053468361496925354,0.00836007297039032,0.007325083017349243,-0.03923237323760986
0.1132686659693718,-0.0366421677172184,-0.05265796184539795,0.011267364025115967,-0.0034593045711517334,0.010232150554656982
0.08631595224142075,-0.009851882234215736,-0.04175465926527977,0.009887658059597015,-0.014966607093811035,0.03432565927505493
0.06285358220338821,0.002440076321363449,-0.012332655489444733,0.009881928563117981,-0.014044761657714844,0.03745549917221069
0.035403572022914886,0.02998342551290989,-0.005837655160576105,-0.0011001527309417725,-0.016925454139709473,0.03745657205581665
0.009150808677077293,0.0755976065993309,0.014285976067185402,-0.0006338357925415039,-0.014506608247756958,0.026211082935333252
0.006684771738946438,0.07270211726427078,0.040951937437057495,0.0003527328372001648,-0.010441750288009644,0.0014923810958862305
0.013587485998868942,0.03856726363301277,0.07532994449138641,0.0041760653257369995,0.002630472183227539,-0.017592966556549072
0.02069799043238163,-0.0037396717816591263,0.07594238966703415,-0.0014026537537574768,0.014166325330734253,-0.025549471378326416
0.03401259705424309,-0.03819042444229126,0.053047847002744675,-0.002630986273288727,0.02270635962486267,-0.026247024536132812
0.05969472974538803,-0.049023788422346115,0.031932879239320755,0.0060689449310302734,0.02732694149017334,-0.026249349117279053
0.09628882259130478,-0.07452777773141861,0.00830150954425335,0.010028555989265442,0.024823933839797974,-0.008484840393066406
0.09120744466781616,-0.06691566854715347,-0.00856031198054552,0.008350975811481476,0.013578325510025024,0.02513986825942993
0.03141907602548599,0.010919637978076935,-0.011804727837443352,0.010196574032306671,0.006118357181549072,0.05142325162887573
0.0037931110709905624,0.07206135988235474,-0.011381840333342552,0.011627718806266785,0.00460439920425415,0.04035544395446777
0.011190863326191902,0.0764429122209549,-0.0038946145214140415,0.014590680599212646,0.0045854151248931885,0.021316468715667725
0.02190440520644188,0.04068082198500633,0.012156112119555473,0.014428943395614624,-0.002938300371170044,0.015280008316040039
-0.008474940434098244,0.03954517841339111,0.018649086356163025,0.004174083471298218,0.0038968026638031006,0.022755861282348633
-0.04457182064652443,0.06877332925796509,-0.0013426595833152533,-0.005931071937084198,0.007056683301925659,0.012892365455627441
-0.04078107327222824,0.06597547233104706,-0.02588666044175625,-0.009259678423404694,0.006830006837844849,-0.010163962841033936
-0.0004953751340508461,0.030672168359160423,-0.048094090074300766,-0.012859232723712921,0.00705304741859436,-0.020289897918701172
0.013318969868123531,0.013760793954133987,-0.07729971408843994,-0.018168307840824127,-0.0003179609775543213,-0.012255847454071045
0.030122393742203712,0.00472863158211112,-0.09514216333627701,-0.010704025626182556,0.0018355846405029297,0.00036323070526123047
0.011685727164149284,0.00038325274363160133,-0.07871083915233612,0.007169455289840698,-0.001054912805557251,0.005572199821472168
0.009029815904796124,-0.016528446227312088,-0.0476679764688015,0.006282024085521698,-0.014013528823852539,0.0038899779319763184
0.01292063482105732,0.00013770931400358677,-0.026731260120868683,0.006232947111129761,-0.004212915897369385,0.00937187671661377
0.010434768162667751,0.00038078101351857185,-0.03374360501766205,0.00470154732465744,-0.0019286274909973145,0.00929725170135498
0.023840006440877914,0.008785288780927658,-0.042982909828424454,-0.0029767081141471863,-0.0069335103034973145,0.01110905408859253
0.0019912291318178177,-0.0053681968711316586,-0.04645051062107086,0.004974335432052612,-0.00527036190032959,0.01437985897064209
0.006245481316000223,-0.022673631086945534,-0.04522696137428284,0.0068008676171302795,-0.009970009326934814,0.003385484218597412
0.011021063663065434,-0.02589486725628376,-0.0245065838098526,0.015147432684898376,-0.004540681838989258,0.0008528232574462891
0.022255009040236473,-0.03576795384287834,-0.023838719353079796,0.007759504020214081,-0.006514519453048706,0.002389073371887207
0.027771752327680588,-0.022180113941431046,-0.03558707237243652,0.005980677902698517,-0.004524171352386475,0.010477125644683838
0.03184259310364723,-0.018460223451256752,-0.04907253384590149,0.00949888676404953,-0.007974386215209961,0.010733544826507568
0.02494107373058796,0.004222606308758259,-0.02295694686472416,0.022245310246944427,-0.0051316916942596436,0.012553215026855469
0.021009191870689392,-0.0012952734250575304,0.012575890868902206,0.016290336847305298,-0.007372498512268066,0.008071839809417725
0.018555279821157455,-0.005037358030676842,0.028293361887335777,0.00503886491060257,0.0012893378734588623,0.009492874145507812
0.0068596722558140755,-0.005867005325853825,0.013510975986719131,-0.007258906960487366,0.009598344564437866,0.004367411136627197
0.012850919738411903,-0.003776638302952051,-0.018564725294709206,-0.013335391879081726,0.016831904649734497,-0.0053018927574157715
0.02880551852285862,-0.020603656768798828,-0.04417969286441803,-0.012439548969268799,0.016945630311965942,-0.014281988143920898
0.03479490801692009,-0.04319341853260994,-0.05258587375283241,-0.009569600224494934,0.015599668025970459,-0.008345425128936768
0.03658968210220337,-0.04959031566977501,-0.059723664075136185,-0.0072995200753211975,0.016346096992492676,0.0032767653465270996
0.022366270422935486,-0.03403399512171745,-0.0687781423330307,-0.0014432892203330994,0.016297072172164917,0.013741791248321533
0.012913640588521957,-0.011710439808666706,-0.06437692046165466,0.00154770165681839,0.00764155387878418,0.018221795558929443
-0.00805828906595707,0.004732703790068626,-0.05274131894111633,0.010220915079116821,0.008148431777954102,0.015262842178344727
0.009454861283302307,-0.013130540028214455,-0.05702861398458481,0.012798123061656952,0.011974871158599854,0.0010656118392944336
0.039902642369270325,-0.009948616847395897,-0.062257230281829834,0.014980778098106384,0.005794495344161987,0.005174458026885986
0.03089004196226597,-0.0017468694131821394,-0.05551888421177864,0.01850084960460663,-0.001424342393875122,0.018484950065612793
-0.018979232758283615,0.011836306191980839,-0.03581671789288521,0.023362189531326294,-0.003208458423614502,0.020615458488464355
-0.03562819957733154,0.022142309695482254,-0.017586279660463333,0.019708827137947083,-0.008422285318374634,-0.002977132797241211
0.00945066288113594,-0.0013536845799535513,0.011761238798499107,0.021816521883010864,-0.009396851062774658,-0.023420274257659912
0.05649574100971222,-0.014940587803721428,0.03740563243627548,0.014960646629333496,-0.006220430135726929,-0.01583683490753174
0.07065270096063614,-0.00980017613619566,0.03478957712650299,-0.0013167262077331543,-0.005716562271118164,0.002621889114379883
0.038539644330739975,0.022061966359615326,0.016699781641364098,-0.000141829252243042,0.006192266941070557,0.017712175846099854
0.027943599969148636,0.023528266698122025,-0.004198506940156221,0.0023527219891548157,0.0011576712131500244,0.005668222904205322
0.05711884796619415,0.03286494314670563,0.01783088967204094,0.008239150047302246,0.0007930397987365723,0.0006385445594787598
0.033642157912254333,0.04074772074818611,0.04031169041991234,0.012477099895477295,0.006353259086608887,0.0047408342361450195
0.041184570640325546,0.01140768826007843,0.041092805564403534,0.004676550626754761,0.007289767265319824,-0.004532814025878906
0.05293549597263336,-0.014706800691783428,0.03761742636561394,-4.0531158447265625e-05,0.01274755597114563,0.0020763278007507324
0.05342724546790123,-0.03470177575945854,0.01814511977136135,-0.00772838294506073,0.00910329818725586,0.02047109603881836
0.016250982880592346,0.018330713734030724,0.02425399050116539,0.0009864568710327148,0.015164315700531006,0.03269749879837036
-0.0022611881140619516,0.02759140357375145,0.025291144847869873,0.0011680424213409424,0.006343364715576172,0.018150687217712402
0.014265857636928558,0.01619529351592064,0.031496427953243256,-0.000734969973564148,0.013306081295013428,0.01020878553390503
-0.019022922962903976,0.008390657603740692,0.01679396629333496,-0.005189485847949982,0.006146162748336792,0.011392712593078613
-0.003925925120711327,-0.027886316180229187,0.003350307233631611,-0.005479857325553894,0.003309011459350586,-0.0006219148635864258
-0.0007796664722263813,-0.019231041893363,0.012576295994222164,0.00206756591796875,0.0020627081394195557,0.0025663375854492188
0.012778567150235176,-0.017456967383623123,0.010808153077960014,-0.0018147528171539307,-0.007938474416732788,0.007417201995849609
0.0016200412064790726,0.016193844377994537,0.022697316482663155,0.000509120523929596,0.0008150935173034668,0.012599170207977295
-0.00546275544911623,-0.0013315274845808744,-0.0007177419029176235,-0.007965758442878723,-0.011245489120483398,0.0009926557540893555
0.01224138867110014,0.006224958226084709,0.008377544581890106,0.0015899911522865295,-0.007091134786605835,-0.0039820075035095215
0.008935241028666496,-0.0049696373753249645,0.011847341433167458,0.010105617344379425,-0.013667672872543335,-0.007067084312438965
0.028382238000631332,-0.006454466842114925,0.03737623617053032,0.014246903359889984,-0.008483260869979858,-0.01457667350769043
0.055534932762384415,-0.032091375440359116,0.04079365357756615,0.007584407925605774,-0.005726337432861328,-0.013565301895141602
0.05648375675082207,-0.025712542235851288,0.03137357160449028,0.004245854914188385,0.0006867945194244385,0.003146350383758545
0.03555004671216011,-0.0026932943146675825,0.032214391976594925,-0.0031162798404693604,-0.011454880237579346,0.011626124382019043
0.017327239736914635,0.009631842374801636,0.048697251826524734,0.004281304776668549,-0.0002321302890777588,0.004884839057922363
0.028014104813337326,-0.015441452153027058,0.048955466598272324,0.004659801721572876,0.010669291019439697,-0.011136174201965332
0.07817380130290985,-0.041838135570287704,0.026710812002420425,-0.008219696581363678,0.009427011013031006,-0.011108338832855225
0.10358309000730515,-0.04069593548774719,-0.0026271508540958166,-0.013494312763214111,0.009170830249786377,0.012398004531860352
0.05977395921945572,-0.007035221438854933,-0.005898770876228809,-0.004155352711677551,0.011128604412078857,0.038019418716430664
0.006833640858530998,0.002070761751383543,0.00018271105363965034,-0.004140779376029968,0.0015819966793060303,0.028877198696136475
0.0044047716073691845,-0.020449349656701088,0.023290328681468964,0.005020447075366974,0.006505638360977173,0.010134637355804443
0.029056992381811142,-0.03634599596261978,0.02136489562690258,-0.004083894193172455,0.004614144563674927,0.013715565204620361
0.009848138317465782,-0.00898679532110691,0.009044475853443146,-0.008695930242538452,0.006873637437820435,0.02989649772644043
-0.014810403808951378,0.02379963919520378,-0.014773789793252945,-0.008443638682365417,0.007368505001068115,0.025138556957244873
-0.003052477492019534,0.0022212406620383263,-0.02759351022541523,-0.0026562362909317017,0.0037890374660491943,0.004707455635070801
0.0074559543281793594,-0.013744901865720749,-0.021105855703353882,0.00015253573656082153,-0.003285229206085205,0.0064103007316589355
0.00455603888258338,-0.020741764456033707,-0.024223925545811653,0.0004245638847351074,-0.008559823036193848,0.012158811092376709
-0.014863992109894753,0.014011281542479992,-0.013174817897379398,0.00823056697845459,-0.002390146255493164,0.017477869987487793
-0.024738067761063576,0.028382353484630585,-0.007154962047934532,0.006195247173309326,-0.0143660306930542,-0.0037336349487304688
0.03324007987976074,-0.01602785661816597,0.005365028977394104,-3.127008676528931e-05,-0.017270058393478394,-0.02175205945968628
0.02495245635509491,-0.030843425542116165,0.006743524689227343,0.0019486919045448303,-0.005309969186782837,0.0019902586936950684
0.010928740724921227,-0.03224756568670273,-0.012293746694922447,-0.010167673230171204,-0.014996141195297241,0.009459495544433594
0.018874727189540863,0.013405995443463326,-0.0006247274577617645,0.0008217692375183105,-0.005123823881149292,0.005977630615234375
0.03845841810107231,0.011813261546194553,0.0034889443777501583,-0.004657089710235596,-0.012449651956558228,-0.002755105495452881
0.05935797095298767,-0.0127415144816041,0.015064527280628681,-0.00826042890548706,-0.002323448657989502,0.005381762981414795
0.019017934799194336,-0.05758262053132057,-0.0005678990855813026,-0.016698002815246582,0.0019565224647521973,0.018371522426605225
0.013713391497731209,-0.0648428350687027,-0.015567611902952194,-0.015880733728408813,0.009831428527832031,0.019479990005493164
-0.004471138119697571,0.0003622138174250722,-0.019642725586891174,-0.008214429020881653,0.00812298059463501,0.013556420803070068
0.02741887979209423,0.009477464482188225,-0.027472635731101036,-0.011749781668186188,0.004547327756881714,-0.005886256694793701
0.029895560815930367,-0.016965262591838837,-0.026264773681759834,-0.010552659630775452,0.013288259506225586,0.0005753040313720703
0.0070801181718707085,-0.07956582307815552,-0.058119937777519226,-0.01843339204788208,0.009315967559814453,0.009959518909454346
-0.02372719533741474,-0.05864012986421585,-0.07844986021518707,-0.006539329886436462,0.012532591819763184,0.01699119806289673
0.00022906949743628502,-0.03876747190952301,-0.10010339319705963,-0.002764105796813965,-0.0015504956245422363,0.005082607269287109
0.029998958110809326,0.0003601474454626441,-0.0902884379029274,0.010135963559150696,0.002660393714904785,0.012075722217559814
0.019615551456809044,-0.012216820381581783,-0.08289697766304016,0.008922263979911804,-0.0027521252632141113,0.018320918083190918
-0.004024720750749111,-0.015933655202388763,-0.07001373916864395,0.009810030460357666,0.0011922717094421387,0.027331411838531494
-0.05249891057610512,-0.03619828075170517,-0.04566115140914917,0.017468750476837158,-0.012591391801834106,0.02206498384475708
-0.051480840891599655,-0.014750330708920956,0.0027565746568143368,0.01564401388168335,-0.009395807981491089,0.003990113735198975
-0.02382526732981205,-0.006900250446051359,0.007828816771507263,0.008782908320426941,0.0017927885055541992,-0.020562410354614258
0.0293623898178339,-0.027315232902765274,-0.02808362804353237,-0.002813473343849182,0.010005712509155273,-0.0202980637550354
0.019656695425510406,-0.008074943907558918,-0.0452992245554924,0.00080832839012146,0.00438690185546875,-0.002933979034423828
0.020290330052375793,-0.022795315831899643,-0.03355562686920166,0.005692526698112488,-0.0064522624015808105,-0.006954669952392578
0.022302880883216858,-0.02734186500310898,-0.005639838986098766,0.01289057731628418,0.0018474459648132324,-0.0011576414108276367
0.01942087896168232,-0.03519178181886673,-0.007784733548760414,0.0036235079169273376,-0.0014252066612243652,0.003581225872039795
0.021110516041517258,-0.015895280987024307,-0.012743877246975899,0.0013071894645690918,0.0009808242321014404,0.006075084209442139
0.027218742296099663,0.006272543221712112,-0.01295183040201664,0.000918164849281311,-0.0007936954498291016,0.009009003639221191
0.034631386399269104,0.019334079697728157,-0.01034330390393734,0.004105404019355774,0.0021688342094421387,0.0073168277740478516
0.023293115198612213,0.0176961962133646,-0.0055119916796684265,0.007565222680568695,0.01067015528678894,0.009461462497711182
0.014237056486308575,-0.0026191992219537497,-0.01804393343627453,-0.0004234611988067627,0.003859490156173706,0.0041967034339904785
0.008204005658626556,-0.028294982388615608,-0.01862102746963501,0.005863696336746216,0.0044806599617004395,0.002308487892150879
0.013123175129294395,-0.03651861101388931,-0.017586693167686462,0.009224042296409607,0.005529999732971191,0.007991015911102295
0.012880014255642891,0.0077459486201405525,-0.006053364835679531,0.009146526455879211,0.005729734897613525,0.019740581512451172
0.008818117901682854,0.03893052414059639,0.002455581910908222,0.003802746534347534,0.0013398826122283936,0.02025681734085083
0.0026821070350706577,0.03218606486916542,0.004066148307174444,-0.0023976564407348633,0.004137665033340454,0.020197510719299316
-0.027247797697782516,0.027017589658498764,-0.002688990207388997,-0.001211516559123993,0.008478313684463501,0.02102714776992798
-0.026661796495318413,0.011764372698962688,-0.008894851431250572,-0.0013342797756195068,0.0048656165599823,0.003785073757171631
0.006814607419073582,-0.009750924073159695,-0.004625103436410427,-0.003246814012527466,0.003591299057006836,0.0010379552841186523
0.0026372442953288555,0.019293788820505142,-0.014827659353613853,-0.007633835077285767,0.004979878664016724,0.01761806011199951
-0.02798392064869404,0.05355433002114296,-0.02153223752975464,-0.0061914920806884766,0.001053929328918457,0.0175744891166687
-0.03895627707242966,0.04625263810157776,-0.00965176336467266,0.0018674582242965698,0.0019704997539520264,0.00028818845748901367
-0.020125072449445724,0.006448312196880579,0.0019653341732919216,0.0004285871982574463,-0.0003891587257385254,-0.00826936960220337
-0.012440718710422516,-0.004090337548404932,-0.014428004622459412,-0.004599608480930328,0.002125173807144165,-0.002859771251678467
-0.00654781237244606,0.011100578121840954,-0.0316629484295845,-0.0026713162660598755,-0.0014214515686035156,0.002200782299041748
-0.006993683986365795,0.028183192014694214,-0.03001600317656994,0.007656574249267578,-0.004608333110809326,-0.0025392770767211914
0.0035273581743240356,0.025568880140781403,-0.012872440740466118,0.01251460611820221,-0.009493023157119751,-0.00533217191696167
-0.0004305187612771988,0.02753392606973648,0.0028064055368304253,0.012416020035743713,-0.008653372526168823,-0.007497131824493408
0.020912980660796165,0.02443004958331585,-0.007400495931506157,0.004616454243659973,-0.0036143064498901367,-0.00710827112197876
0.03478613123297691,0.009326443076133728,-0.022164709866046906,0.006671473383903503,-0.004421353340148926,-0.0006992816925048828
0.05048627033829689,-0.010199254378676414,-0.014248240739107132,0.007978945970535278,-0.005876868963241577,0.01383298635482788
0.03010873682796955,0.0021224101074039936,0.007893324829638004,0.004178382456302643,-0.0077180564403533936,0.03464752435684204
0.003932861611247063,0.026105167344212532,0.02155311033129692,0.0042367130517959595,-0.0004093945026397705,0.042505085468292236
-0.022534161806106567,0.03130292147397995,0.03342970088124275,0.0002602040767669678,0.002424478530883789,0.03840827941894531
-0.05960330367088318,0.03636578097939491,0.0499141588807106,-0.0006610602140426636,-0.00016799569129943848,0.02408355474472046
-0.06175021082162857,0.03687886893749237,0.06166839972138405,-0.00490233302116394,0.005118072032928467,-0.0008465051651000977
-0.033818840980529785,0.014212198555469513,0.04269154742360115,-0.01072268933057785,0.012905687093734741,-0.015102803707122803
-0.003003938589245081,-0.02181723713874817,0.013443953357636929,-0.01365196704864502,0.012520194053649902,-0.015788733959197998
0.008874023333191872,-0.01903110183775425,-0.011796647682785988,-0.017466925084590912,0.008379727602005005,-0.0038419365882873535
-0.008996453136205673,0.0023643034510314465,-0.02496875450015068,-0.013014182448387146,0.004235744476318359,0.0029450654983520508
-0.011622929945588112,-0.011079282499849796,-0.023593556135892868,-0.0009060874581336975,0.005295366048812866,-0.0037608742713928223
0.0077179716899991035,-0.04080045595765114,-0.0019253618083894253,0.008737832307815552,0.002896726131439209,-0.005736947059631348
0.0011310875415802002,-0.042032379657030106,0.016092369332909584,0.0019119977951049805,-0.0020681917667388916,0.007203280925750732
-0.009435590356588364,-0.013193030841648579,0.001264770980924368,-0.00732266902923584,-0.0033094286918640137,0.007303297519683838
0.01772410422563553,-0.010504213161766529,-0.02500889077782631,-0.005836158990859985,-0.0014422237873077393,-0.001289665699005127
0.037132762372493744,-0.011393308639526367,-0.03521179035305977,0.007640264928340912,-0.0029082894325256348,0.0010858774185180664
0.030552750453352928,-0.00749499537050724,-0.0199484471231699,0.019917622208595276,-0.008622497320175171,0.012939751148223877
0.017768315970897675,0.012190897949039936,0.01748678646981716,0.025225713849067688,-0.011030912399291992,0.012399792671203613
0.018354088068008423,0.006639298051595688,0.05286184698343277,0.02467961609363556,-0.0017635226249694824,0.007551610469818115
0.03154764324426651,-0.02083445154130459,0.06296449154615402,0.018969886004924774,0.001450270414352417,0.008239567279815674
0.014521791599690914,-0.004025458358228207,0.06168179214000702,0.004166096448898315,0.003106415271759033,0.01886504888534546
-0.03955609351396561,0.048113785684108734,0.05895532667636871,0.004648417234420776,0.011130481958389282,0.031860530376434326
-0.01137625239789486,0.03848535194993019,0.06027046963572502,-0.004064515233039856,0.005413174629211426,0.004618346691131592
0.02262299321591854,-0.004422852303832769,0.051932647824287415,-0.00773186981678009,0.01211482286453247,-0.015539944171905518
0.011238252744078636,-0.038860708475112915,0.01630052924156189,-0.01484813541173935,0.02072027325630188,-0.003919720649719238
-0.0016685670707374811,-0.01619867794215679,-0.0052358536049723625,-0.020624414086341858,0.016134589910507202,0.0130387544631958
-0.03941820189356804,0.025404183194041252,0.0003560171462595463,-0.00645185261964798,0.017404943704605103,0.02153986692428589
-0.022326165810227394,0.018121136352419853,0.006072338204830885,-0.005602613091468811,0.007547318935394287,0.003051161766052246
0.008662594482302666,-0.027861488983035088,-0.005220757331699133,-0.013494551181793213,0.006951451301574707,-0.008902549743652344
0.007170536555349827,-0.044443290680646896,-0.04062715917825699,-0.019918695092201233,0.008913874626159668,0.00884932279586792
-0.0318906344473362,0.009559202939271927,-0.04283536970615387,-0.014751233160495758,0.007187634706497192,0.03306072950363159
-0.05621722340583801,0.05017835646867752,-0.022360844537615776,-0.0012314021587371826,-0.00016361474990844727,0.03363770246505737
-0.03507392853498459,0.04537680372595787,-0.004102944862097502,0.0015101954340934753,-0.0013883709907531738,0.008468925952911377
-0.02317730337381363,0.009260663762688637,-0.01864480972290039,-0.006581217050552368,0.0006382167339324951,-0.00520932674407959
-0.027107466012239456,-0.00033780187368392944,-0.03729637339711189,-0.006403878331184387,0.005780994892120361,0.0004023909568786621
-0.03434348851442337,0.01649661548435688,-0.02126140333712101,0.00283968448638916,-0.0013584494590759277,0.00386202335357666
-0.016096508130431175,0.012509933672845364,-0.0016469776164740324,0.012017913162708282,-0.004309147596359253,-0.0021501779556274414
0.0012906785123050213,-0.0019039204344153404,0.006267491728067398,0.010013163089752197,-0.0021834969520568848,-0.008877575397491455
-0.008414341136813164,-0.00732743414118886,-0.000971765024587512,0.00577642023563385,-0.0017014145851135254,0.003833770751953125
-0.024022726342082024,-0.012646133080124855,-0.004800479393452406,0.008512474596500397,0.0005215704441070557,0.013776659965515137
-0.03140515834093094,0.013893179595470428,0.013415861874818802,0.014718763530254364,-0.002163499593734741,0.01579993963241577
-0.032475799322128296,0.048839814960956573,0.04414927586913109,0.02074144035577774,-0.0083560049533844,0.010635197162628174
-0.014132494106888771,0.04416138678789139,0.059203796088695526,0.016948625445365906,-0.0054250359535217285,-0.0020455121994018555
0.00044198986142873764,0.004284023307263851,0.04813465103507042,0.00987917184829712,0.003914833068847656,-0.0055168867111206055
-0.005390723701566458,0.007061459124088287,0.029111189767718315,-0.002773575484752655,0.004848986864089966,0.008879482746124268
-0.02028799057006836,0.026935692876577377,0.022285310551524162,-0.009253010153770447,-0.0024691224098205566,0.023201823234558105
-0.03789013251662254,0.05546758696436882,0.032264456152915955,-0.0036757439374923706,-0.002697467803955078,0.02444779872894287
-0.028807640075683594,0.048556309193372726,0.04945995658636093,-0.0019270852208137512,-0.0021115243434906006,0.009867250919342041
-0.017978966236114502,0.02754165604710579,0.060079425573349,-0.0033501535654067993,0.0036643147468566895,-0.0005173087120056152
-0.01903708651661873,0.020238162949681282,0.04111151769757271,-0.017272427678108215,0.003838181495666504,0.0007748007774353027
-0.04675954207777977,0.04214001074433327,0.015943218022584915,-0.023459769785404205,0.010887771844863892,0.01407533884048462
-0.04405895993113518,0.031008224934339523,-0.0068648215383291245,-0.023293212056159973,0.01126009225845337,0.006985902786254883
-0.009741941466927528,0.04996589943766594,-0.018411269411444664,-0.020565077662467957,0.007178455591201782,-0.0002663135528564453
-0.010247132740914822,0.026896784082055092,-0.03520292788743973,-0.013564199209213257,0.00662270188331604,0.005289673805236816
-0.046853289008140564,0.009910575114190578,-0.029471587389707565,-0.0030173808336257935,0.00910252332687378,0.014159798622131348
-0.05215077102184296,-0.012003311887383461,-0.010674837976694107,0.0025066211819648743,-0.004932314157485962,0.0037241578102111816
-0.020086582750082016,-0.03779981657862663,0.003642890602350235,0.007092371582984924,-0.008423000574111938,-0.012382328510284424
-0.01114129088819027,-0.016352318227291107,-0.007347708567976952,2.5078654289245605e-05,-0.006146788597106934,-0.007442653179168701
-0.02430182509124279,0.012498900294303894,-0.019083544611930847,-0.006905198097229004,-0.009719610214233398,0.005358695983886719
-0.008235257118940353,0.0038299947045743465,-0.005521724000573158,0.006756141781806946,-0.007927238941192627,-0.006332695484161377
0.029483698308467865,-0.03216388449072838,0.01195045281201601,0.015926003456115723,-0.005705773830413818,-0.021321356296539307
0.035653237253427505,-0.045520879328250885,0.009140688925981522,0.00820857286453247,-0.0005135536193847656,-0.007939517498016357
0.027167141437530518,-0.022094495594501495,-0.007313288748264313,-0.001589551568031311,-0.0011152327060699463,0.012212991714477539
0.0037347222678363323,0.012626375071704388,-0.007809306029230356,0.0014710873365402222,0.003434509038925171,0.024067938327789307
-0.010109555907547474,0.029364900663495064,0.010864902287721634,0.005268290638923645,0.00039264559745788574,0.015561699867248535
-0.009700048714876175,0.01545825507491827,0.02275572530925274,0.0036523789167404175,0.0006012618541717529,0.00043022632598876953
0.004773759748786688,-0.0009816172532737255,0.00010541360825300217,-0.000811748206615448,0.0071842968463897705,-0.010744750499725342
0.028896965086460114,-0.0036582970060408115,-0.018933739513158798,-0.0055023133754730225,0.010639339685440063,-0.015941143035888672
0.04681800678372383,0.028734708204865456,-0.02884024940431118,-0.0033295899629592896,0.009560644626617432,-0.009875237941741943
0.0423133447766304,0.008090822026133537,-0.017106428742408752,0.004373781383037567,0.00979575514793396,0.00137251615524292
0.029652347788214684,-0.04473692178726196,0.018074406310915947,0.015129901468753815,0.011059850454330444,0.007916867733001709
0.016264094039797783,-0.05420970916748047,0.020965922623872757,0.0008020699024200439,0.006067723035812378,0.018770337104797363
-0.002537945518270135,-0.03879764303565025,0.014275521039962769,-0.004003614187240601,0.008697956800460815,0.02974545955657959
-0.017369160428643227,-0.013760479167103767,0.02037361077964306,0.0005156099796295166,0.013650864362716675,0.03165924549102783
-0.02352699264883995,-0.01626625843346119,0.033481940627098083,0.005091577768325806,0.010081231594085693,0.02379906177520752
-0.01853414997458458,-0.024760635569691658,0.02929709106683731,-0.0010522454977035522,0.008005768060684204,0.016134321689605713
-0.037211500108242035,-0.007611427456140518,0.005279585253447294,-0.008445799350738525,0.010019361972808838,0.0190504789352417
-0.062325187027454376,0.02894611284136772,-0.02388431504368782,-0.008356496691703796,0.010452568531036377,0.020993471145629883
-0.06423646211624146,0.056022342294454575,-0.029861314222216606,0.002557136118412018,0.0077117979526519775,0.0030981898307800293
-0.015176567249000072,0.040421195328235626,-0.023030182346701622,0.014727294445037842,0.003685861825942993,-0.025798380374908447
0.036670178174972534,-0.007721215020865202,-0.01815778762102127,0.027492351830005646,0.007481276988983154,-0.041110098361968994
0.02863994985818863,-0.025967329740524292,0.0023930277675390244,0.03512515127658844,0.004454255104064941,-0.015400528907775879
-0.002265174174681306,-0.024572746828198433,0.04503193125128746,0.03980498015880585,-0.00594678521156311,0.012975871562957764
-0.011520585045218468,-0.03216518834233284,0.09114570170640945,0.047286853194236755,-0.005381107330322266,0.02689117193222046
-0.034773923456668854,-0.004137445241212845,0.12653088569641113,0.041590020060539246,-0.0032478272914886475,0.040715575218200684
-0.06318376958370209,0.048426125198602676,0.15200553834438324,0.02523791790008545,-0.00824090838432312,0.047354042530059814
-0.06580659747123718,0.08100354671478271,0.13966386020183563,0.005335457623004913,-0.008754611015319824,0.031095802783966064
-0.015169110149145126,0.06602934747934341,0.10790999233722687,-0.00784727931022644,2.321600914001465e-05,-0.0037091970443725586
0.006853954400867224,0.040467023849487305,0.09020574390888214,-0.015109196305274963,0.005205601453781128,-0.018096923828125
-0.013424355536699295,0.03293495625257492,0.08354660868644714,-0.01913052797317505,-0.002001523971557617,-0.00572967529296875
-0.03316750004887581,0.04552696645259857,0.10456714779138565,-0.018517687916755676,-0.006080925464630127,-0.003631293773651123
-0.029391318559646606,0.03977235034108162,0.11213920265436172,-0.01700262725353241,-0.0006586909294128418,-0.018994808197021484
0.012788081541657448,0.008378875441849232,0.10106373578310013,-0.020086348056793213,0.005844563245773315,-0.0419154167175293
0.060476455837488174,-0.0618542917072773,0.07826050370931625,-0.024074099957942963,0.012005895376205444,-0.052355289459228516
0.0656607449054718,-0.10253188759088516,0.036535803228616714,-0.028013519942760468,0.019780755043029785,-0.0317002534866333
0.06139708682894707,-0.11312020570039749,-0.026328815147280693,-0.03337669372558594,0.019418179988861084,-0.005852699279785156
0.061092693358659744,-0.10794168710708618,-0.0639084130525589,-0.01424013078212738,0.025145769119262695,0.017443418502807617
0.028607847169041634,-0.06457632780075073,-0.03431996703147888,0.012725859880447388,0.016606003046035767,0.049916982650756836
-0.06416802108287811,0.023306410759687424,0.03140261769294739,0.022588983178138733,-0.0022475719451904297,0.08429861068725586
-0.1431627869606018,0.11096914112567902,0.05995754525065422,0.015901856124401093,-0.00930410623550415,0.08652991056442261
-0.14757084846496582,0.13755546510219574,0.03575500473380089,0.00486176460981369,0.002143353223800659,0.04165881872177124
-0.09022585302591324,0.09300396591424942,-0.04856724664568901,-0.008381776511669159,0.01717868447303772,-0.013521552085876465
-0.03340192884206772,0.055815689265728,-0.09378235787153244,-0.006563425064086914,0.021541506052017212,-0.03820556402206421
-0.01975540816783905,0.03178035095334053,-0.09646264463663101,0.008099362254142761,0.00635567307472229,-0.029688119888305664
-0.0069035873748362064,0.031914692372083664,-0.05691426992416382,0.025371991097927094,-0.005656421184539795,-0.012210667133331299
0.0034639895893633366,0.026773832738399506,0.008532892912626266,0.020212069153785706,-0.017101407051086426,0.0030196309089660645
-0.03635057806968689,0.06002567335963249,0.09155736118555069,0.021936453878879547,-0.021856844425201416,0.02442854642868042
-0.0616377554833889,0.09888552874326706,0.14736682176589966,0.013499215245246887,-0.024786293506622314,0.022847294807434082
-0.02963482029736042,0.08052030205726624,0.14195077121257782,-0.003651842474937439,-0.013858944177627563,-0.011552155017852783
0.02511686086654663,0.03798914700746536,0.08979842066764832,-0.024492405354976654,-0.006470978260040283,-0.03724890947341919
0.048012182116508484,0.012915188446640968,0.04121328145265579,-0.02793491631746292,0.0015904903411865234,-0.031814634799957275
0.05495339259505272,0.020585939288139343,0.0015817550010979176,-0.024492062628269196,0.0061754584312438965,-0.01828378438949585
0.06752035766839981,0.029668539762496948,-0.03320924565196037,-0.018798604607582092,0.014351814985275269,-0.017566442489624023
0.09662046283483505,-0.004793702624738216,-0.03696305677294731,-0.0034555047750473022,0.018091946840286255,-0.02228856086730957
0.10940451174974442,-0.049608562141656876,-0.0012220887001603842,0.013998433947563171,0.014958828687667847,-0.006674826145172119
0.0693478211760521,-0.07559503614902496,0.0482318177819252,0.023536846041679382,0.00960463285446167,0.03174328804016113
-0.010752206668257713,-0.05159452557563782,0.09981446713209152,0.02834709733724594,0.008544176816940308,0.0702022910118103
-0.0737241804599762,-0.005437795538455248,0.12847204506397247,0.01723235845565796,0.005562245845794678,0.08511179685592651
-0.09825381636619568,0.022907203063368797,0.12518636882305145,-0.002120658755302429,0.00019800662994384766,0.07319658994674683
-0.10129725933074951,0.051399629563093185,0.08702384680509567,-0.021349303424358368,-0.0024428963661193848,0.0504230260848999
-0.12063835561275482,0.07616899162530899,0.03949660807847977,-0.023130930960178375,0.006676733493804932,0.03375732898712158
-0.11786619573831558,0.0967601016163826,0.01002497412264347,-0.018395788967609406,-0.0007605552673339844,0.005794823169708252
-0.06858095526695251,0.08346901088953018,0.007081590127199888,-0.010017096996307373,-0.010924339294433594,-0.03443038463592529
-0.021730680018663406,0.019359569996595383,0.007900555618107319,0.007150813937187195,-0.0010651350021362305,-0.048813045024871826
-0.009394451975822449,-0.03331024572253227,0.016899321228265762,0.02132604271173477,0.008645236492156982,-0.03528362512588501
-0.005220551509410143,-0.0410802997648716,0.023873327299952507,0.012020707130432129,-0.00289192795753479,-0.01412498950958252
0.00954948365688324,-0.03791270777583122,0.040117569267749786,0.0033258646726608276,-0.013333827257156372,-0.0017197728157043457
0.013420004397630692,-0.0505022332072258,0.06279787421226501,0.003169924020767212,-0.01204216480255127,0.009653925895690918
-0.012786119244992733,-0.037500832229852676,0.09780892729759216,0.003789246082305908,-0.01065877079963684,0.029481828212738037
-0.05271276831626892,1.185655128210783e-05,0.11317221820354462,-0.006882324814796448,-0.014297038316726685,0.0395541787147522
-0.061012640595436096,0.050908226519823074,0.09383378177881241,-0.0224384143948555,-0.010215222835540771,0.02831709384918213
-0.05854889005422592,0.08943519741296768,0.04678012803196907,-0.03338240087032318,0.00281602144241333,0.004503965377807617
-0.011502888053655624,0.05808546021580696,-0.029143905267119408,-0.038065873086452484,0.015328586101531982,-0.02526259422302246
0.02567191794514656,0.018603218719363213,-0.09474540501832962,-0.035536229610443115,0.023344606161117554,-0.0375363826751709
0.037652965635061264,-0.00016567861894145608,-0.12930701673030853,-0.02310255914926529,0.025075256824493408,-0.024805188179016113
0.03166179731488228,-0.02561327815055847,-0.11096842586994171,-0.004979386925697327,0.01638728380203247,-0.006818950176239014
0.018665872514247894,-0.051547322422266006,-0.07695421576499939,0.005284987390041351,0.004131823778152466,0.006640732288360596
-0.019290555268526077,-0.06897544860839844,-0.03540099784731865,0.010232798755168915,0.0019144415855407715,0.0244712233543396
-0.025512244552373886,-0.06543684005737305,-0.008916003629565239,0.008300155401229858,0.0002027750015258789,0.03252410888671875
-0.04055444151163101,-0.022209901362657547,0.0025823484174907207,0.0011665672063827515,-0.0012532174587249756,0.03932011127471924
-0.05745144933462143,0.0190777238458395,-0.008301458321511745,-0.005622655153274536,-0.002298027276992798,0.036119043827056885
-0.0638965591788292,0.05964093282818794,-0.027701033279299736,-0.005099266767501831,0.00394362211227417,0.02197122573852539
-0.027469249442219734,0.057737719267606735,-0.05565373972058296,-0.008770622313022614,0.0011429786682128906,-0.006876230239868164
-0.022703826427459717,0.04338919371366501,-0.0694800391793251,0.003739558160305023,0.011230528354644775,-0.01924985647201538
-0.0014696118887513876,-0.0008470985339954495,-0.06918548047542572,0.012195147573947906,0.00913211703300476,-0.029335856437683105
0.0056078070774674416,-0.017816277220845222,-0.034304674714803696,0.023787744343280792,0.010990649461746216,-0.02426391839981079
0.025166844949126244,-0.04003715142607689,-0.006510159932076931,0.02437572181224823,0.004590630531311035,-0.012863636016845703
0.014778935350477695,-0.033481791615486145,0.021832099184393883,0.017780661582946777,0.00878608226776123,0.008785068988800049
-0.00817105919122696,-0.03789423406124115,0.022378144785761833,0.010159067809581757,0.007442831993103027,0.028314709663391113
-0.03978918492794037,0.008204360492527485,0.017646098509430885,0.0005218163132667542,0.0038190484046936035,0.036603689193725586
-0.04775017499923706,0.018368517979979515,-0.001875363988801837,0.000849507749080658,0.006066322326660156,0.02950650453567505
-0.046221114695072174,0.0317724384367466,0.002935442142188549,0.002068758010864258,0.007541149854660034,0.011636793613433838
-0.03329479321837425,0.008598103187978268,0.011562291532754898,0.010851413011550903,0.004512041807174683,0.0007445216178894043
-0.024536773562431335,0.02682369574904442,0.02452530898153782,0.005800843238830566,0.0007129311561584473,-0.0051413774490356445
-0.029036670923233032,0.01886792480945587,0.019108707085251808,0.006979294121265411,0.005143195390701294,-0.004918098449707031
-0.00496755400672555,0.004032252822071314,0.012328032404184341,-0.003296367824077606,-7.477402687072754e-05,-0.015862226486206055
0.0010111969895660877,-0.03610121086239815,0.008207587525248528,-0.000856935977935791,-0.00042438507080078125,-0.012489497661590576
0.011651771143078804,-0.0509520024061203,0.005923242308199406,-0.0011932626366615295,-0.003137141466140747,-0.0028557181358337402
0.004896662663668394,-0.014518363401293755,0.00833153910934925,-0.002880588173866272,-0.0021962523460388184,0.011800169944763184
0.012208792380988598,0.009291788563132286,0.013322778046131134,-0.006010875105857849,-0.010457456111907959,0.012976586818695068
0.005447955336421728,0.014582257717847824,0.029279526323080063,-0.003039158880710602,-0.006731688976287842,0.013548135757446289
-0.01743985153734684,0.011844311840832233,0.042407792061567307,0.0004678294062614441,-0.0019411146640777588,0.0103532075881958
-0.008565660566091537,-0.005990011617541313,0.051675546914339066,0.007279776036739349,0.008227914571762085,-0.004076719284057617
0.021704088896512985,-0.014750014990568161,0.040823742747306824,0.0022347047924995422,0.010052263736724854,-0.016589701175689697
0.05447788164019585,-0.030529076233506203,0.020664524286985397,-0.007655516266822815,0.006997734308242798,-0.01846456527709961
0.054955508559942245,-0.025192666798830032,0.010237157344818115,-0.006577454507350922,0.011278033256530762,-0.0019698143005371094
0.025305205956101418,0.006010259501636028,0.01045207493007183,-0.0043415650725364685,0.009257346391677856,0.016319751739501953
0.009723586961627007,0.008908110670745373,0.019926492124795914,0.002911575138568878,0.00676390528678894,0.020752012729644775
