rotation_x,rotation_y,rotation_z,acceleration_x,acceleration_y,acceleration_z
0.3465847074985504,0.25254902243614197,2.094595193862915,0.11324699223041534,0.11230948567390442,-0.02342921495437622
-0.07895844429731369,0.6051160097122192,2.28004789352417,0.19671133160591125,0.07812458276748657,0.026816964149475098
-0.2147398144006729,0.8467756509780884,2.489471912384033,0.20981155335903168,0.12308388948440552,0.026075661182403564
-0.01266230084002018,0.761106014251709,2.4927351474761963,0.2086825668811798,0.11759892106056213,0.0325162410736084
0.3627035915851593,0.27692684531211853,2.2796788215637207,0.19755896925926208,0.0676499605178833,-0.013825595378875732
0.6033578515052795,-0.20566971600055695,1.961220145225525,0.18022002279758453,0.0042137205600738525,-0.06681054830551147
0.6139030456542969,-0.3040766716003418,1.6919147968292236,0.13063430786132812,-0.02642005681991577,-0.17624372243881226
0.4994235038757324,-0.11560971289873123,1.5229296684265137,0.11328701674938202,-0.004237949848175049,-0.2421535849571228
0.4268403649330139,0.22357383370399475,1.4142775535583496,0.09472784399986267,0.03805813193321228,-0.264801561832428
0.4574342966079712,0.5804265141487122,1.3170889616012573,0.056770578026771545,0.07692906260490417,-0.24649715423583984
0.5131844878196716,0.8035097718238831,1.2262964248657227,0.03615087270736694,0.09256786108016968,-0.18129295110702515
0.4620874226093292,0.831466019153595,1.141768455505371,0.04269738495349884,0.08721572160720825,-0.048407673835754395
0.3631342053413391,0.8273316621780396,0.9595847129821777,0.04577791690826416,0.06376898288726807,0.05649387836456299
0.2288762480020523,0.830216646194458,0.6970685720443726,0.03546309471130371,0.05246427655220032,0.0946623682975769
0.0457472950220108,0.831973671913147,0.5594956278800964,0.05167187750339508,0.06352826952934265,0.10065895318984985
-0.16154412925243378,0.7586032748222351,0.590656578540802,0.08445484191179276,0.08726045489311218,0.10884636640548706
-0.25429385900497437,0.5849281549453735,0.7124910354614258,0.10386604815721512,0.1300865113735199,0.09925520420074463
-0.17414294183254242,0.3959927558898926,0.8433064222335815,0.10513575375080109,0.14099213480949402,0.05241972208023071
0.007877465337514877,0.32723185420036316,0.9718006253242493,0.07892940938472748,0.15658625960350037,0.027611255645751953
0.22897030413150787,0.4132910370826721,1.0277777910232544,0.036491408944129944,0.16514381766319275,0.008162856101989746
0.29711514711380005,0.42679694294929504,1.0607329607009888,0.019603736698627472,0.15924781560897827,0.07383501529693604
0.17755451798439026,0.3165455758571625,1.0971806049346924,0.023090049624443054,0.1364796757698059,0.18521428108215332
-0.004077409394085407,0.09414302557706833,1.0992584228515625,0.03550560772418976,0.12454897165298462,0.26326650381088257
-0.15480037033557892,-0.17983759939670563,1.1116057634353638,0.046990662813186646,0.11720901727676392,0.29899388551712036
-0.2637879252433777,-0.43065863847732544,1.120208501815796,0.053698986768722534,0.12944871187210083,0.3203568458557129
-0.21635806560516357,-0.6631724834442139,1.1547410488128662,0.05074535310268402,0.16191256046295166,0.30619996786117554
-0.10550615936517715,-1.0851434469223022,1.3214125633239746,0.06492879986763,0.21518060564994812,0.36237388849258423
0.005426397547125816,-1.8677531480789185,1.7006868124008179,0.16189409792423248,0.2719017267227173,0.48957663774490356
0.09721413254737854,-2.8276867866516113,2.212265729904175,0.23681193590164185,0.3338663578033447,0.6062381267547607
0.22981645166873932,-3.8151583671569824,2.7860567569732666,0.20081984996795654,0.4776080548763275,0.6304142475128174
0.140076145529747,-4.744827747344971,3.524916648864746,0.2661148011684418,0.6037735939025879,0.626273512840271
-0.04502180963754654,-5.39503288269043,4.3750786781311035,0.300736665725708,0.7502707242965698,0.6148537397384644
0.1246606707572937,-5.738357067108154,5.034245014190674,0.19223308563232422,0.8579232692718506,0.42644166946411133
0.4996843934059143,-5.627322673797607,5.294007778167725,0.034197986125946045,0.8545777797698975,0.2066517472267151
0.3951382040977478,-4.90336275100708,5.298781871795654,-0.09927487373352051,0.7814201712608337,0.15794432163238525
-0.09481075406074524,-4.050234794616699,5.150418281555176,-0.21030110120773315,0.7390950322151184,0.211212158203125
-0.512983500957489,-3.364391803741455,4.894096374511719,-0.35233819484710693,0.7196570634841919,0.16249561309814453
-0.8269616961479187,-2.763895034790039,4.714144706726074,-0.4868975877761841,0.7321179509162903,0.04786691069602966
-1.0073912143707275,-2.114612102508545,4.711003303527832,-0.5704492330551147,0.7564288377761841,-0.0977851152420044
-0.9860402345657349,-1.732232689857483,4.586696624755859,-0.66710364818573,0.6706442832946777,-0.23776793479919434
-0.8859721422195435,-1.6618090867996216,4.139076232910156,-0.7956167459487915,0.43788018822669983,-0.3307597041130066
-0.8918765187263489,-1.752079963684082,3.5469398498535156,-0.8903365135192871,0.17632704973220825,-0.349027544260025
-0.928493857383728,-1.7441564798355103,2.855499744415283,-0.9442027807235718,-0.00858461856842041,-0.31483203172683716
-0.8594066500663757,-1.2989498376846313,2.0001609325408936,-1.086491584777832,-0.0827682614326477,-0.3503072261810303
-0.8046433329582214,-0.3381248116493225,1.031881332397461,-1.06831693649292,-0.1289464235305786,-0.41166597604751587
-0.8862213492393494,0.6971946358680725,0.21775561571121216,-0.8676861524581909,-0.23054492473602295,-0.36893248558044434
-1.058696985244751,1.6365830898284912,-0.23771263659000397,-0.6116549372673035,-0.23910492658615112,-0.27137166261672974
-1.167213797569275,2.2278122901916504,-0.3521289825439453,-0.3953036665916443,-0.20640712976455688,-0.17431484162807465
-1.0267328023910522,2.2959210872650146,-0.22405916452407837,-0.2297040820121765,-0.1997852921485901,-0.12780976295471191
-0.6007821559906006,1.9818837642669678,0.031492121517658234,-0.15595614910125732,-0.21381396055221558,-0.11320602893829346
-0.0389939621090889,1.3038299083709717,0.3323230743408203,-0.115936279296875,-0.2516857981681824,-0.09218214452266693
0.43829846382141113,0.4119047522544861,0.6373158693313599,-0.09267324209213257,-0.3069377541542053,-0.03072795271873474
0.8870132565498352,-0.525610089302063,0.9337429404258728,-0.09560501575469971,-0.3688722252845764,0.0034696608781814575
1.3243805170059204,-1.3819289207458496,1.2361928224563599,-0.11672711372375488,-0.42679744958877563,-0.006910651922225952
1.713735818862915,-2.0701794624328613,1.4647654294967651,-0.18267637491226196,-0.461520791053772,-0.018830537796020508
2.0502090454101562,-2.5292203426361084,1.5934977531433105,-0.2762395739555359,-0.4877890348434448,-0.037328511476516724
2.3431413173675537,-2.7428250312805176,1.5792145729064941,-0.3769412040710449,-0.49633193016052246,-0.07214197516441345
2.58853816986084,-2.8170166015625,1.3098894357681274,-0.48412346839904785,-0.5246856212615967,-0.07944327592849731
2.719301462173462,-2.812418222427368,0.8223171234130859,-0.5747334361076355,-0.5488623380661011,-0.0635668933391571
2.678331136703491,-2.7150228023529053,0.3406333923339844,-0.5750418901443481,-0.5484482645988464,-0.02750527858734131
2.4860551357269287,-2.4896013736724854,-0.06751388311386108,-0.5325353145599365,-0.5213209390640259,0.0024085789918899536
2.1615357398986816,-2.1787264347076416,-0.3868280351161957,-0.4587017297744751,-0.4772431254386902,0.023284494876861572
1.737688660621643,-1.845284342765808,-0.6639328002929688,-0.4080013632774353,-0.4341655969619751,0.03877982497215271
1.3266271352767944,-1.6646182537078857,-0.8597202897071838,-0.3785068392753601,-0.3706046938896179,0.04117530584335327
1.2563095092773438,-1.8562047481536865,-0.9317219853401184,-0.33276742696762085,-0.297529399394989,-0.019536465406417847
1.5151734352111816,-2.232485771179199,-0.8384431004524231,-0.2671029567718506,-0.25273048877716064,-0.1621112823486328
1.801719307899475,-2.4525129795074463,-0.6762613654136658,-0.23967140913009644,-0.19977515935897827,-0.27250272035598755
1.8662608861923218,-2.48154878616333,-0.5460789799690247,-0.26338785886764526,-0.15506190061569214,-0.32195842266082764
1.6732196807861328,-2.4857592582702637,-0.4252263605594635,-0.3514630198478699,-0.069205641746521,-0.3249526023864746
1.5715092420578003,-2.382037878036499,-0.47190549969673157,-0.5119714140892029,-0.0075113773345947266,-0.41236698627471924
1.7038565874099731,-2.110949993133545,-0.7458937764167786,-0.655552864074707,-0.05645883083343506,-0.5814860463142395
1.9275416135787964,-1.7310622930526733,-1.3108651638031006,-0.7813301086425781,-0.08033543825149536,-0.7004824876785278
1.9846398830413818,-1.3427249193191528,-2.0347723960876465,-0.8359047174453735,-0.010413885116577148,-0.6495462656021118
1.78134024143219,-1.0780540704727173,-2.5914340019226074,-0.721310555934906,0.04042699933052063,-0.513058066368103
1.3986549377441406,-0.9611519575119019,-2.8411481380462646,-0.48078078031539917,0.09677696228027344,-0.38213303685188293
1.0507348775863647,-0.9535322189331055,-2.967650890350342,-0.2739361524581909,0.15217146277427673,-0.324207067489624
0.8026362657546997,-1.0080772638320923,-3.1644320487976074,-0.16777265071868896,0.21108576655387878,-0.34021127223968506
0.5876854658126831,-0.9274191856384277,-3.434321641921997,-0.1426938772201538,0.30345064401626587,-0.3887556791305542
0.28275179862976074,-0.5779195427894592,-3.5513458251953125,-0.06216365098953247,0.42858439683914185,-0.40710437297821045
-0.06818380206823349,0.0701836571097374,-3.3638224601745605,0.07305485010147095,0.5487922430038452,-0.3961635231971741
-0.4174768924713135,0.8586015105247498,-2.8831005096435547,0.25176459550857544,0.614826500415802,-0.3804960250854492
-0.7067033052444458,1.5170817375183105,-2.3125641345977783,0.4021259546279907,0.6112786531448364,-0.32318931818008423
-0.7847195863723755,1.8119964599609375,-1.8473786115646362,0.46545636653900146,0.5664021968841553,-0.2672700881958008
-0.6082667112350464,1.7640551328659058,-1.5359851121902466,0.4651588797569275,0.5225308537483215,-0.24111305177211761
-0.2334543615579605,1.4639092683792114,-1.2655400037765503,0.4633132219314575,0.5058000087738037,-0.2168792486190796
0.27266913652420044,0.9897038340568542,-0.9497545957565308,0.4804105758666992,0.5168049335479736,-0.18793845176696777
0.7895238399505615,0.40710338950157166,-0.582979142665863,0.49714428186416626,0.5381119251251221,-0.1503867506980896
1.1767642498016357,-0.1966160088777542,-0.17186206579208374,0.5232556462287903,0.5649451017379761,-0.10015542805194855
1.359413504600525,-0.7223336100578308,0.22928676009178162,0.5403138399124146,0.5735147595405579,-0.046940356492996216
1.382775068283081,-1.1065466403961182,0.5759146213531494,0.5200715661048889,0.5635473728179932,-0.016187697649002075
1.3539981842041016,-1.2810523509979248,0.8380313515663147,0.4611736536026001,0.5682967901229858,-0.035818278789520264
1.2913508415222168,-1.3149802684783936,0.9876023530960083,0.40102940797805786,0.5526949763298035,-0.0769495815038681
1.1578420400619507,-1.1780486106872559,1.094915509223938,0.35540974140167236,0.5328689217567444,-0.0996793881058693
0.9423314332962036,-0.866142213344574,1.2100588083267212,0.3353304862976074,0.5128850936889648,-0.11281919479370117
0.6745204925537109,-0.4552004039287567,1.3290108442306519,0.3160703778266907,0.488513708114624,-0.1175222396850586
0.40724867582321167,-0.014921844936907291,1.4366042613983154,0.28349852561950684,0.47963494062423706,-0.11545586585998535
0.18538504838943481,0.3089708983898163,1.4545214176177979,0.22338640689849854,0.45214423537254333,-0.09904860705137253
-0.023417823016643524,0.5141904950141907,1.4387315511703491,0.17689192295074463,0.40994077920913696,-0.06977628916501999
-0.25473254919052124,0.6525039076805115,1.4611550569534302,0.1540338397026062,0.39241886138916016,-0.023472793400287628
-0.5147687792778015,0.6990222334861755,1.5289157629013062,0.13847649097442627,0.37281954288482666,0.007150053977966309
-0.7939972877502441,0.6594446301460266,1.587321400642395,0.10202574729919434,0.36655575037002563,0.02578355371952057
-1.0570913553237915,0.5744131207466125,1.6533887386322021,0.057127535343170166,0.36747586727142334,0.020310409367084503
-1.2460997104644775,0.5132725834846497,1.7459957599639893,0.008169233798980713,0.3678170442581177,-0.020505189895629883
-1.378496766090393,0.4787062406539917,1.8558844327926636,-0.04398071765899658,0.36255890130996704,-0.06845039129257202
-1.4842896461486816,0.47374480962753296,1.9393095970153809,-0.09308671951293945,0.3323226571083069,-0.10880231857299805
-1.5724539756774902,0.35862141847610474,1.9858934879302979,-0.14743643999099731,0.298268586397171,-0.15006524324417114
-1.6031643152236938,0.30177032947540283,2.014382839202881,-0.26578694581985474,0.3406885266304016,-0.17982088029384613
-1.4573078155517578,0.39575809240341187,2.1518101692199707,-0.35536712408065796,0.37114131450653076,-0.2432384490966797
-1.1596497297286987,0.5017246603965759,2.3112905025482178,-0.4024469256401062,0.3083721697330475,-0.3047634959220886
-0.883689820766449,0.47626426815986633,2.3933675289154053,-0.4203685522079468,0.14979484677314758,-0.30621087551116943
-0.669983983039856,0.49694275856018066,2.3450915813446045,-0.47736525535583496,0.03964817523956299,-0.25648605823516846
-0.34386610984802246,0.4883388578891754,2.1451990604400635,-0.5309723615646362,-0.07237434387207031,-0.24581211805343628
0.05018124356865883,0.4271812438964844,1.9270321130752563,-0.5190528631210327,-0.19640052318572998,-0.22519510984420776
0.3841725289821625,0.3625495433807373,1.7122178077697754,-0.4516639709472656,-0.3077746629714966,-0.17658422887325287
0.5623546242713928,0.3220391869544983,1.4842733144760132,-0.3875160217285156,-0.4142831563949585,-0.10258185863494873
0.5817514061927795,0.29876285791397095,1.2565251588821411,-0.3304505944252014,-0.4851892590522766,-0.021405503153800964
0.5298184156417847,0.26168346405029297,1.0569524765014648,-0.29939591884613037,-0.5005984902381897,0.03991378843784332
0.5046183466911316,0.2182186245918274,0.9584786891937256,-0.2955750823020935,-0.44983118772506714,0.06131191551685333
0.5585246086120605,0.12449407577514648,0.9339483380317688,-0.3086862564086914,-0.3767186403274536,0.0541723370552063
0.6603149771690369,-0.03217395022511482,0.9163041710853577,-0.32915759086608887,-0.35276246070861816,0.05021423101425171
0.7641974687576294,-0.19114480912685394,0.8144170045852661,-0.3519207835197449,-0.3782784342765808,0.05950833857059479
0.8222739696502686,-0.33093753457069397,0.6245051622390747,-0.35084468126296997,-0.4428982734680176,0.08035379648208618
0.8082541823387146,-0.44660231471061707,0.32234448194503784,-0.3544561266899109,-0.5010193586349487,0.10988298058509827
0.6977511644363403,-0.45801037549972534,0.026278650388121605,-0.34732604026794434,-0.5238943099975586,0.133320152759552
0.46932336688041687,-0.4073079824447632,-0.19254717230796814,-0.3044353723526001,-0.5071303844451904,0.15784013271331787
0.19061033427715302,-0.3120902478694916,-0.3513665199279785,-0.2770678400993347,-0.4691254496574402,0.16912269592285156
-0.037497181445360184,-0.2531642019748688,-0.504388153553009,-0.2591856122016907,-0.4323747754096985,0.14185139536857605
-0.1616092026233673,-0.2804882228374481,-0.7128356695175171,-0.2637597322463989,-0.4122393727302551,0.09496557712554932
-0.2557576894760132,-0.3136175274848938,-0.9071190357208252,-0.24988090991973877,-0.3950747847557068,0.05162033438682556
-0.375728040933609,-0.26848340034484863,-0.9836229681968689,-0.21113526821136475,-0.35498613119125366,0.020457684993743896
-0.45180773735046387,-0.26093292236328125,-1.010825753211975,-0.1669597029685974,-0.32403653860092163,-0.018339082598686218
-0.4524141550064087,-0.3034227788448334,-1.0634410381317139,-0.17994040250778198,-0.2829989790916443,-0.06545130908489227
-0.3596496284008026,-0.33234143257141113,-1.164768099784851,-0.23373520374298096,-0.2249739170074463,-0.11116397380828857
-0.27161258459091187,-0.27128157019615173,-1.2913861274719238,-0.28693604469299316,-0.1624273657798767,-0.14502285420894623
-0.3049980401992798,-0.13469532132148743,-1.4493001699447632,-0.31262052059173584,-0.13220441341400146,-0.13917720317840576
-0.49094700813293457,0.026977917179465294,-1.5722005367279053,-0.282584011554718,-0.12458115816116333,-0.10434281826019287
-0.6032603979110718,0.25132763385772705,-1.659646987915039,-0.24645906686782837,-0.09457314014434814,-0.11586397886276245
-0.5512449741363525,0.4565082788467407,-1.7073662281036377,-0.19636493921279907,-0.047457993030548096,-0.16664952039718628
-0.32395419478416443,0.5356192588806152,-1.7423970699310303,-0.16664570569992065,0.013852894306182861,-0.19849513471126556
0.0014226548373699188,0.4532663822174072,-1.6931742429733276,-0.13260948657989502,0.08559688925743103,-0.21438442170619965
0.29675227403640747,0.18648077547550201,-1.5181089639663696,-0.1267794370651245,0.21100080013275146,-0.1950705647468567
0.6366240382194519,-0.06080484762787819,-1.1814334392547607,-0.1609998345375061,0.3867448568344116,-0.16907668113708496
1.2087106704711914,-0.0917748361825943,-0.6415216326713562,-0.14137190580368042,0.4530731439590454,-0.20164372026920319
1.7900097370147705,-0.2719963490962982,-0.24843066930770874,-0.013396084308624268,0.28864121437072754,-0.2148228883743286
1.9810949563980103,-0.47245272994041443,-0.193827822804451,0.032437682151794434,0.07203811407089233,-0.1056908369064331
1.8787742853164673,-0.5790086388587952,-0.40100282430648804,0.014502763748168945,-0.028831779956817627,0.018111228942871094
1.7867594957351685,-0.6523188948631287,-0.5950939655303955,0.010834097862243652,-0.031048625707626343,0.057788729667663574
1.8143359422683716,-0.7808283567428589,-0.6237187385559082,0.05665343999862671,0.03319394588470459,0.04175056517124176
1.8940297365188599,-0.9576371908187866,-0.5273947715759277,0.09417140483856201,0.11983808875083923,0.020190730690956116
1.9203109741210938,-1.2233519554138184,-0.36884456872940063,0.11322367191314697,0.19056570529937744,0.005494028329849243
1.7917966842651367,-1.5400333404541016,-0.18144890666007996,0.11818331480026245,0.2440997064113617,0.010142102837562561
1.5748224258422852,-1.7274097204208374,-0.017974097281694412,0.09160375595092773,0.2882709205150604,-0.019738540053367615
1.419878602027893,-1.7571793794631958,0.11928927898406982,0.06519889831542969,0.3077927827835083,-0.10520325601100922
1.373564600944519,-1.6818455457687378,0.2116459161043167,0.07448911666870117,0.26797881722450256,-0.20439887046813965
1.4213613271713257,-1.498760461807251,0.20941877365112305,0.08307486772537231,0.21639800071716309,-0.28317415714263916
1.515439510345459,-1.2809947729110718,0.18079271912574768,0.10672855377197266,0.15989091992378235,-0.3235739469528198
1.66620671749115,-1.080559492111206,0.12333822250366211,0.1138848066329956,0.16032055020332336,-0.3476405143737793
1.8091192245483398,-1.093460202217102,0.12920941412448883,0.14752739667892456,0.15602687001228333,-0.342854380607605
1.8644551038742065,-1.2391211986541748,0.22751329839229584,0.18052995204925537,0.18176934123039246,-0.30358564853668213
1.8705521821975708,-1.4566624164581299,0.3430599272251129,0.1719689965248108,0.21005511283874512,-0.28884685039520264
1.8427629470825195,-1.650194764137268,0.42346566915512085,0.12375587224960327,0.24358895421028137,-0.3069392442703247
1.7585511207580566,-1.7447847127914429,0.422819584608078,0.05704951286315918,0.24224278330802917,-0.3446735143661499
1.572536826133728,-1.5833247900009155,0.4029428958892822,-0.005853533744812012,0.23622402548789978,-0.3765302896499634
1.2936584949493408,-1.340780258178711,0.3428874909877777,-0.0052384138107299805,0.17648491263389587,-0.4111173152923584
0.8977211713790894,-0.9737145304679871,0.20305809378623962,0.0012491941452026367,0.09808862209320068,-0.41961610317230225
0.4921185076236725,-0.3959401249885559,-0.03351084515452385,-0.013742029666900635,0.05836370587348938,-0.43542802333831787
0.18983770906925201,0.1879294514656067,-0.2674565613269806,0.019312679767608643,0.03882038593292236,-0.47018909454345703
0.05194433778524399,0.6798641681671143,-0.41070467233657837,0.07305151224136353,0.05458945035934448,-0.4930722713470459
0.026667527854442596,0.9998798966407776,-0.4247211515903473,0.16137903928756714,0.08519026637077332,-0.48874127864837646
0.08230988681316376,1.113816738128662,-0.36496907472610474,0.2436525821685791,0.10187488794326782,-0.45793092250823975
0.23557499051094055,1.0460249185562134,-0.2976340353488922,0.29293107986450195,0.10676059126853943,-0.4358971118927002
0.45879462361335754,0.8455199003219604,-0.17034798860549927,0.32600897550582886,0.1264650523662567,-0.42080044746398926
0.7512005567550659,0.5914385318756104,0.06315191090106964,0.35958439111709595,0.16153916716575623,-0.4103490114212036
1.1489063501358032,0.28063395619392395,0.34444963932037354,0.3680955767631531,0.18930527567863464,-0.4149022102355957
1.6128402948379517,-0.030959315598011017,0.6055226922035217,0.33834654092788696,0.20140805840492249,-0.42042768001556396
2.028986930847168,-0.2598155736923218,0.7880812883377075,0.27922528982162476,0.1885102391242981,-0.407470166683197
2.2593681812286377,-0.39295098185539246,0.8308438658714294,0.18455517292022705,0.18436846137046814,-0.3454226851463318
2.3438069820404053,-0.43896177411079407,0.8372164964675903,0.09244847297668457,0.17611339688301086,-0.28642773628234863
2.295675039291382,-0.42559003829956055,0.8619551658630371,0.029630601406097412,0.17127320170402527,-0.24298924207687378
2.1452178955078125,-0.3571085035800934,0.8963406085968018,-0.03446120023727417,0.16451317071914673,-0.20880115032196045
1.9602004289627075,-0.27563348412513733,0.8494254946708679,-0.12753963470458984,0.14000970125198364,-0.18838749825954437
1.815197229385376,-0.13767863810062408,0.7227384448051453,-0.22238487005233765,0.13331344723701477,-0.19101333618164062
1.7630802392959595,-0.002125091850757599,0.5170774459838867,-0.29868417978286743,0.12257754802703857,-0.2117122858762741
1.7868084907531738,0.10084618628025055,0.30107733607292175,-0.31338924169540405,0.10278725624084473,-0.21492598950862885
1.8752241134643555,0.1436792016029358,0.130832701921463,-0.28315770626068115,0.08824840188026428,-0.2045881748199463
2.0187954902648926,0.16968433558940887,-0.02681652456521988,-0.245294451713562,0.09489044547080994,-0.17110277712345123
2.1597390174865723,0.17045383155345917,-0.13834550976753235,-0.20008200407028198,0.0972408652305603,-0.1124468743801117
2.243849992752075,0.18028667569160461,-0.20974333584308624,-0.12961995601654053,0.10051822662353516,-0.04850625991821289
2.280851125717163,0.16954675316810608,-0.2705215811729431,-0.06821250915527344,0.0847412645816803,0.02096235752105713
2.3050544261932373,0.1560918390750885,-0.3121577203273773,-0.0200502872467041,0.07499483227729797,0.07919147610664368
2.2957842350006104,0.14186754822731018,-0.3183120787143707,0.03393828868865967,0.07075032591819763,0.1365293264389038
2.216710090637207,0.11625871062278748,-0.28323671221733093,0.09178543090820312,0.07022878527641296,0.19795569777488708
2.0985732078552246,0.11546292901039124,-0.2134312093257904,0.13632303476333618,0.06509900093078613,0.25819963216781616
1.9374594688415527,0.0970226526260376,-0.13269688189029694,0.16283255815505981,0.06854578852653503,0.3032272160053253
1.7288659811019897,0.047878462821245193,-0.04986518621444702,0.1755504012107849,0.0638931393623352,0.3557208776473999
1.5266000032424927,-0.030145136639475822,0.07953115552663803,0.16409647464752197,0.07770287990570068,0.39912647008895874
1.3487547636032104,-0.24898330867290497,0.261057585477829,0.153678297996521,0.09941080212593079,0.4147475063800812
0.9872592687606812,-0.7850178480148315,0.4666560888290405,0.08478760719299316,0.1580357551574707,0.4463103711605072
0.4289987087249756,-1.2772752046585083,0.7025805711746216,-0.050662457942962646,0.29213300347328186,0.4815908372402191
-0.06911832839250565,-1.3602648973464966,0.983614444732666,-0.16671597957611084,0.38000160455703735,0.40126359462738037
-0.32880163192749023,-1.1229599714279175,1.1871217489242554,-0.20403724908828735,0.3223567008972168,0.23684564232826233
-0.45662617683410645,-0.7367910146713257,1.1428327560424805,-0.18493759632110596,0.129110187292099,0.10748836398124695
-0.6423799991607666,-0.21398580074310303,0.8328037858009338,-0.16640937328338623,-0.05430981516838074,0.08282831311225891
-0.7725426554679871,0.4037669003009796,0.2863740921020508,-0.18840837478637695,-0.1581902801990509,0.0885867029428482
-0.6671674251556396,0.8818461298942566,-0.21957799792289734,-0.15110021829605103,-0.18663600087165833,0.0565183162689209
-0.48272082209587097,0.9386537671089172,-0.4886002540588379,-0.00322115421295166,-0.19832885265350342,0.06597645580768585
-0.4386328458786011,0.6164749264717102,-0.5978913903236389,0.07907229661941528,-0.1423131227493286,0.13358330726623535
-0.5679193139076233,0.19277827441692352,-0.604004979133606,0.05119889974594116,-0.00033345818519592285,0.19557753205299377
-0.7757156491279602,-0.20893026888370514,-0.4848344326019287,0.0006265044212341309,0.1551046073436737,0.19391769170761108
-0.9900544285774231,-0.39736294746398926,-0.2526650130748749,-0.022211849689483643,0.27465155720710754,0.13540416955947876
-1.1727540493011475,-0.3798127770423889,-0.01157299056649208,-0.010041117668151855,0.30428528785705566,0.03855861723423004
-1.332154393196106,-0.24122503399848938,0.19544243812561035,0.05109274387359619,0.25578513741493225,-0.0397326797246933
-1.4090445041656494,-0.003674896899610758,0.34946829080581665,0.09625416994094849,0.18286892771720886,-0.10503552854061127
-1.3121131658554077,0.2756311297416687,0.4292061924934387,0.10044217109680176,0.13371765613555908,-0.17967498302459717
-1.0337542295455933,0.5019169449806213,0.5443376302719116,0.10960042476654053,0.10562685132026672,-0.23619821667671204
-0.6181890964508057,0.5412278175354004,0.7436455488204956,0.11407744884490967,0.09253939986228943,-0.24819765985012054
-0.19287267327308655,0.311679482460022,0.9634878635406494,0.1021801233291626,0.09283998608589172,-0.21025437116622925
0.18439580500125885,-0.09842656552791595,1.1170084476470947,0.04749166965484619,0.05325049161911011,-0.15436965227127075
0.4736882150173187,-0.4574389159679413,1.2049059867858887,-0.022486627101898193,0.020309925079345703,-0.11901295185089111
0.6186390519142151,-0.646832287311554,1.1995993852615356,-0.08894109725952148,-0.035896629095077515,-0.09438250958919525
0.6620911359786987,-0.5794036388397217,1.099169373512268,-0.14909648895263672,-0.09717699885368347,-0.08530318737030029
0.6525403261184692,-0.3040730655193329,0.9710748791694641,-0.17077624797821045,-0.17299142479896545,-0.07855471968650818
0.6012790203094482,0.03586626425385475,0.7759600281715393,-0.16735738515853882,-0.24419820308685303,-0.05037306249141693
0.564225435256958,0.30409643054008484,0.5527656674385071,-0.14688360691070557,-0.3064667582511902,-0.006236523389816284
0.6384381651878357,0.3736463189125061,0.35619056224823,-0.09665954113006592,-0.3320028781890869,0.037688449025154114
0.8088183999061584,0.29426851868629456,0.23817040026187897,-0.052581191062927246,-0.3295818567276001,0.06147485971450806
0.9507774710655212,0.17372392117977142,0.21310731768608093,-0.01789724826812744,-0.29495543241500854,0.10359972715377808
0.9909684062004089,0.010591870173811913,0.2648501992225647,-0.006579041481018066,-0.2515662908554077,0.16320663690567017
0.891811728477478,-0.156850665807724,0.3566012382507324,-0.01606762409210205,-0.225189208984375,0.22094249725341797
0.6891134977340698,-0.3020792603492737,0.4426933825016022,-0.050248026847839355,-0.21350693702697754,0.26307037472724915
0.49174177646636963,-0.3757805824279785,0.4556547701358795,-0.11073589324951172,-0.21606510877609253,0.2539251744747162
0.3753088414669037,-0.3894040882587433,0.3988809883594513,-0.1714867353439331,-0.24010306596755981,0.20103806257247925
0.32709887623786926,-0.31221044063568115,0.27015820145606995,-0.22646290063858032,-0.2501941919326782,0.14679068326950073
0.3122614920139313,-0.2549550235271454,0.06811844557523727,-0.25933146476745605,-0.2769491672515869,0.11347448825836182
0.2836257815361023,-0.21819175779819489,-0.1371411681175232,-0.2630597949028015,-0.2879343628883362,0.10422119498252869
0.2379167675971985,-0.169289693236351,-0.303430438041687,-0.2638081908226013,-0.26606667041778564,0.10261115431785583
0.2177094668149948,-0.12740926444530487,-0.41220542788505554,-0.2724560499191284,-0.20125854015350342,0.09434491395950317
0.2186156064271927,-0.12212226539850235,-0.4556569457054138,-0.2868204712867737,-0.1074897050857544,0.08456030488014221
0.2505844831466675,-0.17622055113315582,-0.4629000425338745,-0.3058638572692871,-0.034877777099609375,0.08151251077651978
0.2954466640949249,-0.2679636478424072,-0.4968778192996979,-0.32990342378616333,-0.004448831081390381,0.08143749833106995
0.39720556139945984,-0.3454777002334595,-0.6171720623970032,-0.33963197469711304,-0.0303155779838562,0.07436421513557434
0.5297096967697144,-0.4328691065311432,-0.7886086702346802,-0.2923266291618347,-0.10203611850738525,0.062157660722732544
0.589572012424469,-0.606243371963501,-0.9996311068534851,-0.24404823780059814,-0.13837122917175293,0.08581346273422241
0.5019004344940186,-0.7815554141998291,-1.1434900760650635,-0.2334849238395691,-0.06971484422683716,0.12593379616737366
0.31971585750579834,-0.9358822107315063,-1.1548302173614502,-0.2412281632423401,0.06589731574058533,0.1354074478149414
0.11225036531686783,-1.0775259733200073,-1.078603982925415,-0.25222742557525635,0.1813586950302124,0.09965232014656067
-0.07487006485462189,-1.1245698928833008,-1.0675691366195679,-0.2836403250694275,0.23712459206581116,0.028429150581359863
-0.26567187905311584,-1.0385404825210571,-1.184801697731018,-0.30923110246658325,0.23708868026733398,-0.03688405454158783
-0.5210584402084351,-0.7835260629653931,-1.4184447526931763,-0.30264216661453247,0.21232283115386963,-0.0807846337556839
-0.7843395471572876,-0.33274978399276733,-1.6854315996170044,-0.27226388454437256,0.21371862292289734,-0.11340157687664032
-0.9486914277076721,0.18456046283245087,-1.891696810722351,-0.20041924715042114,0.2548108994960785,-0.13743823766708374
-0.9850528836250305,0.5748197436332703,-1.9822697639465332,-0.08786153793334961,0.2912234663963318,-0.14538222551345825
-0.9844200611114502,0.7614665627479553,-1.9494550228118896,0.029656589031219482,0.3269032835960388,-0.10884727537631989
-0.9345974326133728,0.7811959385871887,-1.861235499382019,0.12712156772613525,0.3503377139568329,-0.05895012617111206
-0.8344468474388123,0.6705659031867981,-1.7356560230255127,0.19228708744049072,0.3687782287597656,-0.033000752329826355
-0.6865292191505432,0.47942307591438293,-1.572077989578247,0.2554514408111572,0.37912142276763916,-0.020000919699668884
-0.5118030309677124,0.28426915407180786,-1.389984369277954,0.3028998374938965,0.3941649794578552,-0.017690956592559814
-0.32233497500419617,0.08401747047901154,-1.2076435089111328,0.3416624665260315,0.3954830765724182,-0.024586975574493408
-0.19065263867378235,-0.04109127074480057,-1.0025566816329956,0.36760711669921875,0.4060521721839905,-0.0170900821685791
-0.1587766855955124,-0.07620319724082947,-0.7937198281288147,0.38371092081069946,0.42106741666793823,0.005896776914596558
-0.21307486295700073,-0.07434200495481491,-0.5694249272346497,0.4010850191116333,0.4250970184803009,0.04067608714103699
-0.28416162729263306,-0.048802752047777176,-0.3414822518825531,0.41394490003585815,0.4198475480079651,0.06641417741775513
-0.37713223695755005,-0.009293762966990471,-0.11226564645767212,0.4228106737136841,0.409151166677475,0.07973416149616241
-0.5297008752822876,0.009833412244915962,0.08012697100639343,0.4263650178909302,0.39437371492385864,0.10315975546836853
-0.7068707942962646,0.0010652040364220738,0.21044296026229858,0.4255642890930176,0.35233134031295776,0.11793245375156403
-0.8596103191375732,0.028619391843676567,0.3257802724838257,0.42110633850097656,0.3278684616088867,0.11377370357513428
-0.8949671983718872,0.09470174461603165,0.44113990664482117,0.41141074895858765,0.3150351941585541,0.097776859998703
-0.8011006712913513,0.14324024319648743,0.47982898354530334,0.36107367277145386,0.2927291989326477,0.08068153262138367
-0.8774684071540833,0.061215996742248535,0.5921120047569275,0.3372425436973572,0.28396058082580566,0.12119695544242859
-1.2837510108947754,-0.229991152882576,0.8825891017913818,0.2734779715538025,0.3522137403488159,0.20327383279800415
-1.842854619026184,-0.47870802879333496,1.3953437805175781,0.19151151180267334,0.4554913640022278,0.22958827018737793
-2.1500673294067383,-0.5591868162155151,1.9453489780426025,0.07288092374801636,0.4900952875614166,0.08266587555408478
-2.0643937587738037,-0.6164281964302063,2.191286563873291,-0.06061387062072754,0.3929414749145508,-0.14485536515712738
-1.7649750709533691,-0.4049823582172394,2.0258781909942627,-0.20674121379852295,0.2141408920288086,-0.3425366282463074
-1.5190740823745728,0.09237442910671234,1.6196587085723877,-0.3199400305747986,0.07222980260848999,-0.4229224920272827
-1.3309335708618164,0.6056098937988281,1.3309764862060547,-0.33061712980270386,0.028622597455978394,-0.4146149158477783
-1.1378058195114136,0.9216976761817932,1.3621852397918701,-0.26155054569244385,0.06843411922454834,-0.37478429079055786
-0.8398541808128357,0.9556491374969482,1.5954631567001343,-0.2121645212173462,0.1377207338809967,-0.32588422298431396
-0.4606044590473175,0.7829408645629883,1.7716468572616577,-0.21418172121047974,0.1023256778717041,-0.2940875291824341
-0.12013600021600723,0.46372851729393005,1.808619499206543,-0.2341747283935547,0.015437513589859009,-0.23685984313488007
0.1742725372314453,0.14281141757965088,1.6096726655960083,-0.27798378467559814,-0.09873932600021362,-0.18468107283115387
0.3708917200565338,-0.06286794692277908,1.3001306056976318,-0.2996329069137573,-0.19414427876472473,-0.1372302770614624
0.33709728717803955,-0.040455807000398636,1.0470575094223022,-0.28613191843032837,-0.2353787124156952,-0.07753704488277435
0.05374370142817497,0.16150100529193878,0.870437502861023,-0.2681036591529846,-0.2195819616317749,-0.0020974278450012207
-0.410936176776886,0.45181453227996826,0.7788680195808411,-0.26501137018203735,-0.19953769445419312,0.06505566835403442
-0.9290508031845093,0.7567135691642761,0.7577535510063171,-0.2602013945579529,-0.16432374715805054,0.08856332302093506
-1.3341658115386963,0.9066921472549438,0.6700652241706848,-0.2726190686225891,-0.1711341142654419,0.06515248119831085
-1.5143760442733765,1.0443650484085083,0.43561768531799316,-0.32672029733657837,-0.1989707350730896,0.007715210318565369
-1.5401123762130737,1.2006778717041016,0.20695117115974426,-0.32289206981658936,-0.2457979917526245,-0.051070451736450195
-1.5644642114639282,1.3994462490081787,0.017890293151140213,-0.25745904445648193,-0.2997121810913086,-0.051259711384773254
-1.5947991609573364,1.5556973218917847,-0.11821867525577545,-0.17731541395187378,-0.3554210066795349,-0.022462353110313416
-1.5394638776779175,1.6289011240005493,-0.22450563311576843,-0.10401880741119385,-0.3874022364616394,0.006237119436264038
-1.3336642980575562,1.5581886768341064,-0.2790469229221344,-0.024255990982055664,-0.4187912940979004,0.0028006434440612793
-0.9523380398750305,1.3859608173370361,-0.2557641267776489,0.05062359571456909,-0.4478469491004944,-0.004695042967796326
-0.45799142122268677,1.1245832443237305,-0.24379192292690277,0.08863496780395508,-0.46297961473464966,-0.009765848517417908
-0.07615112513303757,0.8850899338722229,-0.2782156467437744,0.08629393577575684,-0.4751337766647339,0.03400301933288574
0.09061410278081894,0.6641597151756287,-0.25277143716812134,0.09040176868438721,-0.46407270431518555,0.11287003755569458
0.0952242761850357,0.43844735622406006,-0.1344148963689804,0.0939483642578125,-0.4464067220687866,0.17692482471466064
0.017652278766036034,0.24380163848400116,-0.029197722673416138,0.03930443525314331,-0.40340232849121094,0.21099922060966492
-0.11778826266527176,0.0812394917011261,0.06346523016691208,-0.06605899333953857,-0.35348665714263916,0.2185330092906952
-0.31205570697784424,-0.04520623758435249,0.09571611136198044,-0.18347203731536865,-0.3123393654823303,0.2076823115348816
-0.49355801939964294,-0.12078586220741272,0.04987512156367302,-0.3154330849647522,-0.2867807149887085,0.16269764304161072
-0.5902024507522583,-0.19303947687149048,-0.06386395543813705,-0.41915231943130493,-0.28761017322540283,0.09733927249908447
-0.6064710021018982,-0.35814568400382996,-0.23179124295711517,-0.49328041076660156,-0.29015588760375977,0.021111875772476196
-0.5035818815231323,-0.514079749584198,-0.4075753390789032,-0.5822309255599976,-0.2010955810546875,-0.04767501354217529
-0.13763640820980072,-0.6798349618911743,-0.5833798050880432,-0.6277195811271667,-0.1234176754951477,-0.1421043574810028
0.3790398836135864,-0.8955693244934082,-0.8683903813362122,-0.6109274625778198,-0.13772433996200562,-0.22181099653244019
0.7477015852928162,-1.0416650772094727,-1.225097417831421,-0.5249255299568176,-0.20477092266082764,-0.22455298900604248
0.7900071144104004,-0.9947744011878967,-1.4825141429901123,-0.44235312938690186,-0.19852745532989502,-0.16777341067790985
0.6669241786003113,-0.8205524682998657,-1.65218985080719,-0.40526431798934937,-0.11712884902954102,-0.1332406848669052
0.6177093982696533,-0.6198288798332214,-1.8492326736450195,-0.48146116733551025,0.0094757080078125,-0.16190242767333984
0.6901189684867859,-0.509114146232605,-1.9299474954605103,-0.5537888407707214,0.15071547031402588,-0.20484207570552826
0.7538413405418396,-0.5537950992584229,-2.0090160369873047,-0.5873032212257385,0.203818678855896,-0.21762776374816895
0.6587144732475281,-0.5762000679969788,-2.305628776550293,-0.6231647729873657,0.1986965537071228,-0.1934601068496704
0.4987528622150421,-0.40447527170181274,-2.6871068477630615,-0.621320903301239,0.2215920388698578,-0.18069308996200562
0.4301580488681793,-0.09646417200565338,-2.9653358459472656,-0.5357533097267151,0.3020626902580261,-0.20618106424808502
0.40992096066474915,0.2814677357673645,-3.071681261062622,-0.4061264991760254,0.4232984185218811,-0.19813679158687592
0.37623727321624756,0.5666486620903015,-3.0019545555114746,-0.2622843384742737,0.5289085507392883,-0.1410762220621109
0.3713943064212799,0.6802605986595154,-2.779811143875122,-0.09350073337554932,0.580928385257721,-0.08034023642539978
0.45573246479034424,0.6021366715431213,-2.503300189971924,0.059534549713134766,0.5864725112915039,-0.04057322442531586
0.6220115423202515,0.3727172911167145,-2.219572067260742,0.1747531294822693,0.5704889297485352,-0.01985841989517212
0.8141624927520752,0.06396757811307907,-1.9386407136917114,0.26941370964050293,0.557610809803009,-0.004056558012962341
0.9590718150138855,-0.2208477258682251,-1.6570795774459839,0.34034866094589233,0.5423970818519592,0.014957606792449951
1.0430026054382324,-0.4191434383392334,-1.3397705554962158,0.40221041440963745,0.5454708337783813,0.03218811750411987
1.0807569026947021,-0.5397118926048279,-1.0155479907989502,0.45202773809432983,0.5405527353286743,0.034682631492614746
1.0759578943252563,-0.5743632912635803,-0.7173303365707397,0.4839116930961609,0.5321594476699829,0.03592582046985626
1.047113299369812,-0.513757050037384,-0.4286845624446869,0.5029599666595459,0.5267282724380493,0.03514315187931061
0.9642454981803894,-0.4622747600078583,-0.22148235142230988,0.5058673024177551,0.5272667407989502,0.04941105842590332
0.7808437347412109,-0.46778446435928345,-0.18450036644935608,0.46645647287368774,0.49895429611206055,0.08696095645427704
0.4338477849960327,-0.44311660528182983,-0.14900122582912445,0.46550315618515015,0.48085111379623413,0.1340513825416565
-0.06375890225172043,-0.2814754247665405,0.02160753309726715,0.5195634365081787,0.48961585760116577,0.1612384170293808
-0.6061601042747498,-0.010967292822897434,0.33328625559806824,0.5832022428512573,0.5062520503997803,0.1646726131439209
-1.014458417892456,0.2993127405643463,0.7352690100669861,0.6209595799446106,0.527860164642334,0.12817198038101196
-1.1387529373168945,0.5104202628135681,1.0946310758590698,0.6300161480903625,0.5121509432792664,0.04794733226299286
-1.061978816986084,0.5792503356933594,1.4007452726364136,0.6123541593551636,0.47519317269325256,-0.00013959407806396484
-0.9437352418899536,0.5119505524635315,1.606953501701355,0.5802953839302063,0.4251571297645569,0.014952242374420166
-0.8548023700714111,0.30620551109313965,1.7167562246322632,0.5370493531227112,0.36119717359542847,0.05574677884578705
-0.9066809415817261,-0.0324639268219471,1.7979756593704224,0.47399890422821045,0.33516570925712585,0.0900425910949707
-1.2091984748840332,-0.21894732117652893,2.0303473472595215,0.3737333416938782,0.4476603865623474,0.12248915433883667
-1.5171904563903809,-0.2917991876602173,2.482936143875122,0.2637384533882141,0.6239627003669739,0.09041644632816315
-1.5803724527359009,-0.30457550287246704,3.171590805053711,0.1626315712928772,0.7253361344337463,-0.018510326743125916
-1.3160665035247803,-0.3571324348449707,3.7555370330810547,0.046487510204315186,0.683201789855957,-0.17063401639461517
-0.9617211818695068,-0.6040133237838745,3.911484956741333,-0.1952153444290161,0.5786551833152771,-0.23992705345153809
-0.6971179246902466,-0.698752760887146,3.5809364318847656,-0.5634233951568604,0.5367168188095093,-0.23850607872009277
-0.48888635635375977,-0.47669366002082825,3.0542075634002686,-0.8447366952896118,0.5678212642669678,-0.25024598836898804
-0.32628145813941956,-0.026760397478938103,2.794187307357788,-0.8928767442703247,0.5768389701843262,-0.2659483551979065
-0.20570671558380127,0.3192862272262573,2.9126062393188477,-0.7677913904190063,0.5166603326797485,-0.25763171911239624
-0.03496052324771881,0.44820114970207214,3.0211265087127686,-0.6722724437713623,0.3817747235298157,-0.23032832145690918
0.17608878016471863,0.5095859169960022,2.882875442504883,-0.6866049766540527,0.19568943977355957,-0.20793819427490234
0.35972869396209717,0.458651602268219,2.5651297569274902,-0.701830267906189,0.006676137447357178,-0.1622290015220642
0.4179559648036957,0.3372170031070709,2.230184555053711,-0.6808501482009888,-0.1265653371810913,-0.09822875261306763
0.2935851216316223,0.3410925269126892,1.9845585823059082,-0.6448342800140381,-0.19145822525024414,-0.02717292308807373
-0.004226977005600929,0.4182805120944977,1.8071520328521729,-0.5961739420890808,-0.25151073932647705,0.02678416669368744
-0.34409889578819275,0.5369253754615784,1.6642842292785645,-0.5637347102165222,-0.3210732340812683,0.04822826385498047
-0.5827973484992981,0.7042175531387329,1.5040093660354614,-0.5548392534255981,-0.39404183626174927,0.020854949951171875
-0.6922385692596436,0.832230269908905,1.2861030101776123,-0.5425744652748108,-0.47988730669021606,-0.02645932137966156
-0.7014325857162476,0.8952012658119202,0.9608213901519775,-0.5353724360466003,-0.5604661107063293,-0.056300267577171326
-0.6366578936576843,0.8872973918914795,0.6135402321815491,-0.5095332264900208,-0.6306267976760864,-0.06754875183105469
-0.484305202960968,0.8528599739074707,0.3327738642692566,-0.463336706161499,-0.6750906705856323,-0.07436579465866089
-0.2934943437576294,0.8281955718994141,0.15120607614517212,-0.39222848415374756,-0.6987327337265015,-0.0669952780008316
-0.1387552171945572,0.782907247543335,-0.01224550511687994,-0.3472716808319092,-0.7190152406692505,-0.03449118137359619
-0.08777140825986862,0.7437509894371033,-0.188168466091156,-0.31949734687805176,-0.7355272173881531,0.01888515055179596
-0.10466591268777847,0.6601014137268066,-0.37808313965797424,-0.29140621423721313,-0.7378825545310974,0.06261147558689117
-0.09038020670413971,0.5147736072540283,-0.5917066931724548,-0.2796044945716858,-0.7333472371101379,0.0773635059595108
-0.046636536717414856,0.3879781663417816,-0.7693423628807068,-0.275804340839386,-0.7022536396980286,0.07502806186676025
-0.07295498996973038,0.2945255935192108,-0.9153213500976562,-0.2664247751235962,-0.6532881259918213,0.07604914903640747
-0.17817042768001556,0.28071314096450806,-1.036428689956665,-0.2821637988090515,-0.5980258584022522,0.08223098516464233
-0.17457444965839386,0.3099813163280487,-1.1196900606155396,-0.29377639293670654,-0.5277039408683777,0.04828538000583649
0.008284501731395721,0.23434093594551086,-1.2049611806869507,-0.3131675124168396,-0.4722329378128052,-0.015240535140037537
0.2892695665359497,0.03879993036389351,-1.3237757682800293,-0.3812906742095947,-0.37502521276474,-0.046032652258872986
0.5686256885528564,-0.25647786259651184,-1.4229964017868042,-0.48916059732437134,-0.2049161195755005,-0.04525640606880188
0.8181320428848267,-0.47222766280174255,-1.4455610513687134,-0.6089235544204712,-0.010874450206756592,-0.023007988929748535
1.0599316358566284,-0.5786052942276001,-1.4769796133041382,-0.6671723127365112,0.09315460920333862,-0.013253092765808105
1.2129075527191162,-0.7688882946968079,-1.738278865814209,-0.680313229560852,0.05792129039764404,0.012512505054473877
1.2113288640975952,-0.9435603618621826,-2.2310564517974854,-0.6850278377532959,-0.02022498846054077,0.05689418315887451
1.0153543949127197,-1.0118672847747803,-2.816330671310425,-0.7029421329498291,0.031039416790008545,0.10778224468231201
0.5942397117614746,-0.98102205991745,-3.252387523651123,-0.6687765717506409,0.19888240098953247,0.15518847107887268
0.06303615868091583,-0.9100187420845032,-3.4449639320373535,-0.5816274881362915,0.3956594169139862,0.17068256437778473
-0.3256712853908539,-0.7933706045150757,-3.442262649536133,-0.5144100189208984,0.5791043639183044,0.11427129805088043
-0.4835173189640045,-0.6583279967308044,-3.3608992099761963,-0.4847695231437683,0.7281230688095093,0.012537837028503418
-0.5457360744476318,-0.5141376256942749,-3.268301010131836,-0.4392768144607544,0.8200870156288147,-0.04723167419433594
-0.5880638360977173,-0.40803655982017517,-3.1982839107513428,-0.35852181911468506,0.8323395252227783,-0.0646962970495224
-0.677127480506897,-0.2850032150745392,-3.1033687591552734,-0.22818785905838013,0.7992634773254395,-0.062287986278533936
-0.7511724233627319,-0.1557077020406723,-2.9931347370147705,-0.10002440214157104,0.7736228704452515,-0.05764974653720856
-0.822905957698822,-0.09137478470802307,-2.836331367492676,0.027324974536895752,0.748924195766449,-0.05212701857089996
-0.8980619311332703,-0.007068063598126173,-2.6077284812927246,0.1334267258644104,0.7629808187484741,-0.04407095909118652
-0.9414474964141846,0.05252309516072273,-2.307183027267456,0.23514950275421143,0.7709380984306335,-0.04683244228363037
-0.9831483364105225,0.07435590773820877,-1.940795660018921,0.32484370470046997,0.769067645072937,-0.04280972480773926
-1.0244537591934204,0.057742685079574585,-1.5329251289367676,0.38481247425079346,0.7595312595367432,-0.03421910107135773
-1.0210562944412231,0.03969394415616989,-1.1322803497314453,0.42264842987060547,0.7550430297851562,-0.04027736186981201
-0.9720516204833984,-0.004682061728090048,-0.7717915773391724,0.4415847063064575,0.7284260988235474,-0.058032624423503876
-0.9051685929298401,-0.04727263003587723,-0.4446508586406708,0.4461662769317627,0.7104363441467285,-0.0651053637266159
-0.8465041518211365,-0.08537320792675018,-0.1387075036764145,0.4486766457557678,0.6905176043510437,-0.06794141232967377
-0.8279908895492554,-0.1153142899274826,0.12811927497386932,0.43850672245025635,0.6635180115699768,-0.06045985221862793
-0.8489407300949097,-0.1127304807305336,0.3891654312610626,0.4287348985671997,0.6451212763786316,-0.04587028920650482
-0.8740071058273315,-0.10924077779054642,0.6146263480186462,0.41610246896743774,0.6146315932273865,-0.042332038283348083
-0.8840026259422302,-0.08505953103303909,0.827315628528595,0.409243643283844,0.577492356300354,-0.04261152446269989
-0.8636791706085205,-0.06479831784963608,0.9974163770675659,0.40440934896469116,0.5371719002723694,-0.04876743257045746
-0.7939088344573975,-0.08911159634590149,1.1136988401412964,0.3912915587425232,0.4890139698982239,-0.05124695599079132
-0.6988138556480408,-0.14647117257118225,1.1340514421463013,0.3654291033744812,0.434638649225235,-0.04286299645900726
-0.6311855912208557,-0.19783665239810944,1.1591557264328003,0.3574857711791992,0.38239195942878723,-0.026348575949668884
-0.6457520127296448,-0.25927796959877014,1.1911598443984985,0.3665519952774048,0.35303616523742676,-0.002530917525291443
-0.7735121250152588,-0.2805229425430298,1.2153650522232056,0.34756648540496826,0.34571513533592224,0.033024854958057404
-1.0169886350631714,-0.3325258493423462,1.2670693397521973,0.3197607398033142,0.3605075478553772,0.06458389759063721
-1.2763651609420776,-0.3394441306591034,1.3729344606399536,0.29320192337036133,0.3976265788078308,0.0694659948348999
-1.3525644540786743,-0.3741338849067688,1.5295029878616333,0.2508946657180786,0.42204737663269043,0.006575889885425568
-1.3948441743850708,-0.5081316828727722,1.6912682056427002,0.1726427674293518,0.4662734270095825,-0.03944849222898483
-1.6052844524383545,-0.6066573858261108,1.8056997060775757,0.022205829620361328,0.5565380454063416,-0.02608705312013626
-2.04402232170105,-0.5829386711120605,1.9212583303451538,-0.12570154666900635,0.646763026714325,-0.015298493206501007
-2.749232530593872,-0.43708324432373047,1.9413933753967285,-0.2681025266647339,0.680740237236023,-0.015538569539785385
-3.775416851043701,-0.12368549406528473,1.9109753370285034,-0.3962055444717407,0.7086894512176514,-0.02392667531967163
-5.064297199249268,0.5978386402130127,1.8926743268966675,-0.4862061142921448,0.7922324538230896,-0.04272139072418213
-6.307037353515625,1.6667317152023315,1.8827931880950928,-0.49739086627960205,0.8342897891998291,-0.12406134605407715
-7.185760021209717,2.636176347732544,1.7222847938537598,-0.40223145484924316,0.7692493796348572,-0.25782060623168945
-7.58456563949585,3.3616418838500977,1.5405445098876953,-0.26035255193710327,0.6343385577201843,-0.3979954719543457
-7.441002368927002,3.727644920349121,1.307718276977539,-0.17024129629135132,0.5810574293136597,-0.5097360610961914
-6.8141679763793945,3.6086461544036865,1.0886529684066772,-0.15110886096954346,0.5657715201377869,-0.5980880260467529
-5.88424015045166,2.9519267082214355,0.9287256002426147,-0.14445436000823975,0.5267916917800903,-0.6260441541671753
-4.828464984893799,1.8813329935073853,0.8151392936706543,-0.14078086614608765,0.4653043746948242,-0.6292585134506226
-3.763214588165283,0.7335926294326782,0.6647748351097107,-0.15746170282363892,0.37217211723327637,-0.6394029855728149
-2.8147923946380615,-0.1154029369354248,0.5706835389137268,-0.18667900562286377,0.31732916831970215,-0.6725811958312988
-2.097691297531128,-0.4960731863975525,0.523261547088623,-0.15881669521331787,0.27286627888679504,-0.710959792137146
-1.7119148969650269,-0.5187031030654907,0.4980226755142212,-0.10072505474090576,0.19496381282806396,-0.7083512544631958
-1.5746315717697144,-0.1986849009990692,0.509461522102356,-0.035886168479919434,0.12988930940628052,-0.6797235012054443
-1.5531632900238037,0.2612159252166748,0.5451608896255493,0.03617501258850098,0.05826106667518616,-0.6591012477874756
-1.5692261457443237,0.7298412322998047,0.6191674470901489,0.11050766706466675,-0.008047282695770264,-0.6334296464920044
-1.5329053401947021,1.0520464181900024,0.7232449650764465,0.17921382188796997,-0.06481760740280151,-0.5952116250991821
-1.4013736248016357,1.211337924003601,0.8070151209831238,0.23149394989013672,-0.13410580158233643,-0.5709543228149414
-1.2302948236465454,1.202631950378418,0.8581826090812683,0.26295751333236694,-0.20184457302093506,-0.5461111068725586
-1.107174038887024,1.0302038192749023,0.882622480392456,0.2600705027580261,-0.2373775839805603,-0.5031012296676636
-0.9832632541656494,0.8640711903572083,0.9468581080436707,0.22706246376037598,-0.21750319004058838,-0.4700852632522583
-0.7028084397315979,0.7102780938148499,0.9798832535743713,0.17713677883148193,-0.2439439296722412,-0.4847050905227661
-0.36505427956581116,0.6448895931243896,0.9633532762527466,0.11718815565109253,-0.3043823838233948,-0.49972283840179443
-0.16149067878723145,0.7064468860626221,0.8336673974990845,0.055477261543273926,-0.35915160179138184,-0.4647303819656372
-0.2892109453678131,1.0112336874008179,0.5613811612129211,-0.05198448896408081,-0.41172051429748535,-0.38912248611450195
-0.9061005115509033,1.6483789682388306,0.4434517025947571,-0.10041570663452148,-0.4155164957046509,-0.2689625024795532
-1.6649649143218994,2.4755802154541016,0.562340497970581,-0.12422960996627808,-0.3661450147628784,-0.17295551300048828
-2.029266119003296,3.151599168777466,0.7352334856987,-0.15906578302383423,-0.3885083794593811,-0.2056572437286377
-1.990025281906128,3.3392586708068848,0.6841442584991455,-0.259027361869812,-0.48482322692871094,-0.27127575874328613
-1.691264271736145,3.0606164932250977,0.37912726402282715,-0.4227105379104614,-0.5748697519302368,-0.2791895866394043
-1.1693394184112549,2.3042521476745605,0.05992542579770088,-0.5201376080513,-0.580603301525116,-0.27333343029022217
-0.46583038568496704,1.324836254119873,-0.009206172078847885,-0.5328075885772705,-0.5342987179756165,-0.2999940514564514
0.31914418935775757,0.5816360116004944,0.048623502254486084,-0.5674189329147339,-0.44919586181640625,-0.3495456576347351
0.9075654745101929,0.44350290298461914,0.0011429388541728258,-0.6968844532966614,-0.3927726745605469,-0.3693190813064575
1.1938623189926147,0.6446388363838196,-0.11668822169303894,-0.7953922152519226,-0.38122767210006714,-0.29779350757598877
1.4268412590026855,0.8558816313743591,-0.4267897605895996,-0.8870025873184204,-0.4470897316932678,-0.19907470047473907
1.718614935874939,1.0038379430770874,-1.0258309841156006,-1.0056416988372803,-0.4875863790512085,-0.11413168907165527
1.996447205543518,1.0075331926345825,-1.7716020345687866,-1.0614831447601318,-0.49054908752441406,-0.002131417393684387
2.099073886871338,0.7823704481124878,-2.4246110916137695,-1.0052337646484375,-0.39639079570770264,0.1319844126701355
1.9674426317214966,0.40030908584594727,-2.9124574661254883,-0.9059764742851257,-0.21417075395584106,0.25035250186920166
1.6287670135498047,-0.03202939033508301,-3.1299943923950195,-0.8150541186332703,0.06460058689117432,0.31469568610191345
1.213263988494873,-0.36581188440322876,-3.1089084148406982,-0.7175291776657104,0.3330087661743164,0.321871280670166
0.9061592221260071,-0.5336713790893555,-2.8923091888427734,-0.5740717053413391,0.47707197070121765,0.2641278803348541
0.7872747182846069,-0.6412105560302734,-2.6435630321502686,-0.41340720653533936,0.5034726858139038,0.17001593112945557
0.8072441816329956,-0.7426563501358032,-2.4727604389190674,-0.2749207019805908,0.468589186668396,0.09541991353034973
0.8720293045043945,-0.8063121438026428,-2.3278539180755615,-0.14564085006713867,0.440680593252182,0.05685532093048096
0.9610235095024109,-0.8528430461883545,-2.1617980003356934,-0.02579420804977417,0.4396573305130005,0.039083972573280334
1.0390684604644775,-0.9075231552124023,-1.9324185848236084,0.0911749005317688,0.43788206577301025,0.03678722679615021
1.0652403831481934,-0.9959874153137207,-1.7000826597213745,0.18341869115829468,0.44540518522262573,0.0492306649684906
1.0239194631576538,-1.0608162879943848,-1.4706366062164307,0.24706661701202393,0.4499231278896332,0.0667724758386612
0.9409995079040527,-1.1142966747283936,-1.2556174993515015,0.3051372170448303,0.4495576024055481,0.07335633039474487
0.8154591917991638,-1.1494659185409546,-1.1092143058776855,0.3385915160179138,0.43989264965057373,0.07816244661808014
0.6112748980522156,-1.107138991355896,-0.9742891788482666,0.37673360109329224,0.4254569411277771,0.08216308057308197
0.3262517750263214,-0.9518173933029175,-0.8358446955680847,0.42176181077957153,0.4193606376647949,0.081645667552948
-0.0052531687542796135,-0.7225999236106873,-0.701346218585968,0.4573451280593872,0.40675628185272217,0.08341473340988159
-0.3634544909000397,-0.4267584979534149,-0.5743312835693359,0.4814099073410034,0.4075826406478882,0.08469885587692261
-0.7511512637138367,-0.1368149369955063,-0.45355117321014404,0.4950621724128723,0.4233775734901428,0.09211719036102295
-1.168695092201233,0.08387409895658493,-0.3544580936431885,0.49717479944229126,0.44126296043395996,0.11237729340791702
-1.5856802463531494,0.22494818270206451,-0.19472263753414154,0.4963080883026123,0.4934709668159485,0.12674307823181152
-1.9324955940246582,0.30793890357017517,0.06486979126930237,0.4928619861602783,0.5595003366470337,0.11037975549697876
-2.143209457397461,0.38729509711265564,0.3810863196849823,0.5003188848495483,0.6020988821983337,0.06188667565584183
-2.2230658531188965,0.3937859833240509,0.6888146996498108,0.4888630509376526,0.609281599521637,0.0018926262855529785
-2.326740026473999,0.31137704849243164,0.943141758441925,0.44045883417129517,0.6222354769706726,-0.027921855449676514
-2.559445381164551,0.3077789545059204,1.214908480644226,0.35469651222229004,0.7257384657859802,-0.016930580139160156
-2.786694288253784,0.3858470618724823,1.6753336191177368,0.33179259300231934,0.8035904765129089,-0.022542953491210938
-2.8109700679779053,0.4076806604862213,2.2092790603637695,0.33022063970565796,0.7639154195785522,-0.08891043066978455
-2.6192779541015625,0.4089917540550232,2.719130516052246,0.3093476891517639,0.6903175115585327,-0.1661856770515442
-2.208627462387085,0.3507979214191437,3.1221587657928467,0.2364577054977417,0.5993969440460205,-0.22397835552692413
-1.7289445400238037,0.18541282415390015,3.322728395462036,0.0774301290512085,0.5518116354942322,-0.23794345557689667
-1.378395438194275,-0.0734587237238884,3.473477602005005,-0.07808268070220947,0.5504826307296753,-0.19964951276779175
-1.279355525970459,-0.2845194935798645,3.72212553024292,-0.18216615915298462,0.5441814661026001,-0.15480077266693115
-1.3533281087875366,-0.4929361641407013,3.9562647342681885,-0.29691243171691895,0.5377344489097595,-0.14412105083465576
-1.447142243385315,-0.5941298604011536,3.911036491394043,-0.4811834692955017,0.47504404187202454,-0.1878393292427063
-1.5324093103408813,-0.47847434878349304,3.4683523178100586,-0.7112169861793518,0.360012412071228,-0.2629907727241516
-1.6755070686340332,-0.12984320521354675,2.8803904056549072,-0.7827732563018799,0.1754223108291626,-0.31640201807022095
-1.8375964164733887,0.37575000524520874,2.2879714965820312,-0.7612416744232178,0.020441055297851562,-0.362288236618042
-2.004955768585205,0.9128599166870117,1.741945505142212,-0.7131979465484619,-0.06725603342056274,-0.38631486892700195
-2.14697003364563,1.3942360877990723,1.3448126316070557,-0.6464008092880249,-0.10142344236373901,-0.40286147594451904
-2.230851888656616,1.7460803985595703,1.1945159435272217,-0.5552840232849121,-0.08729076385498047,-0.4082905054092407
-2.1726160049438477,1.8791110515594482,1.2132651805877686,-0.47458958625793457,-0.0973362922668457,-0.41473376750946045
-1.927991271018982,1.7973283529281616,1.1839962005615234,-0.44407522678375244,-0.16109812259674072,-0.4326813220977783
-1.6127793788909912,1.5983948707580566,1.0055603981018066,-0.4414181113243103,-0.29059725999832153,-0.4376373291015625
-1.3339509963989258,1.4009037017822266,0.7659066915512085,-0.40683525800704956,-0.4237162470817566,-0.42124974727630615
-1.0612561702728271,1.2764668464660645,0.5742428302764893,-0.32846713066101074,-0.5287225842475891,-0.4017353057861328
-0.7867095470428467,1.2283848524093628,0.4446638524532318,-0.2556201219558716,-0.5814787149429321,-0.38161563873291016
-0.5030728578567505,1.2517611980438232,0.34897756576538086,-0.20214146375656128,-0.6182498335838318,-0.3530585765838623
-0.2612558603286743,1.2528266906738281,0.30645886063575745,-0.14752423763275146,-0.6555427312850952,-0.3025991916656494
-0.06222417578101158,1.1397006511688232,0.2528701722621918,-0.11676990985870361,-0.6861659288406372,-0.25027334690093994
0.11272842437028885,0.8836681842803955,0.19309674203395844,-0.11371654272079468,-0.7051960229873657,-0.19935142993927002
0.28807902336120605,0.5504305362701416,0.20633596181869507,-0.1310245394706726,-0.6942978501319885,-0.16224104166030884
0.4331403970718384,0.21278010308742523,0.31284815073013306,-0.1584998369216919,-0.6687251329421997,-0.14409774541854858
0.48774468898773193,-0.04526836425065994,0.42530855536460876,-0.21967440843582153,-0.6458932161331177,-0.1328800916671753
0.4717501103878021,-0.14537329971790314,0.4060347080230713,-0.33404237031936646,-0.648978590965271,-0.1466715931892395
0.3344370424747467,-0.40873315930366516,0.20104940235614777,-0.5115507245063782,-0.6015977263450623,-0.17072534561157227
0.2264401763677597,-0.7525883913040161,-0.04071429744362831,-0.7950409054756165,-0.3348078727722168,-0.18634933233261108
0.5666888952255249,-0.7426462173461914,-0.0018028502818197012,-1.0090652704238892,-0.06900620460510254,-0.3106447458267212
1.4671118259429932,-0.5874935984611511,-0.010368574410676956,-1.0693070888519287,-0.09306508302688599,-0.5108280181884766
2.1676807403564453,-0.7611789107322693,-0.8690123558044434,-1.0780761241912842,-0.40413087606430054,-0.5147625207901001
2.1293115615844727,-0.979587972164154,-2.4244730472564697,-1.1747649908065796,-0.39211446046829224,-0.30948013067245483
1.7891759872436523,-0.7581093311309814,-3.3439688682556152,-1.0711140632629395,-0.13148349523544312,-0.15661144256591797
1.5450154542922974,-0.40101248025894165,-3.5139541625976562,-0.8508400321006775,0.2030767798423767,-0.15170812606811523
1.3610364198684692,-0.013676845468580723,-3.1914520263671875,-0.6626619696617126,0.4535143971443176,-0.1375681310892105
1.3090914487838745,0.034443411976099014,-2.8850624561309814,-0.5242270827293396,0.5122491717338562,-0.09992647171020508
1.4156973361968994,-0.28993794322013855,-2.829862117767334,-0.44476574659347534,0.4481748342514038,-0.08299051225185394
1.6268310546875,-0.7482912540435791,-2.9252328872680664,-0.38320738077163696,0.42727863788604736,-0.08501216769218445
1.8488991260528564,-1.1099239587783813,-3.010866641998291,-0.3216480016708374,0.47682660818099976,-0.108714759349823
1.9612061977386475,-1.2776827812194824,-2.9684038162231445,-0.23036080598831177,0.5574837923049927,-0.11128067970275879
1.9283487796783447,-1.2774440050125122,-2.8057847023010254,-0.1400080919265747,0.6258360147476196,-0.10096532106399536
1.797450304031372,-1.2217227220535278,-2.6015398502349854,-0.05357307195663452,0.6489742398262024,-0.08350162208080292
1.56977379322052,-1.1525168418884277,-2.413682699203491,0.0018874406814575195,0.6558774709701538,-0.06305557489395142
1.279415488243103,-1.060210108757019,-2.3112049102783203,0.034776926040649414,0.6462777853012085,-0.053441449999809265
1.0359362363815308,-0.9147870540618896,-2.2738873958587646,0.06411135196685791,0.6261529326438904,-0.0737951397895813
0.85917067527771,-0.7416301965713501,-2.269157648086548,0.10784530639648438,0.6128045320510864,-0.10500019788742065
0.7123743295669556,-0.5746479630470276,-2.2529826164245605,0.1767483949661255,0.6087625026702881,-0.12119519710540771
0.5994086265563965,-0.40763217210769653,-2.1783692836761475,0.2616886496543884,0.6129262447357178,-0.13001012802124023
0.5248433947563171,-0.2790975868701935,-2.038949728012085,0.3464866280555725,0.6219057440757751,-0.13281166553497314
0.46447882056236267,-0.18454977869987488,-1.8531749248504639,0.4149702787399292,0.6452850103378296,-0.12515288591384888
0.4045083522796631,-0.1466066539287567,-1.6154776811599731,0.47941386699676514,0.6596578359603882,-0.11334419250488281
0.3531290590763092,-0.11552488058805466,-1.3307521343231201,0.533725917339325,0.6676350831985474,-0.10257291793823242
0.3423599600791931,-0.09611942619085312,-1.0473357439041138,0.5796052813529968,0.6589890718460083,-0.11004358530044556
0.3615957796573639,-0.0644739493727684,-0.7700414657592773,0.6122291684150696,0.6405722498893738,-0.11342191696166992
0.3707258105278015,0.008731408044695854,-0.4955918788909912,0.6416242718696594,0.6184834241867065,-0.1097061038017273
0.3497859239578247,0.14977364242076874,-0.20400254428386688,0.6689297556877136,0.5972208976745605,-0.08841800689697266
0.3072827160358429,0.2836124897003174,0.08885940909385681,0.6943986415863037,0.578689694404602,-0.06322986632585526
0.16104574501514435,0.25213682651519775,0.24400298297405243,0.6393107771873474,0.5828226804733276,-0.0243336521089077
-0.22811831533908844,0.28102970123291016,0.37939363718032837,0.49530166387557983,0.7434180974960327,0.04404515027999878
-0.6903764605522156,0.48857900500297546,0.872557520866394,0.45927536487579346,0.8995357155799866,0.09111659973859787
-0.9730247259140015,0.5729468464851379,1.7113903760910034,0.5455244779586792,0.9152015447616577,0.06132239103317261
-0.9765471816062927,0.4571394622325897,2.4027347564697266,0.5550640821456909,0.7880726456642151,0.0008997321128845215
-0.8753822445869446,0.26587235927581787,2.5923619270324707,0.38563281297683716,0.6593080163002014,-0.03226744383573532
-0.917651355266571,0.17366278171539307,2.463819742202759,0.16975444555282593,0.6018744707107544,-0.021068155765533447
-1.1707065105438232,0.26209065318107605,2.4300332069396973,0.03215503692626953,0.681668758392334,0.018597960472106934
-1.4310860633850098,0.4329950213432312,2.7280683517456055,-0.01080632209777832,0.8044340014457703,0.03143446147441864
-1.509193778038025,0.48853936791419983,3.148097515106201,-0.10235035419464111,0.8486314415931702,-0.008698761463165283
-1.4618018865585327,0.4089510440826416,3.4912610054016113,-0.2556236982345581,0.812696099281311,-0.0559195876121521
-1.4991873502731323,0.21193066239356995,3.6770944595336914,-0.4068796634674072,0.7133486270904541,-0.05978439748287201
-1.6637461185455322,0.08778591454029083,3.671339273452759,-0.5405992269515991,0.5504374504089355,-0.05361628532409668
-1.77963125705719,0.08948545902967453,3.536731719970703,-0.6613099575042725,0.39959338307380676,-0.11626821756362915
-1.686340570449829,0.1884123980998993,3.4440648555755615,-0.718941330909729,0.2385951578617096,-0.21512533724308014
-1.3278640508651733,0.2660655677318573,3.294478178024292,-0.7758675813674927,0.09779655933380127,-0.3247414827346802
-0.869251549243927,0.28199303150177,2.878157377243042,-0.8642609715461731,-0.05740147829055786,-0.3729677200317383
-0.4612555205821991,0.3761802911758423,2.1463353633880615,-0.9474084377288818,-0.17439395189285278,-0.3479660749435425
-0.22341151535511017,0.5648777484893799,1.4134457111358643,-0.8926223516464233,-0.26317065954208374,-0.28791582584381104
-0.22082741558551788,0.8255347609519958,1.0215437412261963,-0.7037520408630371,-0.30391961336135864,-0.18709194660186768
-0.3805569112300873,1.0618938207626343,0.9280989170074463,-0.4760898947715759,-0.3294546604156494,-0.08457182347774506
-0.5120559930801392,1.2011874914169312,0.9182246923446655,-0.3213960528373718,-0.397685706615448,-0.03040342777967453
-0.5364248156547546,1.2223275899887085,0.8790433406829834,-0.24047595262527466,-0.4752904176712036,-0.017805933952331543
-0.4998945891857147,1.1693423986434937,0.7797937393188477,-0.20136332511901855,-0.5449928641319275,-0.00478971004486084
-0.48941540718078613,1.006950855255127,0.645517110824585,-0.17235565185546875,-0.594889223575592,0.025647655129432678
-0.5069643259048462,0.7381887435913086,0.5146796703338623,-0.1460568904876709,-0.6347733736038208,0.05621407926082611
-0.5281646251678467,0.38863393664360046,0.48803582787513733,-0.09916770458221436,-0.6595711708068848,0.06301403045654297
-0.5161296725273132,0.05371959134936333,0.5945942997932434,-0.06750398874282837,-0.6451501250267029,0.03364992141723633
-0.34948545694351196,-0.23254883289337158,0.6672738790512085,-0.09453129768371582,-0.6272557377815247,-0.04895271360874176
-0.08358977735042572,-0.4614235758781433,0.5939249396324158,-0.20510387420654297,-0.6211642026901245,-0.14217782020568848
0.1303948312997818,-0.5845130681991577,0.347051739692688,-0.34404730796813965,-0.6238841414451599,-0.1927868276834488
0.2392539083957672,-0.6117992401123047,0.009388890117406845,-0.4744109511375427,-0.6429088115692139,-0.21350671350955963
0.20743651688098907,-0.590865433216095,-0.24222737550735474,-0.5197461843490601,-0.6488308310508728,-0.22313034534454346
0.033381860703229904,-0.6600158214569092,-0.5026994347572327,-0.6183921098709106,-0.5851849317550659,-0.22530657052993774
-0.057256054133176804,-0.6702726483345032,-0.7195992469787598,-0.8413999676704407,-0.347459614276886,-0.2377108335494995
0.21176807582378387,-0.39293041825294495,-0.8592127561569214,-1.0365722179412842,-0.15558016300201416,-0.33999210596084595
0.5616870522499084,0.017829284071922302,-1.3391120433807373,-1.1294995546340942,-0.2536703944206238,-0.39745670557022095
0.28960850834846497,0.21939966082572937,-2.258653163909912,-1.0265367031097412,-0.48468345403671265,-0.27969837188720703
-0.2261679768562317,0.6101863980293274,-3.033224582672119,-0.8826504945755005,-0.3750244379043579,-0.11802446842193604
-0.32662931084632874,0.9405319690704346,-3.2595038414001465,-0.7180376648902893,-0.06387794017791748,-0.15909463167190552
-0.06657736003398895,1.10636568069458,-3.1191928386688232,-0.5684864521026611,0.19787061214447021,-0.2278444766998291
0.22733135521411896,1.044031023979187,-2.841890811920166,-0.4710114002227783,0.3646186590194702,-0.2184305191040039
0.5347524881362915,0.736878514289856,-2.6693952083587646,-0.4094202518463135,0.42187580466270447,-0.18912051618099213
0.9401798248291016,0.3057481348514557,-2.6368727684020996,-0.3773341178894043,0.42642441391944885,-0.2039383500814438
1.4718232154846191,-0.1182398572564125,-2.683755874633789,-0.35239118337631226,0.45536041259765625,-0.2424292415380478
2.0358943939208984,-0.39962834119796753,-2.691239833831787,-0.2895418405532837,0.5014106035232544,-0.2643618583679199
2.4488043785095215,-0.45220693945884705,-2.5937483310699463,-0.21057367324829102,0.5777985453605652,-0.2456156611442566
2.6138112545013428,-0.45073583722114563,-2.478053331375122,-0.12406426668167114,0.6128126978874207,-0.15313397347927094
2.531193256378174,-0.41481807827949524,-2.3678884506225586,-0.06095623970031738,0.6416244506835938,-0.05545622110366821
2.2710282802581787,-0.34870949387550354,-2.226222515106201,0.017052412033081055,0.6449711322784424,0.021279096603393555
1.9233745336532593,-0.33886146545410156,-2.043226480484009,0.10985398292541504,0.6247137188911438,0.06943798065185547
1.5879796743392944,-0.3601675033569336,-1.859710931777954,0.18017327785491943,0.6185616850852966,0.07775989174842834
1.375803828239441,-0.37813234329223633,-1.7006261348724365,0.2206229567527771,0.6239192485809326,0.046542346477508545
1.3360804319381714,-0.371246874332428,-1.5667507648468018,0.25164031982421875,0.6416192650794983,-0.007224440574645996
1.3519104719161987,-0.3482680320739746,-1.4415364265441895,0.27191001176834106,0.6580197215080261,-0.03638748824596405
1.2695693969726562,-0.30274227261543274,-1.2939980030059814,0.3145139813423157,0.6677347421646118,-0.005878567695617676
1.0741859674453735,-0.25365304946899414,-1.0915038585662842,0.377185583114624,0.6665195822715759,0.033313214778900146
0.8202011585235596,-0.2275903820991516,-0.9060037136077881,0.4313168525695801,0.6403286457061768,0.06297199428081512
0.5793948173522949,-0.1633911281824112,-0.7165377140045166,0.4679686427116394,0.6143875122070312,0.06862972676753998
0.4322029650211334,-0.06021745130419731,-0.508131742477417,0.5143418908119202,0.5904702544212341,0.04705655574798584
0.38369470834732056,0.042519282549619675,-0.28333526849746704,0.5549426078796387,0.5659155249595642,0.02146001160144806
0.3661600947380066,0.11374218761920929,-0.06352553516626358,0.5852046012878418,0.5394154787063599,0.016911551356315613
0.3198108375072479,0.14053776860237122,0.11937850713729858,0.5879431962966919,0.5381563305854797,0.03969673812389374
0.2085147649049759,0.10520202666521072,0.29158151149749756,0.58601975440979,0.5397803783416748,0.07142877578735352
0.02927740290760994,0.09732268750667572,0.5206807851791382,0.5574566125869751,0.572432279586792,0.0981941819190979
-0.17960482835769653,0.15064159035682678,0.8967359066009521,0.5219317078590393,0.6406838297843933,0.10388600826263428
-0.37990719079971313,0.1970163732767105,1.394496202468872,0.4593179225921631,0.7368277311325073,0.08520971238613129
-0.4866224527359009,0.39802807569503784,2.0656232833862305,0.39574873447418213,0.7926220893859863,0.05971574783325195
-0.37394797801971436,0.40733978152275085,2.723111152648926,0.35865283012390137,0.7374987602233887,0.015905365347862244
-0.06805674731731415,0.1939411759376526,3.0496444702148438,0.1907777190208435,0.6489641666412354,-0.01142294704914093
0.2477097362279892,-0.026231342926621437,3.1443076133728027,-1.6629695892333984e-05,0.5920779705047607,-0.0004582256078720093
0.39143121242523193,-0.22093424201011658,3.195937395095825,-0.1408258080482483,0.567567765712738,0.057768240571022034
0.38108858466148376,-0.42120465636253357,3.341925621032715,-0.22838228940963745,0.5744576454162598,0.12060917913913727
0.19876372814178467,-0.5617033243179321,3.493989944458008,-0.33249133825302124,0.5697965025901794,0.15127605199813843
-0.1428770273923874,-0.5752333998680115,3.5160508155822754,-0.4558332562446594,0.5171023011207581,0.15648972988128662
-0.5027288794517517,-0.4918439984321594,3.4021928310394287,-0.5619588494300842,0.4001231789588928,0.09566698968410492
-0.8487455248832703,-0.3601904809474945,3.1715381145477295,-0.6152592897415161,0.2379692792892456,0.023759663105010986
-1.0194408893585205,-0.16999869048595428,2.828456401824951,-0.6716497540473938,0.10747864842414856,-0.05764853209257126
-0.9803981184959412,0.07975985109806061,2.3784379959106445,-0.7515034675598145,0.005306839942932129,-0.16789376735687256
-1.0089517831802368,0.3561112880706787,1.9187836647033691,-0.748806357383728,-0.0834881067276001,-0.20304393768310547
-1.099146842956543,0.6688278317451477,1.5342450141906738,-0.6642616391181946,-0.17417478561401367,-0.20186960697174072
-1.0908156633377075,0.9610519409179688,1.2099453210830688,-0.5604850053787231,-0.2625851035118103,-0.22063994407653809
-0.8921390175819397,1.125252604484558,0.9549384713172913,-0.4685128331184387,-0.29315119981765747,-0.24497413635253906
-0.49671584367752075,1.0658032894134521,0.8509923219680786,-0.358112633228302,-0.3140687942504883,-0.25294071435928345
-0.03513115271925926,0.8728317618370056,0.8123114705085754,-0.27514517307281494,-0.35582220554351807,-0.22851896286010742
0.3838922083377838,0.6272007822990417,0.8034505248069763,-0.2281867265701294,-0.3908134698867798,-0.16841280460357666
0.7277087569236755,0.36675265431404114,0.7995449304580688,-0.1862679123878479,-0.4374673366546631,-0.10468840599060059
0.9429802298545837,0.0406745970249176,0.8228760957717896,-0.1326950192451477,-0.4999304413795471,-0.03656245768070221
1.1085494756698608,-0.3815544545650482,0.8779122829437256,-0.08872735500335693,-0.5280930399894714,0.018968120217323303
1.3147372007369995,-0.884243905544281,0.9241555333137512,-0.08967024087905884,-0.5297386646270752,0.030709654092788696
1.5865880250930786,-1.3702013492584229,0.9543662667274475,-0.14334124326705933,-0.49319982528686523,0.007160365581512451
1.8001337051391602,-1.7457406520843506,0.9115847945213318,-0.23196005821228027,-0.44110774993896484,-0.02094477415084839
1.8785640001296997,-1.8553763628005981,0.7977280616760254,-0.3384261131286621,-0.3811585307121277,-0.034839823842048645
1.9135918617248535,-1.8374372720718384,0.6664852499961853,-0.3501436114311218,-0.3862512707710266,-0.05038739740848541
1.9060771465301514,-2.0270261764526367,0.6073724031448364,-0.3067735433578491,-0.42086780071258545,-0.032453060150146484
1.671080470085144,-2.430325746536255,0.6283923983573914,-0.27635085582733154,-0.38126569986343384,0.06596767902374268
0.9581623077392578,-2.833853244781494,0.5090864300727844,-0.2901912331581116,-0.29273611307144165,0.17587602138519287
0.09438765794038773,-2.7705395221710205,0.04765152186155319,-0.4377872943878174,-0.2347472906112671,0.13409918546676636
-0.5083832144737244,-2.3449671268463135,-0.5202077627182007,-0.5468068718910217,-0.1364554762840271,-0.10893790423870087
-0.6347353458404541,-1.7351726293563843,-0.9989951252937317,-0.5239595174789429,-0.0420415997505188,-0.394659161567688
-0.3116331994533539,-1.1876553297042847,-1.3426353931427002,-0.4075104594230652,0.05408293008804321,-0.6335290670394897
0.28401100635528564,-0.7686818242073059,-1.5254358053207397,-0.2871386408805847,0.17268699407577515,-0.7626504898071289
0.9043886065483093,-0.5089634656906128,-1.5711324214935303,-0.1677762269973755,0.24795615673065186,-0.7789377570152283
1.3996516466140747,-0.3219453692436218,-1.5506396293640137,-0.09332585334777832,0.2936365008354187,-0.7022494673728943
1.8131660223007202,-0.20173054933547974,-1.4419766664505005,-0.04059553146362305,0.36666810512542725,-0.6261742115020752
2.148827075958252,-0.1936144083738327,-1.3000047206878662,0.042510151863098145,0.39969485998153687,-0.5757734775543213
2.3197896480560303,-0.2642035186290741,-1.2088598012924194,0.12179887294769287,0.37798523902893066,-0.48581886291503906
2.4146299362182617,-0.2943623960018158,-1.1447861194610596,0.1699874997138977,0.34339088201522827,-0.39815831184387207
2.4919493198394775,-0.37018558382987976,-1.1133654117584229,0.21922731399536133,0.2918025255203247,-0.33569079637527466
2.427720308303833,-0.510429322719574,-1.1468756198883057,0.22293239831924438,0.2819526195526123,-0.2536974549293518
2.129648208618164,-0.5907646417617798,-1.1861075162887573,0.22988969087600708,0.3108668327331543,-0.16048187017440796
1.7600899934768677,-0.6348327994346619,-1.1296266317367554,0.301203191280365,0.28992345929145813,-0.09748740494251251
1.4463800191879272,-0.6353839635848999,-1.010512351989746,0.3765447735786438,0.2713136672973633,-0.08986091613769531
1.2291276454925537,-0.5724716186523438,-0.8055804371833801,0.45298004150390625,0.24551492929458618,-0.09581542015075684
1.0946837663650513,-0.555588960647583,-0.5460315942764282,0.5103901624679565,0.22291424870491028,-0.10273139178752899
0.9892210364341736,-0.5581575036048889,-0.2345045953989029,0.526775062084198,0.23064708709716797,-0.09435111284255981
0.8616134524345398,-0.5675158500671387,0.06536900252103806,0.49749642610549927,0.2522065043449402,-0.0858694314956665
0.7163472771644592,-0.6583210825920105,0.3286975026130676,0.4590227007865906,0.240560382604599,-0.06980429589748383
0.6086254119873047,-0.7916902899742126,0.5675858855247498,0.4068642854690552,0.2365555763244629,-0.07544946670532227
0.6827450394630432,-0.8658756613731384,0.8301992416381836,0.36413508653640747,0.23843634128570557,-0.11999565362930298
0.9406247138977051,-0.9170867204666138,1.089706301689148,0.336736798286438,0.21528837084770203,-0.18580281734466553
1.2120071649551392,-1.014106273651123,1.2655835151672363,0.29480522871017456,0.1934189796447754,-0.20091259479522705
1.3617340326309204,-1.1926050186157227,1.3767718076705933,0.22349363565444946,0.19615209102630615,-0.1657654047012329
1.3328378200531006,-1.3943252563476562,1.4736343622207642,0.12245607376098633,0.2498624622821808,-0.11985503882169724
1.1712535619735718,-1.4398376941680908,1.5845463275909424,0.013685166835784912,0.3274831473827362,-0.08985590189695358
1.0681630373001099,-1.326622724533081,1.7326236963272095,-0.027683258056640625,0.31230777502059937,-0.11025440692901611
1.2020198106765747,-1.0754468441009521,1.853942632675171,-0.02527087926864624,0.22184878587722778,-0.19112730026245117
1.5358725786209106,-0.8768740892410278,1.8927737474441528,-0.006623804569244385,0.08588302135467529,-0.26316529512405396
1.8705168962478638,-0.7627025842666626,1.8169662952423096,-0.03320688009262085,-0.002105534076690674,-0.2505685091018677
2.1111412048339844,-0.5708609223365784,1.643439769744873,-0.11150884628295898,-0.006704151630401611,-0.19216853380203247
2.19978928565979,-0.4151866137981415,1.3653374910354614,-0.15048426389694214,-0.043380677700042725,-0.10682851821184158
2.050691843032837,-0.2060525268316269,1.000615119934082,-0.15818291902542114,-0.0779772400856018,-0.011068344116210938
1.6071197986602783,0.11177443712949753,0.584575891494751,-0.12310796976089478,-0.09132593870162964,0.08827763795852661
0.9628515839576721,0.5218273997306824,0.24171653389930725,-0.05659019947052002,-0.08921754360198975,0.17249365150928497
0.32313892245292664,0.8645479679107666,0.0833270251750946,-0.025129854679107666,-0.0028970837593078613,0.2190684676170349
-0.1412135809659958,1.032926321029663,0.11709757894277573,-0.04446542263031006,0.11761516332626343,0.20915955305099487
-0.44510576128959656,0.9232047200202942,0.33323851227760315,-0.06755608320236206,0.21599507331848145,0.18714679777622223
-0.6195737719535828,0.5797803997993469,0.5866345763206482,-0.08676153421401978,0.23973298072814941,0.15858449041843414
-0.6132265329360962,0.18510857224464417,0.7113196849822998,-0.11760461330413818,0.19871336221694946,0.09870584309101105
-0.3834095001220703,-0.12281665951013565,0.806381106376648,-0.1393107771873474,0.12980204820632935,-0.00479772686958313
0.04659700021147728,-0.32241755723953247,0.9173721075057983,-0.11641985177993774,0.04894071817398071,-0.09966036677360535
0.5625602006912231,-0.41515281796455383,1.059670329093933,-0.10902494192123413,-0.011135756969451904,-0.14665399491786957
1.0973246097564697,-0.5120213627815247,1.1791108846664429,-0.10647940635681152,-0.0725744366645813,-0.1427428126335144
1.5291950702667236,-0.6852555871009827,1.1658343076705933,-0.14675426483154297,-0.14650124311447144,-0.07700437307357788
1.763814926147461,-0.8798816204071045,1.105143666267395,-0.17178654670715332,-0.22936439514160156,0.024913012981414795
1.8284657001495361,-1.0245076417922974,1.0162172317504883,-0.1884758472442627,-0.29011964797973633,0.11272642016410828
1.7393776178359985,-1.1315051317214966,0.9667409062385559,-0.1864107847213745,-0.3356661796569824,0.18169176578521729
1.556813359260559,-1.1997631788253784,0.9354724884033203,-0.18797707557678223,-0.35785651206970215,0.2280420958995819
1.3925925493240356,-1.225721836090088,0.8821964263916016,-0.20933759212493896,-0.38699841499328613,0.23538315296173096
1.258628487586975,-1.1823983192443848,0.8139587044715881,-0.23670578002929688,-0.39730536937713623,0.2232649326324463
1.1516863107681274,-1.136677622795105,0.7032141089439392,-0.2745402455329895,-0.4150078296661377,0.20837315917015076
1.0407456159591675,-1.0081018209457397,0.5787164568901062,-0.3074799180030823,-0.4106873869895935,0.20057937502861023
0.9101807475090027,-0.908920407295227,0.4584325850009918,-0.3073362708091736,-0.4364114999771118,0.20356756448745728
0.7506296634674072,-0.8552877306938171,0.3580314815044403,-0.30267369747161865,-0.4596630930900574,0.2135578691959381
0.6353551745414734,-0.9560099840164185,0.2511945962905884,-0.2981448769569397,-0.47020649909973145,0.2066473662853241
0.6024491786956787,-1.1358909606933594,0.13582445681095123,-0.3330673575401306,-0.4687228202819824,0.17462345957756042
0.6474449634552002,-1.2945414781570435,-0.016279257833957672,-0.3848538398742676,-0.43817561864852905,0.12304544448852539
0.718422532081604,-1.4457687139511108,-0.23241367936134338,-0.436168909072876,-0.4324694871902466,0.07718461751937866
0.7281196117401123,-1.5447466373443604,-0.46993789076805115,-0.4647876024246216,-0.43747085332870483,0.050369083881378174
0.5913683176040649,-1.636498212814331,-0.8028836250305176,-0.48742300271987915,-0.43402552604675293,0.04035824537277222
0.2565000057220459,-1.6724846363067627,-1.186267614364624,-0.5750453472137451,-0.3313140869140625,0.047916024923324585
-0.06190352886915207,-1.4901938438415527,-1.4799699783325195,-0.6967156529426575,-0.07647931575775146,0.0154457688331604
-0.1510433703660965,-1.1651194095611572,-1.4958891868591309,-0.7060154676437378,0.11393451690673828,-0.08207982778549194
0.03567339479923248,-1.0260695219039917,-1.4288941621780396,-0.5930301547050476,0.10097098350524902,-0.18982955813407898
0.249647319316864,-1.1834965944290161,-1.5562270879745483,-0.48491746187210083,-0.06514126062393188,-0.2272280901670456
0.31148630380630493,-1.4086164236068726,-2.0348012447357178,-0.5039488673210144,-0.12129396200180054,-0.21504072844982147
0.2102019488811493,-1.4789345264434814,-2.47922945022583,-0.5698641538619995,0.02392411231994629,-0.19691762328147888
0.09420697391033173,-1.4408808946609497,-2.636605739593506,-0.5592750310897827,0.2807854413986206,-0.22000455856323242
0.011223752051591873,-1.3228224515914917,-2.5169975757598877,-0.5097578763961792,0.46189165115356445,-0.2790834903717041
-0.10350693017244339,-1.1674890518188477,-2.3558003902435303,-0.4345576763153076,0.5330661535263062,-0.3271836042404175
-0.286857545375824,-0.9704950451850891,-2.3627030849456787,-0.3972364068031311,0.48864203691482544,-0.35961389541625977
-0.45901793241500854,-0.6525296568870544,-2.5026957988739014,-0.3658284544944763,0.47232383489608765,-0.38265055418014526
-0.5215045213699341,-0.25219404697418213,-2.7228150367736816,-0.3294936418533325,0.48437681794166565,-0.4149070382118225
-0.45529451966285706,0.20970192551612854,-2.8639445304870605,-0.2631351947784424,0.5495156049728394,-0.4400365948677063
-0.3005948066711426,0.6035796999931335,-2.8612773418426514,-0.1443544626235962,0.625350832939148,-0.43729716539382935
-0.11208902299404144,0.8542761206626892,-2.7299818992614746,-0.015423297882080078,0.6783944368362427,-0.3901559114456177
0.12880443036556244,0.9745832681655884,-2.541581630706787,0.08886957168579102,0.7091858386993408,-0.32901477813720703
0.4196491539478302,0.9683822393417358,-2.330808401107788,0.17520523071289062,0.7066179513931274,-0.28035712242126465
0.6800264120101929,0.8054417371749878,-2.154592990875244,0.24593621492385864,0.695118248462677,-0.21966016292572021
0.8896412253379822,0.5817304849624634,-2.024876832962036,0.2976415157318115,0.6718564033508301,-0.1529884934425354
1.053248405456543,0.3539910614490509,-1.8814632892608643,0.3526216149330139,0.6540746092796326,-0.10931860655546188
1.1258306503295898,0.19507597386837006,-1.664662480354309,0.4076927900314331,0.664774477481842,-0.061562418937683105
1.1676417589187622,0.10866095125675201,-1.3734259605407715,0.45495814085006714,0.6806415915489197,-0.025878727436065674
1.1957837343215942,0.06050097569823265,-1.0301296710968018,0.502383828163147,0.6820124983787537,-0.0016957446932792664
1.1709980964660645,0.01599125936627388,-0.6774734854698181,0.54713374376297,0.6588821411132812,0.02942180633544922
1.084476113319397,0.03480922430753708,-0.3403953015804291,0.5827900171279907,0.6256346702575684,0.06226980686187744
0.9943479299545288,0.08099935203790665,-0.057898275554180145,0.6068629026412964,0.5821532607078552,0.0823407769203186
0.8965376019477844,0.17253750562667847,0.16685281693935394,0.6072302460670471,0.5552700757980347,0.09309016168117523
0.748160719871521,0.33231809735298157,0.3747296929359436,0.6128965616226196,0.531330943107605,0.1143759936094284
0.5134189128875732,0.5370827913284302,0.6100569367408752,0.6370652914047241,0.5184102058410645,0.14365297555923462
0.15745720267295837,0.679431676864624,0.8276715278625488,0.6384181976318359,0.5199533700942993,0.1797669380903244
-0.41189348697662354,0.7477641701698303,0.9680860638618469,0.5539488792419434,0.5946767330169678,0.2341151386499405
-1.1083468198776245,0.7816420197486877,1.020601749420166,0.4170721173286438,0.7213404774665833,0.3000751733779907
-1.7032175064086914,0.7609667181968689,1.1353991031646729,0.3100261688232422,0.7655937671661377,0.3095589876174927
-2.2008118629455566,0.8249950408935547,1.4763416051864624,0.2925020456314087,0.749459445476532,0.2741467356681824
-2.628854274749756,1.0131924152374268,1.8239035606384277,0.2508968114852905,0.7051231861114502,0.24868150055408478
-3.070713996887207,1.0031979084014893,2.03385066986084,0.18108713626861572,0.6164366006851196,0.25137901306152344
-3.5492355823516846,0.8157095313072205,2.1288764476776123,0.053324103355407715,0.6014952659606934,0.26626336574554443
-3.9320223331451416,0.6249207258224487,2.4079794883728027,-0.08104068040847778,0.6781389117240906,0.24141529202461243
-4.01400899887085,0.4058665335178375,2.9503090381622314,-0.18690204620361328,0.7857804298400879,0.12354934215545654
-3.6733930110931396,-0.025078007951378822,3.347341775894165,-0.3391556143760681,0.7497434616088867,-0.07169312238693237
-3.1672754287719727,-0.5702295899391174,3.425297498703003,-0.5238814353942871,0.6100184917449951,-0.22592031955718994
-2.7167861461639404,-1.0333433151245117,3.278547763824463,-0.6614601612091064,0.42193442583084106,-0.3072572350502014
-2.258993625640869,-1.225746750831604,3.0395281314849854,-0.7278149127960205,0.22972387075424194,-0.3808211088180542
-1.7677247524261475,-1.0839730501174927,2.598745107650757,-0.788833498954773,0.04636198282241821,-0.47047168016433716
-1.4585179090499878,-0.5907467007637024,1.941696286201477,-0.801608145236969,-0.10390430688858032,-0.49419987201690674
-1.381481409072876,0.09621002525091171,1.252793312072754,-0.7381281852722168,-0.16868025064468384,-0.45991599559783936
-1.4175039529800415,0.7368294596672058,0.7968159317970276,-0.6016613245010376,-0.15496927499771118,-0.4207719564437866
-1.4920860528945923,1.110850214958191,0.6663341522216797,-0.4299337863922119,-0.11048287153244019,-0.36911284923553467
-1.5926463603973389,1.2377188205718994,0.7367751002311707,-0.28963959217071533,-0.08184975385665894,-0.31486523151397705
-1.61147940158844,1.1695924997329712,0.8461268544197083,-0.2043774127960205,-0.09788739681243896,-0.2973300814628601
-1.4815070629119873,0.9469220042228699,0.8471412658691406,-0.161912202835083,-0.18203330039978027,-0.31964248418807983
-1.2875844240188599,0.6814504861831665,0.7280292510986328,-0.16142213344573975,-0.28198450803756714,-0.3429313898086548
-1.1643327474594116,0.44740068912506104,0.6289673447608948,-0.1216895580291748,-0.37380075454711914,-0.33934199810028076
-1.0906189680099487,0.31965601444244385,0.5862024426460266,-0.07812899351119995,-0.42768919467926025,-0.348549485206604
-0.9685555696487427,0.31032875180244446,0.5872887372970581,-0.06628119945526123,-0.46586501598358154,-0.3883185386657715
-0.7748174071311951,0.353157103061676,0.5930995941162109,-0.07301586866378784,-0.4672847390174866,-0.44245076179504395
-0.5259461402893066,0.307053804397583,0.5435581207275391,-0.09431475400924683,-0.5017900466918945,-0.4750765562057495
-0.24587787687778473,0.26653334498405457,0.471360445022583,-0.1419544816017151,-0.5064038634300232,-0.48225975036621094
0.12849406898021698,0.23704513907432556,0.3669693171977997,-0.19654971361160278,-0.5137376189231873,-0.4995276927947998
0.5311797261238098,0.2664925754070282,0.23060789704322815,-0.2546314001083374,-0.5162448287010193,-0.49593496322631836
0.8272228240966797,0.2912472188472748,0.009820651262998581,-0.3161104917526245,-0.5177860260009766,-0.43996667861938477
0.8664417862892151,0.2972717583179474,-0.27942919731140137,-0.3993363380432129,-0.4976246953010559,-0.3348572254180908
0.7145258784294128,0.37044644355773926,-0.5057839751243591,-0.5189271569252014,-0.3337516784667969,-0.23600399494171143
0.7319021224975586,0.48241880536079407,-0.5725964307785034,-0.5926108360290527,-0.20444941520690918,-0.21346515417099
0.9950119256973267,0.4506467580795288,-0.7243142127990723,-0.6276551485061646,-0.21729105710983276,-0.24636387825012207
1.208625316619873,0.3773966133594513,-1.2541347742080688,-0.6911010146141052,-0.30537980794906616,-0.2173469066619873
1.2701054811477661,0.40069594979286194,-1.9772661924362183,-0.7329649329185486,-0.30133503675460815,-0.13703817129135132
1.224938988685608,0.4431445896625519,-2.615412473678589,-0.7155048251152039,-0.16206306219100952,-0.060066044330596924
0.9872993230819702,0.5178477168083191,-3.0851569175720215,-0.6758687496185303,0.06085246801376343,0.01939179003238678
0.6007458567619324,0.7659943103790283,-3.308788776397705,-0.6325868368148804,0.2971550226211548,0.08953136205673218
0.20731011033058167,1.0275416374206543,-3.3359127044677734,-0.5572495460510254,0.4684178829193115,0.1207696795463562
-0.02950497902929783,1.173663854598999,-3.292093515396118,-0.4695574641227722,0.5655585527420044,0.11990226805210114
-0.030729958787560463,1.1721124649047852,-3.203009843826294,-0.38195693492889404,0.6083155870437622,0.0940471887588501
0.19146327674388885,1.0145989656448364,-3.125807523727417,-0.29154032468795776,0.6300188302993774,0.062209442257881165
0.5324675440788269,0.7293718457221985,-3.083056926727295,-0.20477628707885742,0.6392788887023926,0.05065843462944031
0.828697919845581,0.3865186274051666,-3.0022881031036377,-0.10956978797912598,0.6581593751907349,0.06422042846679688
1.0241929292678833,0.008146733045578003,-2.810238838195801,0.013674318790435791,0.68348628282547,0.09737703204154968
1.1495583057403564,-0.2526099681854248,-2.5105254650115967,0.09693342447280884,0.7384772896766663,0.114815354347229
1.187833309173584,-0.35559728741645813,-2.178799867630005,0.16572105884552002,0.7720728516578674,0.1250186264514923
1.1148017644882202,-0.41083618998527527,-1.8514623641967773,0.24388933181762695,0.754404604434967,0.1525574028491974
0.926449179649353,-0.3723747134208679,-1.4901570081710815,0.3184172511100769,0.7337222099304199,0.18958032131195068
0.6740019917488098,-0.3204593062400818,-1.1031724214553833,0.38831520080566406,0.6989120841026306,0.2177564799785614
0.3854793310165405,-0.3158970773220062,-0.751639723777771,0.41514575481414795,0.6720279455184937,0.24262738227844238
0.0987970307469368,-0.39332637190818787,-0.5116544365882874,0.40356016159057617,0.6430689692497253,0.2585524022579193
-0.19867533445358276,-0.5158613324165344,-0.37627553939819336,0.3636620044708252,0.6083699464797974,0.2690383195877075
-0.5731282830238342,-0.6033812761306763,-0.22336305677890778,0.3685310482978821,0.5977033376693726,0.2775164842605591
-1.0272024869918823,-0.6119638681411743,-0.036509688943624496,0.38507455587387085,0.5951094031333923,0.2852081060409546
-1.5054380893707275,-0.5514631867408752,0.17824962735176086,0.39387673139572144,0.6056415438652039,0.2726684808731079
-1.9061306715011597,-0.47290295362472534,0.3538547456264496,0.3843259811401367,0.5993896722793579,0.23148024082183838
-2.246880054473877,-0.34893083572387695,0.5139772891998291,0.36276549100875854,0.5943024754524231,0.18586774170398712
-2.5420072078704834,-0.2706994116306305,0.5948572158813477,0.34467339515686035,0.5736100673675537,0.15972578525543213
-2.757596015930176,-0.2709949314594269,0.5913712978363037,0.3108004927635193,0.534626841545105,0.13533850014209747
-2.9491755962371826,-0.3269585371017456,0.57748943567276,0.30250799655914307,0.5047687292098999,0.10764271020889282
-3.1926047801971436,-0.3758620321750641,0.5940254330635071,0.29588836431503296,0.49916037917137146,0.09603144228458405
-3.4960711002349854,-0.3653162717819214,0.6255538463592529,0.26211220026016235,0.5489280223846436,0.0898112803697586
-3.819866418838501,-0.354506254196167,0.6955115795135498,0.22273677587509155,0.5909436345100403,0.06504929065704346
-4.172351837158203,-0.3898012638092041,0.7667220234870911,0.17914068698883057,0.6335663795471191,0.03009207546710968
-4.655518054962158,-0.44487127661705017,0.7970200181007385,0.08641999959945679,0.689552366733551,0.003550812602043152
-5.415102481842041,-0.5652198195457458,0.816015362739563,-0.07043147087097168,0.8325108289718628,-0.004685096442699432
-6.49564790725708,-0.37909916043281555,0.9772147536277771,-0.3199697732925415,1.1549301147460938,-0.012247085571289062
-7.454780101776123,0.6425346732139587,1.5097163915634155,-0.4336777329444885,1.494861364364624,-0.21574676036834717
-7.6039347648620605,1.5210962295532227,2.0783040523529053,-0.22280484437942505,1.293513298034668,-0.6493392586708069
-7.009552001953125,2.219297170639038,2.095014810562134,-0.0633779764175415,0.8147009611129761,-1.0187487602233887
-5.883857727050781,2.9048378467559814,1.5333058834075928,-0.11222052574157715,0.5475718379020691,-1.1646485328674316
-4.222971439361572,3.181044816970825,1.0758681297302246,-0.06159776449203491,0.36334866285324097,-1.1930289268493652
-2.427704334259033,2.9028916358947754,1.1477400064468384,0.06102389097213745,0.2562806010246277,-1.0403938293457031
-0.9740601778030396,2.2273027896881104,1.3840371370315552,0.05449366569519043,0.20127514004707336,-0.7407329678535461
-0.2630624771118164,1.4119750261306763,1.419499397277832,-0.0623508095741272,0.1315467655658722,-0.4158036708831787
-0.4476577341556549,0.6346674561500549,1.2313312292099,-0.10652953386306763,0.024419128894805908,-0.1330699920654297
-1.2765744924545288,0.1237824559211731,1.0003399848937988,-0.06799697875976562,-0.09061592817306519,0.06863614916801453
-2.1876134872436523,0.00416425708681345,0.7239034175872803,-0.05012017488479614,-0.1168321967124939,0.09228594601154327
-2.7844629287719727,0.07720590382814407,0.4275803864002228,-0.04916059970855713,-0.07921820878982544,-0.058637261390686035
-2.9967617988586426,0.1772012710571289,0.23072940111160278,0.0018225312232971191,-0.05171096324920654,-0.24743185937404633
-2.860687255859375,0.34870007634162903,0.20852741599082947,0.0709298849105835,0.0017462372779846191,-0.4290717840194702
-2.374818801879883,0.48063141107559204,0.36960646510124207,0.14850473403930664,0.021679401397705078,-0.5953868627548218
-1.652164101600647,0.6240813136100769,0.6549139022827148,0.22350013256072998,0.01763850450515747,-0.7156864404678345
-0.9018990993499756,0.6892523169517517,0.9211928844451904,0.2417502999305725,-0.03547614812850952,-0.7313269376754761
-0.3217931389808655,0.709618866443634,1.0924400091171265,0.20020240545272827,-0.08824658393859863,-0.6454569101333618
0.0991782695055008,0.7605938911437988,1.1908046007156372,0.14175009727478027,-0.13089615106582642,-0.5353031754493713
0.3453817069530487,0.7676509618759155,1.2590970993041992,0.10288888216018677,-0.16616904735565186,-0.44299858808517456
0.38022521138191223,0.7539501190185547,1.2773174047470093,0.056193768978118896,-0.1844918131828308,-0.33838194608688354
0.3210415840148926,0.7662555575370789,1.207980990409851,-0.001629948616027832,-0.19153940677642822,-0.2697734832763672
0.19794544577598572,0.8001927137374878,0.9891926646232605,-0.09229099750518799,-0.1924564242362976,-0.24021218717098236
-0.04870292916893959,0.9086170792579651,0.6969277262687683,-0.18906915187835693,-0.16255247592926025,-0.20642675459384918
-0.3685376048088074,1.0685768127441406,0.31226781010627747,-0.2863451838493347,-0.13608133792877197,-0.170479878783226
-0.7621647715568542,1.3952724933624268,0.03433452174067497,-0.3455016613006592,-0.11840248107910156,-0.1502056121826172
-1.24123215675354,1.910229206085205,-0.04466003179550171,-0.3383232355117798,-0.0767703652381897,-0.11957727372646332
-1.6036207675933838,2.4222264289855957,0.03671305999159813,-0.3104209899902344,-0.08099156618118286,-0.12209929525852203
-1.6979386806488037,2.7256598472595215,0.15388521552085876,-0.28077179193496704,-0.11512237787246704,-0.15229317545890808
-1.4930275678634644,2.7711994647979736,0.20919129252433777,-0.2886192202568054,-0.19196003675460815,-0.18192803859710693
-1.1114181280136108,2.6854538917541504,0.12661638855934143,-0.33940666913986206,-0.2867322564125061,-0.18292519450187683
-0.752103328704834,2.5808887481689453,-0.03550022467970848,-0.39077287912368774,-0.38445383310317993,-0.11328789591789246
-0.5799197554588318,2.522346019744873,-0.20119251310825348,-0.41200512647628784,-0.48581063747406006,-0.00655132532119751
