rotation_x,rotation_y,rotation_z,acceleration_x,acceleration_y,acceleration_z
-0.8575146198272705,-0.32247641682624817,-0.4356931149959564,-0.16702237725257874,-0.09771600365638733,-0.10044348239898682
-0.5540828704833984,-0.5100547075271606,-0.47428083419799805,-0.10229071974754333,-0.16834911704063416,-0.39026451110839844
0.24263854324817657,-0.4775847792625427,-0.560450553894043,-0.13964888453483582,-0.14534056186676025,-0.3538423180580139
0.5336936712265015,-0.401671826839447,-0.5597450137138367,-0.15027058124542236,-0.19502988457679749,-0.11959338188171387
0.4126608073711395,-0.5520046949386597,-0.39126458764076233,-0.12086813151836395,-0.18074709177017212,-0.03353029489517212
0.259817510843277,-0.6201350092887878,-0.30466824769973755,-0.13671869039535522,-0.0903063416481018,0.0027669668197631836
0.14710046350955963,-0.5656971335411072,-0.24464742839336395,-0.10111618041992188,-0.02395448088645935,-0.033680081367492676
0.46760934591293335,-0.5182947516441345,-0.32796838879585266,-0.08002117276191711,-0.024169743061065674,-0.13071006536483765
0.935774028301239,-0.509936511516571,-0.24839940667152405,0.04428502917289734,-0.08576634526252747,-0.046788692474365234
1.006845474243164,-0.5167104005813599,0.05957692861557007,0.10364420711994171,-0.0588076114654541,0.1268855333328247
0.7529805302619934,-0.5511957406997681,0.19656196236610413,0.05647347867488861,0.05034521222114563,0.2344685196876526
0.362379252910614,-0.6460689902305603,0.07015103101730347,0.00917564332485199,0.030525147914886475,0.22551190853118896
0.17770542204380035,-0.8005246520042419,-0.18867139518260956,0.05691865086555481,-0.054771482944488525,0.16532015800476074
0.13339853286743164,-0.7114513516426086,0.025590945035219193,0.1966652274131775,-0.10947495698928833,0.19104444980621338
0.04968034103512764,-0.7427722811698914,0.45563629269599915,0.2989552319049835,-0.1407899260520935,0.047864675521850586
0.4522278606891632,-0.5557840466499329,0.8363829255104065,0.31393370032310486,-0.07146435976028442,-0.06081712245941162
0.6571934223175049,-0.04029015824198723,1.1452363729476929,0.15486520528793335,0.03612256050109863,0.09281599521636963
0.49990314245224,0.4471212923526764,0.8663350939750671,-0.08989447355270386,0.18332600593566895,0.09197956323623657
0.18321232497692108,0.16121429204940796,0.4222557544708252,-0.16432255506515503,0.13620984554290771,0.03916209936141968
-0.0728997141122818,-0.34183692932128906,0.2307491898536682,-0.028973519802093506,0.09576523303985596,-0.03685116767883301
0.08075585961341858,-0.2973852753639221,0.1409977525472641,0.07954394817352295,0.11220318078994751,-0.0868368148803711
0.5184714198112488,0.4460274875164032,0.15529480576515198,0.18309757113456726,0.10157531499862671,-0.0518108606338501
0.7011651992797852,0.8288972973823547,0.2151544839143753,0.22863426804542542,0.05964255332946777,-0.03748774528503418
0.6130972504615784,0.5237061381340027,0.22653314471244812,0.21580040454864502,0.002160489559173584,0.022665977478027344
0.34049510955810547,0.2594531774520874,0.6126516461372375,0.2254219949245453,-0.06898051500320435,0.17582762241363525
-0.19887219369411469,0.4811403751373291,0.9498210549354553,0.10190737247467041,0.0009854435920715332,0.24115687608718872
-0.6326524615287781,0.7922893762588501,0.9223376512527466,-0.022690922021865845,0.05895751714706421,0.0023511648178100586
-0.5819111466407776,0.8417381048202515,0.6835561990737915,-0.06108713150024414,0.11040771007537842,-0.2836812734603882
-0.227760910987854,0.8144580125808716,0.29945239424705505,-0.02796947956085205,0.1650981903076172,-0.45618945360183716
0.24978256225585938,0.5956641435623169,0.051494281738996506,0.09834098815917969,0.15770506858825684,-0.5024626851081848
0.5698520541191101,0.45344462990760803,0.00250424025580287,0.14163029193878174,0.11917603015899658,-0.32569587230682373
0.6688024997711182,0.41080495715141296,-0.0404471829533577,0.15591910481452942,0.14223766326904297,-0.11829239130020142
0.4334648847579956,0.4189833402633667,-0.1076229140162468,0.15615829825401306,0.13651502132415771,0.09106582403182983
0.032679878175258636,0.5447707176208496,-0.032729584723711014,0.19027766585350037,0.10554981231689453,0.1682071089744568
-0.20884455740451813,0.6854753494262695,0.1208391860127449,0.18710628151893616,0.06506788730621338,0.11173456907272339
-0.16438382863998413,0.7884789109230042,0.18093295395374298,0.16738751530647278,0.04304295778274536,-0.009327113628387451
0.09706755727529526,0.8388963937759399,0.25311675667762756,0.18590997159481049,0.020021498203277588,-0.10411381721496582
0.31070709228515625,0.7365483641624451,0.4218786954879761,0.22389721870422363,0.028434157371520996,-0.06835144758224487
0.32959893345832825,0.6586158871650696,0.5647909641265869,0.17042136192321777,0.05671769380569458,-0.00017642974853515625
0.3612133860588074,0.6351640820503235,0.5875477194786072,0.07734818756580353,0.09216761589050293,0.06237441301345825
0.432701051235199,0.6122170090675354,0.49930012226104736,0.0050910115242004395,0.07953053712844849,0.10854929685592651
0.3760935664176941,0.517459511756897,0.5144830942153931,0.013579517602920532,0.03317606449127197,0.18122875690460205
0.1705305427312851,0.495634526014328,0.6651989221572876,0.039498746395111084,0.03449714183807373,0.21274328231811523
0.05057849735021591,0.4797162115573883,0.8244616985321045,-0.010460302233695984,0.0474778413772583,0.14200115203857422
0.016133079305291176,0.28275230526924133,0.752329409122467,-0.11472997069358826,0.07932436466217041,0.09164941310882568
-0.09271198511123657,0.07746884226799011,0.5599400401115417,-0.16625002026557922,0.08431100845336914,0.11775225400924683
-0.25085321068763733,0.16956333816051483,0.23318131268024445,-0.22193418443202972,0.06863117218017578,0.1409885287284851
-0.32901716232299805,0.2242693156003952,0.010966265574097633,-0.1486441195011139,0.0020278096199035645,0.00999605655670166
-0.231802299618721,0.1164197251200676,-0.07946386188268661,-0.07052762806415558,-0.04591679573059082,-0.12628912925720215
-0.16442358493804932,-0.04077332839369774,-0.1488402932882309,-0.00813668966293335,-0.05617320537567139,-0.18690890073776245
-0.11828102171421051,-0.25954553484916687,-0.09981131553649902,0.042974114418029785,-0.04722726345062256,-0.209628164768219
-0.03290325030684471,-0.15919695794582367,-0.07923832535743713,-0.013162702322006226,0.002402186393737793,-0.16030961275100708
0.12163970619440079,-0.12234452366828918,-0.17334604263305664,-0.14215125143527985,0.018002212047576904,-0.08370184898376465
0.019365010783076286,-0.3197981119155884,-0.4054419696331024,-0.23544350266456604,0.010771632194519043,0.0530208945274353
-0.26188161969184875,-0.49984562397003174,-0.5633847713470459,-0.2025163322687149,-0.09549117088317871,0.1703447699546814
-0.6934536695480347,-0.22044651210308075,-0.44576698541641235,-0.0945834368467331,-0.091022789478302,0.17239278554916382
-1.0717353820800781,-0.15795095264911652,-0.25974196195602417,-0.07442791759967804,-0.042581707239151,-0.05582708120346069
-1.1593899726867676,-0.354839026927948,-0.31134167313575745,-0.1677004098892212,0.07942458987236023,-0.29794400930404663
-0.6513785123825073,-0.379382848739624,-0.8446131944656372,-0.28712624311447144,0.10377803444862366,-0.4374956488609314
0.20421123504638672,-0.4118342697620392,-1.558624267578125,-0.11666001379489899,0.023135274648666382,-0.38777226209640503
0.6744751334190369,-0.3732980489730835,-1.5183229446411133,0.27389800548553467,-0.1675264835357666,-0.09537672996520996
0.6304826140403748,-0.2325468808412552,-0.8499144911766052,0.4648151993751526,-0.2984960973262787,0.21281766891479492
0.07054459303617477,0.23783867061138153,-0.008222030475735664,0.3830881118774414,-0.32223695516586304,0.41999536752700806
-0.5486364960670471,0.5094100832939148,0.5058393478393555,0.17791767418384552,-0.163851797580719,0.3160433769226074
-0.6988687515258789,0.5563062429428101,0.5683577060699463,-0.0014823228120803833,0.0071998536586761475,0.0821797251701355
-0.5046225190162659,0.40320509672164917,0.3760491609573364,-0.11110389232635498,0.09486225247383118,-0.04819977283477783
-0.17431268095970154,0.29278627038002014,0.1164693832397461,-0.15438030660152435,0.12815308570861816,-0.06648218631744385
0.036230091005563736,0.28618645668029785,-0.09820143133401871,-0.16214485466480255,0.11868268251419067,0.03140377998352051
0.07166872918605804,0.29638704657554626,-0.22908976674079895,-0.1594768613576889,0.09282317757606506,0.10042327642440796
0.028597628697752953,0.21341551840305328,-0.25550442934036255,-0.14521591365337372,0.07905888557434082,0.14119070768356323
-0.05600276216864586,0.22642278671264648,-0.3136852979660034,-0.17985640466213226,0.07003515958786011,0.12901967763900757
0.03453833982348442,0.20347632467746735,-0.36824244260787964,-0.15577355027198792,0.07188177108764648,0.07552611827850342
0.08968468010425568,0.19159144163131714,-0.3998427093029022,-0.13538065552711487,0.0494939386844635,0.1058855652809143
0.04202103987336159,0.11774662137031555,-0.29942408204078674,-0.05918273329734802,0.024204552173614502,0.11175566911697388
-0.022986482828855515,-0.015730729326605797,-0.14317353069782257,-0.046661198139190674,-0.0005220770835876465,0.12890219688415527
-0.12172157317399979,0.11457628011703491,-0.08007108420133591,-0.09770362079143524,0.013307839632034302,0.13198280334472656
-0.17570967972278595,0.1467910259962082,-0.07521498948335648,-0.10566924512386322,0.01706230640411377,0.05655801296234131
-0.20411863923072815,0.05882802978157997,-0.03876223787665367,-0.10059314966201782,-0.004082322120666504,-0.02396339178085327
-0.15317349135875702,-0.0818927139043808,-0.009809045121073723,-0.08221016824245453,0.003596782684326172,-0.10212963819503784
-0.15948700904846191,-0.2243364304304123,0.04429017752408981,-0.04478059709072113,0.0010984838008880615,-0.09508329629898071
-0.2387515753507614,-0.25109437108039856,0.04612459987401962,-0.07128927111625671,0.018633991479873657,-0.06466734409332275
-0.23741962015628815,-0.07752383500337601,-0.19556869566440582,-0.13342726230621338,0.045233964920043945,-0.07712382078170776
-0.14451609551906586,-0.06923684477806091,-0.3682098090648651,-0.08490875363349915,-0.02782699465751648,-0.09561097621917725
-0.3212558627128601,-0.07283467799425125,-0.26931020617485046,-0.0033686012029647827,-0.0341857373714447,-0.007320106029510498
-1.0265778303146362,-0.21052372455596924,0.00276594958268106,0.08184751868247986,-0.011145472526550293,0.00993502140045166
-1.466467261314392,-0.3403065502643585,0.16281741857528687,0.08444163203239441,0.0398792028427124,-0.20617461204528809
-1.1932570934295654,-0.17741942405700684,0.11064561456441879,0.0049401819705963135,0.04686129093170166,-0.3390488624572754
-0.506375253200531,0.2973398268222809,-0.08633657544851303,-0.016689881682395935,0.05804869532585144,-0.3424842953681946
0.054663971066474915,0.4628375172615051,-0.15724752843379974,0.0426550954580307,0.02867060899734497,-0.22414445877075195
0.06133069470524788,0.2437826544046402,-0.13749061524868011,0.08497457206249237,0.024647176265716553,-0.03625798225402832
-0.25499603152275085,0.09459631890058517,-0.07183003425598145,0.12088480591773987,0.020274758338928223,0.09529566764831543
-0.5309706330299377,0.17823652923107147,0.10203394293785095,0.1547948271036148,0.008005857467651367,0.05497896671295166
-0.4478287994861603,0.3069911301136017,0.1751091331243515,0.14131712913513184,0.05445551872253418,-0.1128925085067749
-0.13637536764144897,0.3807827830314636,0.14766550064086914,0.12479454278945923,0.06599780917167664,-0.17402976751327515
0.0925448089838028,0.33618324995040894,0.09721622616052628,0.10344851762056351,0.055029213428497314,-0.06245142221450806
0.07720579952001572,0.3394327163696289,0.07867278903722763,0.11725129187107086,0.027538061141967773,0.08795487880706787
0.054310377687215805,0.3320184648036957,0.19016149640083313,0.14627757668495178,-0.02322632074356079,0.13961529731750488
0.07420244812965393,0.0042104520834982395,0.3821382224559784,0.1569860726594925,-0.044757306575775146,0.14244216680526733
-0.00123262545093894,0.004617377184331417,0.4756615161895752,0.12152929604053497,-0.05360770225524902,0.2654132843017578
-0.09537211060523987,0.33118292689323425,0.5487344264984131,0.05659468472003937,-0.08416342735290527,0.2972158193588257
-0.19663169980049133,0.39458417892456055,0.5997090339660645,0.02303534746170044,-0.0979304313659668,0.2501646876335144
-0.4240569472312927,0.18846262991428375,0.5928128957748413,0.008454203605651855,-0.09591168165206909,0.1857953667640686
-0.6003589034080505,-0.06890694051980972,0.6090545058250427,0.0024475231766700745,-0.10352617502212524,0.06734836101531982
-0.35923346877098083,-0.0854731947183609,0.5261818170547485,-0.038524091243743896,-0.09417080879211426,-0.09586489200592041
-0.06872774660587311,-0.07542367279529572,0.4253416955471039,-0.06996169686317444,-0.09519663453102112,-0.07439815998077393
-0.0763971358537674,-0.0027213767170906067,0.18707939982414246,-0.14002031087875366,-0.08906424045562744,-0.034923255443573
-0.0561310239136219,-0.1688271462917328,-0.021275559440255165,-0.12062125653028488,-0.10255491733551025,-0.09724384546279907
0.07316944003105164,-0.23430736362934113,-0.135284423828125,-0.0955241322517395,-0.14139023423194885,-0.13163208961486816
0.2402539998292923,-0.2491919845342636,-0.17750106751918793,-0.05640295147895813,-0.15709933638572693,-0.13499152660369873
0.2535600960254669,-0.21963344514369965,-0.18995401263237,-0.04220829904079437,-0.1524413824081421,-0.0946270227432251
0.21905206143856049,-0.24312438070774078,-0.25250914692878723,-0.06134119629859924,-0.12457999587059021,-0.10376465320587158
0.30895543098449707,-0.4850756824016571,-0.2876802682876587,-0.047143206000328064,-0.12213826179504395,-0.1590898036956787
0.3657188415527344,-0.6321314573287964,-0.26366573572158813,-0.09170833230018616,-0.19417127966880798,-0.0016086697578430176
0.0894462838768959,-0.2838950455188751,-0.2077447772026062,-0.12912769615650177,-0.21061354875564575,0.11022371053695679
-0.36476704478263855,-0.0852944552898407,-0.08680517226457596,-0.08871427178382874,-0.11489921808242798,-0.10474246740341187
-0.3523912727832794,-0.3879990875720978,-0.12012141942977905,-0.13505485653877258,-0.04054391384124756,-0.40278857946395874
0.13741114735603333,-0.7004592418670654,-0.4202360510826111,-0.23412881791591644,0.04156613349914551,-0.444537878036499
0.5163233876228333,-0.6679869890213013,-0.8507371544837952,-0.24101531505584717,0.0632944107055664,-0.2289978265762329
0.7554037570953369,-0.525958240032196,-1.1030486822128296,-0.14006438851356506,0.026519298553466797,-0.04352438449859619
0.7423932552337646,-0.482791543006897,-1.096584677696228,-0.047874003648757935,0.008542954921722412,0.1603582501411438
0.40039774775505066,-0.2524624168872833,-1.017794132232666,-0.056714341044425964,-0.04389113187789917,0.30808329582214355
0.009880179539322853,-0.11834394931793213,-0.8636546730995178,-0.025695860385894775,-0.07028523087501526,0.24166041612625122
-0.17002840340137482,-0.2017195075750351,-0.6742392778396606,-0.018371373414993286,-0.046063244342803955,0.08228176832199097
-0.16162487864494324,-0.07798927277326584,-0.5753588676452637,-0.05352678894996643,-0.009316086769104004,-0.03642183542251587
0.0868004560470581,-0.11619729548692703,-0.5394187569618225,-0.05980236828327179,0.0438285768032074,-0.13506633043289185
0.29676154255867004,-0.30091407895088196,-0.5826559662818909,-0.08525413274765015,0.09101969003677368,-0.09552586078643799
0.4308687746524811,-0.39109379053115845,-0.6868737936019897,-0.09523172676563263,0.09935933351516724,-0.01193469762802124
0.5168629884719849,-0.3777224123477936,-0.717183530330658,-0.043873608112335205,0.09603875875473022,0.08681988716125488
0.5272822976112366,-0.2509233057498932,-0.7264896631240845,-0.032619133591651917,0.08478471636772156,0.12119770050048828
0.6400488018989563,-0.2415791153907776,-0.738320529460907,-0.035094186663627625,0.08088383078575134,0.07878690958023071
0.7492712140083313,-0.26855599880218506,-0.7332970499992371,-0.040283769369125366,0.0862547755241394,0.12800997495651245
0.6879804134368896,-0.23886319994926453,-0.7142848372459412,-0.012461826205253601,0.09370166063308716,0.187119722366333
0.5911864638328552,-0.19203506410121918,-0.5422819256782532,0.029786810278892517,0.0803937017917633,0.1750931739807129
0.4516628384590149,-0.20892640948295593,-0.3689734935760498,0.04114179313182831,0.0805169939994812,0.17689883708953857
0.34697791934013367,-0.09320539236068726,-0.27406755089759827,0.011376649141311646,0.0865735411643982,0.12329792976379395
0.2836954891681671,-0.14666230976581573,-0.21812085807323456,0.002112448215484619,0.09292364120483398,0.049161672592163086
0.2464708685874939,-0.1562480479478836,-0.17030085623264313,0.022049546241760254,0.07362151145935059,0.021426737308502197
0.13574495911598206,-0.05333981290459633,-0.062086477875709534,0.04443933069705963,0.06313866376876831,0.040719568729400635
-0.06115732342004776,-0.0077083418145775795,0.03613032400608063,0.0641869455575943,0.06475687026977539,0.004572033882141113
-0.13141798973083496,-0.01082339882850647,0.0971137210726738,0.0433569997549057,0.043002188205718994,-0.04943138360977173
-0.17241846024990082,-0.03244656324386597,0.13624203205108643,0.01404494047164917,0.04270493984222412,-0.020105600357055664
-0.5343525409698486,0.20726054906845093,0.21314682066440582,0.03542491793632507,0.06440854072570801,0.0817827582359314
-1.0485526323318481,0.435072124004364,0.36041221022605896,0.10883153975009918,0.07291677594184875,-0.06326109170913696
-1.0683519840240479,0.49979984760284424,0.3099896013736725,0.07565712928771973,0.10669925808906555,-0.3179623484611511
-0.6247615218162537,0.4754108786582947,0.1559758335351944,0.07822316884994507,0.1135515570640564,-0.4113765358924866
-0.3505663275718689,0.3955977261066437,0.0554947704076767,0.14230364561080933,0.11063367128372192,-0.2505261301994324
-0.43393072485923767,0.35338065028190613,0.09393816441297531,0.19236785173416138,0.08007282018661499,-0.0867241621017456
-0.4324919581413269,0.3605586290359497,0.15592867136001587,0.18486268818378448,0.08347037434577942,-0.03021949529647827
-0.372407466173172,0.37153366208076477,0.2148101031780243,0.18458405137062073,0.07694855332374573,0.0081254243850708
-0.38196128606796265,0.393102765083313,0.3331320583820343,0.19875091314315796,0.07165482640266418,0.02093958854675293
-0.3697814643383026,0.5005624890327454,0.40003547072410583,0.16100816428661346,0.07685297727584839,-0.01203763484954834
-0.2505863904953003,0.5152140259742737,0.4533073306083679,0.13814155757427216,0.08186298608779907,-0.04895758628845215
-0.24637848138809204,0.4860059916973114,0.4703185260295868,0.09755931794643402,0.08623245358467102,-0.0035009384155273438
-0.2852174639701843,0.41168326139450073,0.4603863060474396,0.07645843923091888,0.07062625885009766,0.007600843906402588
-0.17515240609645844,0.3277986943721771,0.4589303731918335,0.07073552161455154,0.029058724641799927,0.005401253700256348
-0.05870915204286575,0.2677958309650421,0.4646015763282776,0.08144007623195648,0.0037346184253692627,0.057373106479644775
-0.0104941101744771,0.22692863643169403,0.5449509620666504,0.08973326534032822,-0.013088583946228027,0.11232739686965942
-0.07406168431043625,0.19540922343730927,0.6609258651733398,0.09317856281995773,-0.024448871612548828,0.16668450832366943
-0.2737346887588501,0.1325613111257553,0.8080419898033142,0.08651557564735413,-0.05007195472717285,0.1711503267288208
-0.3387199640274048,0.14811773598194122,0.8275017738342285,0.02399437129497528,-0.05056476593017578,0.06353461742401123
-0.1360931694507599,0.01698901690542698,0.7565757632255554,0.03252096474170685,-0.06317633390426636,-0.049417078495025635
0.03936144337058067,-0.048932962119579315,0.7425227761268616,0.046356201171875,-0.09373736381530762,-0.018186986446380615
0.09466254711151123,0.005859307013452053,0.7124434113502502,0.022712722420692444,-0.09819817543029785,0.04327237606048584
-0.00199981895275414,-0.005293878260999918,0.693766713142395,0.0008267313241958618,-0.114187091588974,0.07909947633743286
-0.19619950652122498,-0.04169777035713196,0.5786432027816772,-0.07828210294246674,-0.11657249927520752,0.055825769901275635
-0.12079967558383942,-0.017144953832030296,0.38989314436912537,-0.10276320576667786,-0.12897825241088867,-0.08594435453414917
0.08563189208507538,0.013459762558341026,0.2303764820098877,-0.09573394060134888,-0.1356172263622284,-0.16800940036773682
0.22507281601428986,-0.16392990946769714,0.15217460691928864,-0.027012988924980164,-0.12694603204727173,-0.22198116779327393
0.2646445035934448,-0.36139240860939026,0.1617755889892578,-0.003736063838005066,-0.13214561343193054,-0.19498759508132935
0.32467615604400635,-0.5042612552642822,0.11322230845689774,-0.04852689802646637,-0.1457105278968811,-0.09943950176239014
0.18449349701404572,-0.35111817717552185,0.10333576053380966,-0.12246355414390564,-0.22917652130126953,0.1078559160232544
-0.22929035127162933,0.10310095548629761,0.2429455667734146,-0.10868287086486816,-0.21391847729682922,0.03214061260223389
-0.3674502372741699,-0.02376384846866131,0.2951206564903259,-0.13948380947113037,-0.12355750799179077,-0.2828400135040283
-0.18839451670646667,-0.31073418259620667,0.12298178672790527,-0.21554280817508698,-0.03124949336051941,-0.4210458993911743
0.2280857264995575,-0.44865819811820984,-0.22999204695224762,-0.26558780670166016,0.05426636338233948,-0.4065801501274109
0.7043176889419556,-0.539656937122345,-0.6272652745246887,-0.24879731237888336,0.10497486591339111,-0.225746750831604
0.9186117053031921,-0.5193953514099121,-0.8479488492012024,-0.16250070929527283,0.06970039010047913,0.06499207019805908
0.7576332092285156,-0.33411338925361633,-0.8842573165893555,-0.11614617705345154,0.00331956148147583,0.2674972414970398
0.3708556294441223,-0.1938922107219696,-0.7844666838645935,-0.11349868774414062,-0.041280388832092285,0.34140467643737793
-0.12093666940927505,-0.04033346474170685,-0.7079305052757263,-0.10718998312950134,-0.026107579469680786,0.2454487681388855
-0.3391363322734833,-0.017666634172201157,-0.5647312998771667,-0.054707229137420654,0.00729098916053772,-0.02788400650024414
-0.18379317224025726,-0.05259675532579422,-0.4547206163406372,-0.06598417460918427,0.06365057826042175,-0.26376837491989136
0.28902667760849,-0.3406867980957031,-0.5589594841003418,-0.13605186343193054,0.12364980578422546,-0.3400018811225891
0.6551210880279541,-0.43086573481559753,-0.8380600810050964,-0.18466900289058685,0.16290315985679626,-0.11740845441818237
0.6929308176040649,-0.40991276502609253,-1.0483694076538086,-0.0979594737291336,0.13151073455810547,0.09672796726226807
0.5951298475265503,-0.42123129963874817,-1.0110074281692505,0.0120648592710495,0.08245223760604858,0.19113433361053467
0.5511762499809265,-0.3340305685997009,-0.857471764087677,0.05559776723384857,0.05748295783996582,0.21860218048095703
0.5003764629364014,-0.3388473689556122,-0.6553674936294556,0.07191723585128784,0.05023971199989319,0.1890188455581665
0.49653545022010803,-0.3373804986476898,-0.5107918977737427,0.03513507544994354,0.06491899490356445,0.17245972156524658
0.4844887852668762,-0.3050920069217682,-0.4753165543079376,-0.0023918449878692627,0.08089029788970947,0.1716577410697937
0.4430137276649475,-0.24888315796852112,-0.4625101089477539,0.0030176937580108643,0.060151755809783936,0.17492955923080444
0.3633664548397064,-0.19756078720092773,-0.3347617983818054,0.07717859745025635,0.016442060470581055,0.14244097471237183
0.29163989424705505,-0.19450277090072632,-0.07473178207874298,0.12819011509418488,-0.021091699600219727,0.047812700271606445
0.2991396486759186,-0.18175804615020752,0.15741266310214996,0.11011168360710144,-0.01755344867706299,-0.0037206411361694336
0.2619442641735077,-0.07720432430505753,0.2766936123371124,0.08190591633319855,0.0008528828620910645,-0.011286139488220215
0.22396714985370636,0.23138703405857086,0.267250657081604,0.0554996132850647,0.008518517017364502,-0.053454816341400146
0.2027629166841507,0.24432633817195892,0.28789830207824707,0.07290177047252655,0.009945988655090332,-0.08236026763916016
0.08106179535388947,0.15526768565177917,0.340390145778656,0.0999804139137268,-0.013247132301330566,-0.05584108829498291
-0.037278834730386734,0.0698951929807663,0.4469022750854492,0.11478562653064728,-0.04222935438156128,-0.05179792642593384
-0.04477830231189728,0.28719931840896606,0.47611239552497864,0.05042131245136261,-0.07938122749328613,0.03287231922149658
-0.29434409737586975,0.6695716381072998,0.588111162185669,0.03165772557258606,-0.09307539463043213,0.10848677158355713
-0.9013957381248474,0.8300670385360718,0.6100631952285767,0.03639739751815796,-0.02604728937149048,0.12686842679977417
-1.0036544799804688,0.5867997407913208,0.7307928204536438,0.11021572351455688,0.015797853469848633,-0.19464659690856934
-0.39854151010513306,0.4614320993423462,0.5580335259437561,0.037382468581199646,0.041950523853302,-0.48820728063583374
0.21864967048168182,0.533937931060791,0.17127923667430878,-0.06038568913936615,0.1333458423614502,-0.4787812829017639
0.485156387090683,0.4598598778247833,0.02553705871105194,-0.009884804487228394,0.10432341694831848,-0.2797396183013916
0.374267578125,0.3999703824520111,-0.02843208611011505,0.06477749347686768,0.09782272577285767,-0.018470406532287598
0.08102233707904816,0.39292779564857483,0.02851306088268757,0.09534785151481628,0.08356863260269165,0.15277451276779175
-0.19799982011318207,0.42131316661834717,0.18183600902557373,0.13488303124904633,0.04509866237640381,0.16485869884490967
-0.15767204761505127,0.3275151252746582,0.2952558994293213,0.14842356741428375,0.054631322622299194,0.016391873359680176
0.03231288120150566,0.34617918729782104,0.2595183253288269,0.09247514605522156,0.09877476096153259,-0.08470255136489868
0.12198355048894882,0.3763672411441803,0.24230840802192688,0.0789579302072525,0.10473617911338806,-0.07462280988693237
0.06778394430875778,0.4465731084346771,0.31188201904296875,0.12351721525192261,0.07155933976173401,0.02646338939666748
0.013045037165284157,0.4288305938243866,0.34802189469337463,0.10230974853038788,0.045410871505737305,0.09508514404296875
-0.054868433624506,0.27358800172805786,0.43436399102211,0.09007002413272858,0.032900989055633545,0.13090699911117554
-0.027273843064904213,0.12101483345031738,0.4518568515777588,0.060805901885032654,0.020719408988952637,0.11795485019683838
0.1365089863538742,0.060105014592409134,0.460727721452713,0.0481439083814621,0.02877706289291382,0.06336796283721924
0.18217991292476654,0.05094299465417862,0.4779244363307953,0.04909317195415497,0.029365122318267822,0.0854349136352539
0.02674674615263939,0.020185718312859535,0.49497556686401367,0.03231021761894226,0.02130010724067688,0.1677241325378418
-0.1518740952014923,-0.016884448006749153,0.48004934191703796,0.009187504649162292,0.011654853820800781,0.15992367267608643
-0.18378566205501556,-0.07831056416034698,0.4282782971858978,0.01035909354686737,0.004191935062408447,0.06832605600357056
-0.1499219834804535,-0.17531658709049225,0.3715094029903412,0.02421458065509796,-0.009769946336746216,0.026664912700653076
-0.14145511388778687,-0.10223004221916199,0.2396349459886551,-0.029739484190940857,-0.0264243483543396,0.01961541175842285
-0.07988259941339493,-0.04423145577311516,0.04851023107767105,-0.08477191627025604,-0.029485106468200684,-0.029083967208862305
-0.007002010941505432,-0.12705007195472717,-0.15303102135658264,-0.09966707229614258,-0.04313158988952637,-0.07828128337860107
0.15214501321315765,-0.20521441102027893,-0.3512328267097473,-0.08203355967998505,-0.04180482029914856,-0.14297384023666382
0.31983867287635803,0.0010764033067971468,-0.5021289587020874,-0.036888718605041504,-0.026545405387878418,-0.1149301528930664
0.3077843189239502,-0.004491844214498997,-0.5013906359672546,-0.0007004588842391968,-0.039272427558898926,-0.09791302680969238
0.28251487016677856,0.17223556339740753,-0.5630502700805664,-0.09302964806556702,-0.07589733600616455,-0.049291014671325684
0.08695012331008911,0.034091804176568985,-0.446723997592926,-0.08680252730846405,-0.08972436189651489,0.01715749502182007
-0.732912003993988,-0.3631763160228729,-0.30913421511650085,-0.08595283329486847,-0.05229419469833374,-0.013054609298706055
-1.0990095138549805,-0.5626259446144104,-0.348946213722229,-0.12134647369384766,-0.02249246835708618,-0.2616564631462097
-0.8065231442451477,-0.431167870759964,-0.4188503921031952,-0.15613378584384918,-0.00021272897720336914,-0.39118045568466187
-0.38811883330345154,-0.13428856432437897,-0.6272932887077332,-0.14891615509986877,0.06878548860549927,-0.39562928676605225
0.009619316086173058,-0.3239344656467438,-0.7886562347412109,-0.10071767866611481,0.10047191381454468,-0.3552190661430359
0.3297387957572937,-0.5170547962188721,-0.9347051978111267,-0.10244593024253845,0.1079932451248169,-0.11844241619110107
0.5029088258743286,-0.3606052100658417,-1.0603625774383545,-0.09159304201602936,0.08395177125930786,0.12725013494491577
0.44137677550315857,-0.2579774260520935,-1.0246503353118896,-0.016058072447776794,0.0425029993057251,0.25687748193740845
0.11898854374885559,-0.2366235852241516,-0.7521205544471741,0.07659813016653061,0.007300704717636108,0.306151807308197
-0.26667410135269165,-0.11513515561819077,-0.4194847047328949,0.0924304872751236,0.019445955753326416,0.22167861461639404
-0.3638651371002197,-0.0877837985754013,-0.21352815628051758,0.07102935016155243,0.07253742218017578,0.03392273187637329
-0.28719937801361084,-0.1271011233329773,-0.10452524572610855,0.048671409487724304,0.08593112230300903,-0.05998194217681885
-0.2026960849761963,-0.16694539785385132,-0.14584295451641083,0.014214836061000824,0.09767839312553406,-0.06586581468582153
-0.07926885783672333,-0.12496735900640488,-0.14597950875759125,0.05143796652555466,0.0652616024017334,-0.044347941875457764
0.03265279158949852,-0.014320171438157558,-0.020560922101140022,0.0932273268699646,0.037957608699798584,-0.023464441299438477
0.1511659175157547,0.11072611808776855,0.1156480684876442,0.08986185491085052,0.038406431674957275,-0.0056681036949157715
0.12302838265895844,0.10967892408370972,0.2069852352142334,0.07007527351379395,0.0525265634059906,0.006077766418457031
0.0934019386768341,0.07154184579849243,0.2928277850151062,0.07377666234970093,0.054318130016326904,0.01285088062286377
0.06631796807050705,0.1962319314479828,0.3895435929298401,0.08111381530761719,0.04010200500488281,0.053881943225860596
0.023935751989483833,0.2901833951473236,0.5240543484687805,0.1230689063668251,0.036725759506225586,0.03249460458755493
-0.03170017898082733,0.36087146401405334,0.6689425706863403,0.1178322285413742,0.033256858587265015,0.028481483459472656
-0.04728413373231888,0.33859968185424805,0.8222817182540894,0.12824702262878418,0.044544219970703125,-0.05091536045074463
0.11692724376916885,0.25137314200401306,0.8704476952552795,0.08689145743846893,0.08159387111663818,-0.15351653099060059
0.2840174436569214,0.36917340755462646,0.8491644263267517,0.04937340319156647,0.09770643711090088,-0.11169308423995972
0.3799314498901367,0.4375976026058197,0.7993106842041016,0.06142665445804596,0.11238795518875122,-0.05117058753967285
0.3122407793998718,0.4595242142677307,0.8795961737632751,0.103032186627388,0.11209797859191895,0.013206541538238525
0.17705446481704712,0.4360143542289734,1.0589877367019653,0.1347428262233734,0.10629391670227051,0.02861320972442627
0.1511957198381424,0.47649693489074707,1.2590147256851196,0.12437134981155396,0.09261438250541687,-0.051837027072906494
0.39435434341430664,0.3907392919063568,1.3450599908828735,0.04955275356769562,0.06697949767112732,-0.15432435274124146
0.5940344929695129,0.4770018458366394,1.3688608407974243,0.01015375554561615,0.004595309495925903,-0.0317842960357666
0.27402687072753906,0.6824524998664856,1.6445280313491821,0.09900416433811188,0.027369529008865356,0.10312527418136597
-0.5098926424980164,0.6377811431884766,2.0770556926727295,0.1942359358072281,0.0694243311882019,0.01074451208114624
-0.8783931732177734,0.3568553030490875,2.4345033168792725,0.21732591092586517,0.14695829153060913,-0.3034191131591797
-0.42858484387397766,0.30143439769744873,2.4654319286346436,0.11547549068927765,0.1847858428955078,-0.512164294719696
0.24096181988716125,0.40587159991264343,2.264592409133911,0.09415222704410553,0.21996092796325684,-0.4805740714073181
0.5601010322570801,0.5963703393936157,2.0829923152923584,0.129899263381958,0.1847485899925232,-0.286532998085022
0.5406244993209839,0.6604345440864563,2.085563898086548,0.22817717492580414,0.16048401594161987,-0.18136096000671387
0.451910138130188,0.7578648924827576,2.1492390632629395,0.26705172657966614,0.15299034118652344,-0.1205289363861084
0.3956872224807739,0.8653677105903625,2.2618489265441895,0.3317861557006836,0.16790419816970825,-0.13520920276641846
0.45859453082084656,0.9921421408653259,2.364933967590332,0.3433050513267517,0.19929268956184387,-0.1758716106414795
0.5842586755752563,1.0094976425170898,2.4590322971343994,0.3042856454849243,0.22025853395462036,-0.21261149644851685
0.7665827870368958,1.045697808265686,2.4482321739196777,0.24911397695541382,0.25477302074432373,-0.19360274076461792
0.8358737826347351,1.1329689025878906,2.437309980392456,0.22423510253429413,0.2669541835784912,-0.11976397037506104
0.746636152267456,1.1853077411651611,2.4661402702331543,0.2345239818096161,0.2807132303714752,-0.059781432151794434
0.5775678753852844,1.1491589546203613,2.594745397567749,0.26730644702911377,0.286336749792099,-0.07849675416946411
0.5875904560089111,1.1250193119049072,2.7092316150665283,0.2557036578655243,0.3075725734233856,-0.17221033573150635
0.6677329540252686,1.1083816289901733,2.750983715057373,0.2043839395046234,0.33022263646125793,-0.1981326937675476
0.5814432501792908,1.0846654176712036,2.667339563369751,0.13371744751930237,0.3351239562034607,-0.1670934557914734
0.5410560965538025,1.010526418685913,2.5504395961761475,0.1214175820350647,0.31342753767967224,-0.21061766147613525
0.6088759303092957,0.993675172328949,2.4725136756896973,0.12746942043304443,0.28556424379348755,-0.2407129406929016
0.717749297618866,0.938329815864563,2.4307637214660645,0.166221022605896,0.2607806324958801,-0.23134827613830566
0.6639095544815063,0.8896584510803223,2.4081575870513916,0.17711275815963745,0.2382519543170929,-0.16576683521270752
0.6354764103889465,0.8307775855064392,2.3634862899780273,0.15442156791687012,0.22729715704917908,-0.12793338298797607
0.6122531294822693,0.9265490174293518,2.2491321563720703,0.12432494759559631,0.22038641571998596,-0.05996823310852051
0.5945630073547363,1.0213732719421387,2.190131664276123,0.14924997091293335,0.1803813874721527,-0.05828779935836792
0.6568475961685181,1.0178375244140625,2.1564037799835205,0.1497558355331421,0.17190015316009521,-0.0952538251876831
0.5929107666015625,0.9186370968818665,2.2148096561431885,0.18593662977218628,0.1494930386543274,-0.06175696849822998
0.4688951075077057,0.8627646565437317,2.1998023986816406,0.13299819827079773,0.1544647216796875,-0.05046343803405762
0.5042951107025146,0.8976022601127625,2.0498108863830566,0.07525789737701416,0.16755756735801697,-0.07782161235809326
0.523145318031311,0.866717517375946,1.8880735635757446,0.06364324688911438,0.1520247459411621,-0.06309562921524048
0.5549917817115784,0.746691107749939,1.797348976135254,0.08203363418579102,0.12021458148956299,-0.09774631261825562
0.6842114329338074,0.7324950098991394,1.7143856287002563,0.03774029016494751,0.07896184921264648,-0.057422637939453125
0.6821610331535339,0.9157027006149292,1.6176239252090454,-0.023297369480133057,0.01229029893875122,0.04318511486053467
0.4459032416343689,1.063045859336853,1.567853569984436,-0.008915841579437256,-0.02217206358909607,0.008196055889129639
0.2842872738838196,0.8712654113769531,1.6620070934295654,0.04742676019668579,-0.01955452561378479,-0.22207802534103394
0.5286725163459778,0.7735884785652161,1.6227010488510132,-0.01588493585586548,0.029096603393554688,-0.3894330859184265
1.103445291519165,0.8261265754699707,1.437116265296936,-0.06404370069503784,0.06757679581642151,-0.3522977828979492
1.4777520895004272,0.848868727684021,1.2595304250717163,-0.05617031455039978,0.0683518648147583,-0.1268848180770874
1.4864380359649658,0.7699565291404724,1.1811851263046265,-0.03865751624107361,0.06907746195793152,0.12108045816421509
1.1281999349594116,0.8170313239097595,1.2059773206710815,-0.02272626757621765,0.004043072462081909,0.30359286069869995
0.39124777913093567,0.8512833714485168,1.5393656492233276,0.04907965660095215,-0.048072755336761475,0.40909361839294434
-0.36158663034439087,0.9684174060821533,1.8511757850646973,0.024540364742279053,-0.0010261833667755127,0.27163249254226685
-0.4024677872657776,0.9927116632461548,1.9113044738769531,-0.07644742727279663,0.07396599650382996,-0.05054044723510742
0.0816509947180748,0.8461958765983582,1.679479956626892,-0.189078688621521,0.13129574060440063,-0.16636085510253906
0.5196279287338257,0.7517273426055908,1.3458967208862305,-0.25201454758644104,0.10801064968109131,-0.07058006525039673
0.5914332270622253,0.7370424866676331,1.120451807975769,-0.2337854504585266,0.054858624935150146,0.10792255401611328
0.4364992678165436,0.6886053085327148,1.0693532228469849,-0.1614879071712494,-0.0046180784702301025,0.16906756162643433
0.37737059593200684,0.6884965300559998,1.1111257076263428,-0.13479836285114288,-0.02686658501625061,0.13380831480026245
0.3180866241455078,0.6966969966888428,1.102458119392395,-0.15805231034755707,-0.015134423971176147,0.10815775394439697
0.32303816080093384,0.6356249451637268,1.0014876127243042,-0.17360246181488037,0.01043972373008728,0.0677456259727478
0.3380871117115021,0.6089922189712524,0.9368273019790649,-0.1512746810913086,0.005543142557144165,0.05094742774963379
0.3233359456062317,0.5051360726356506,0.9106008410453796,-0.12297001481056213,0.008893519639968872,-0.0031774044036865234
0.30681613087654114,0.43770334124565125,0.8473260402679443,-0.14958807826042175,0.012368589639663696,0.013394534587860107
0.1881760209798813,0.44158411026000977,0.7418186068534851,-0.16299287974834442,0.005922079086303711,0.05696117877960205
0.07542271912097931,0.43182823061943054,0.6130732893943787,-0.15063156187534332,0.007481604814529419,0.0594785213470459
0.04596066102385521,0.4131268560886383,0.5415430068969727,-0.13134779036045074,-0.028663158416748047,0.01976609230041504
0.17458662390708923,0.3499269187450409,0.4249228239059448,-0.1388072520494461,-0.02119457721710205,-0.017370283603668213
0.19311462342739105,0.40573129057884216,0.27329716086387634,-0.13899704813957214,-0.04105478525161743,0.06888622045516968
0.08393233269453049,0.4851493835449219,0.19213102757930756,-0.07682174444198608,-0.07744988799095154,0.07192826271057129
0.012071982957422733,0.5152392387390137,0.2362770140171051,-0.00866764783859253,-0.10092100501060486,0.037507712841033936
-5.210423842072487e-05,0.6946045756340027,0.25390830636024475,-0.02198021113872528,-0.10196447372436523,-0.011956930160522461
0.0487477071583271,0.7357220649719238,0.2518317401409149,-0.018021777272224426,-0.07848730683326721,-0.10868972539901733
0.17223702371120453,0.6750590801239014,0.18416965007781982,-0.03997853398323059,-0.09100174903869629,-0.1306220293045044
0.13395075500011444,0.673786997795105,0.25547200441360474,-0.03386424481868744,-0.14603453874588013,0.01897573471069336
-0.38992083072662354,0.8133856654167175,0.4334551990032196,0.03786054253578186,-0.09770774841308594,0.1305863857269287
-1.0285340547561646,0.8109728693962097,0.7223871350288391,0.10438701510429382,-0.06781002879142761,-0.09618878364562988
-0.7940871119499207,0.650224506855011,0.8012088537216187,-0.004821479320526123,0.01080140471458435,-0.45718610286712646
0.032108522951602936,0.5777972936630249,0.5167575478553772,-0.1388281136751175,0.06570461392402649,-0.4667453169822693
0.4163144826889038,0.5217925906181335,0.2356467843055725,-0.11023113131523132,0.06318923830986023,-0.18053829669952393
0.22709311544895172,0.48012760281562805,0.2264735996723175,-0.006286852061748505,0.030205845832824707,0.04852181673049927
-0.11317592114210129,0.5245065093040466,0.3570588529109955,0.050959013402462006,0.016954869031906128,0.0966295599937439
-0.19800592958927155,0.7181995511054993,0.4261942207813263,0.030796103179454803,0.03857889771461487,0.025366544723510742
-0.16605207324028015,0.8252978324890137,0.428326815366745,0.02627018839120865,0.04935231804847717,-0.01751089096069336
-0.11290349066257477,0.7676366567611694,0.46946433186531067,-0.004163511097431183,0.031438350677490234,-0.03943741321563721
0.21592235565185547,0.5750789642333984,0.3829766511917114,-0.06793391704559326,0.0506649911403656,-0.08119040727615356
0.5334183573722839,0.4897444248199463,0.14347708225250244,-0.0815611332654953,0.08646500110626221,0.05258810520172119
0.4544757008552551,0.430250346660614,0.0721018984913826,-0.04103250801563263,0.050414085388183594,0.2098294496536255
0.2626746892929077,0.33998560905456543,0.1397385150194168,0.0014737844467163086,0.0314120352268219,0.30609023571014404
0.08053450286388397,0.1652703583240509,0.33654946088790894,0.027952417731285095,-0.013690084218978882,0.27956193685531616
0.0181635282933712,0.040439851582050323,0.43291154503822327,-0.04737003147602081,-0.0014928579330444336,0.2740493416786194
-0.12397374212741852,0.10436273366212845,0.3625907301902771,-0.11717237532138824,-0.005200833082199097,0.27545303106307983
-0.26842114329338074,0.07987428456544876,0.28699973225593567,-0.10032021999359131,-0.0423203706741333,0.17728769779205322
-0.3095090389251709,-0.02828304097056389,0.3209241032600403,-0.07663409411907196,-0.08183398842811584,0.055449724197387695
-0.25135454535484314,-0.19333386421203613,0.24320723116397858,-0.11935234069824219,-0.07343101501464844,-0.054772257804870605
-0.13843870162963867,-0.3026885390281677,0.10963049530982971,-0.15393802523612976,-0.07756102085113525,-0.11754298210144043
-0.08632312715053558,-0.36142754554748535,-0.08725342899560928,-0.1801648736000061,-0.08191129565238953,-0.16966313123703003
0.0938602015376091,-0.4064805507659912,-0.36726114153862,-0.19552849233150482,-0.07311886548995972,-0.2459421157836914
0.36594533920288086,-0.43228819966316223,-0.617704451084137,-0.1296325922012329,-0.06532099843025208,-0.25502997636795044
0.5405776500701904,-0.4598678648471832,-0.6986272931098938,-0.04754430055618286,-0.08575689792633057,-0.18335336446762085
0.5397776961326599,-0.5388534665107727,-0.7191827297210693,-0.012663215398788452,-0.07221132516860962,-0.13395309448242188
0.5131880640983582,-0.6064554452896118,-0.7394769787788391,0.011751018464565277,-0.058550506830215454,-0.11955273151397705
0.5916302800178528,-0.7071186304092407,-0.7642905116081238,0.026469573378562927,-0.032433390617370605,-0.12930524349212646
0.6537260413169861,-0.8249494433403015,-0.7797127962112427,0.005810797214508057,-0.061747074127197266,0.018405795097351074
0.44354966282844543,-0.5522136688232422,-0.7161211371421814,-0.035135507583618164,-0.1126047670841217,0.23580098152160645
-0.1643417328596115,-0.03965245559811592,-0.5564872026443481,-0.002401992678642273,-0.08294105529785156,0.19255179166793823
-0.5310918688774109,-0.28601309657096863,-0.4042486250400543,0.0025107339024543762,-0.024208366870880127,-0.1586284041404724
-0.33010950684547424,-0.5691255927085876,-0.4380016326904297,-0.12366952002048492,0.051345229148864746,-0.3231229782104492
0.21305400133132935,-0.5713369250297546,-0.7814330458641052,-0.19265969097614288,0.12821784615516663,-0.2985931634902954
0.6089767813682556,-0.44894033670425415,-0.9713715314865112,-0.13061487674713135,0.09263643622398376,-0.08748644590377808
0.6161191463470459,-0.48019495606422424,-0.9506723284721375,-0.06782770156860352,0.043610453605651855,0.14571142196655273
0.2401728332042694,-0.4136572778224945,-0.7526614665985107,-0.03797921538352966,-0.0009976625442504883,0.30692511796951294
-0.3656182289123535,-0.17066872119903564,-0.5316125154495239,-0.043531693518161774,0.004976421594619751,0.2997927665710449
-0.6507025361061096,-0.20881804823875427,-0.4080266058444977,-0.025720834732055664,0.07391950488090515,0.02436840534210205
-0.445182740688324,-0.28521063923835754,-0.3823181092739105,-0.04679290950298309,0.09644195437431335,-0.1827746033668518
0.054411012679338455,-0.40059980750083923,-0.5107987523078918,-0.0651249960064888,0.13529670238494873,-0.2078908085823059
0.3140885829925537,-0.42214450240135193,-0.6062059998512268,-0.056628480553627014,0.12031275033950806,0.013889670372009277
0.2678457498550415,-0.39531993865966797,-0.6304157972335815,-0.0047388747334480286,0.10141924023628235,0.19562673568725586
0.058740418404340744,-0.2831628620624542,-0.5724291205406189,0.006502822041511536,0.06856656074523926,0.29116714000701904
-0.06257767975330353,-0.21941202878952026,-0.5459312796592712,-0.013486720621585846,0.04987269639968872,0.24035441875457764
0.038827698677778244,-0.11432220786809921,-0.5196895003318787,-0.015181869268417358,0.03806772828102112,0.1654244065284729
0.11429844051599503,-0.024776458740234375,-0.4735200107097626,-0.00666741281747818,0.02211827039718628,0.13334918022155762
0.07586792856454849,-0.00657588941976428,-0.419682115316391,-0.006319150328636169,0.011209487915039062,0.11135464906692505
0.012244975194334984,-0.040513016283512115,-0.3650224804878235,-0.004272811114788055,-0.01419934630393982,0.08299344778060913
-0.05380665510892868,0.0759350061416626,-0.25134485960006714,0.017091073095798492,-0.03342124819755554,0.04528564214706421
-0.08968685567378998,0.05405599996447563,-0.11310135573148727,0.024393126368522644,-0.035193800926208496,-0.039964914321899414
-0.045026879757642746,-0.038438815623521805,-0.020903198048472404,-0.002026468515396118,-0.03182399272918701,-0.12165087461471558
0.089902363717556,-0.04274474084377289,-0.036651983857154846,-0.03699798136949539,-0.021927475929260254,-0.11167711019515991
0.1515256017446518,0.07758259028196335,-0.03815063089132309,-0.0014014989137649536,-0.03973144292831421,-0.055933356285095215
0.06303352117538452,0.1116507351398468,0.10886116325855255,0.07078680396080017,-0.05636245012283325,-0.03019005060195923
-0.06596607714891434,0.13034410774707794,0.2239174097776413,0.0585051029920578,-0.0490078330039978,-0.051767587661743164
0.06192445755004883,0.1868438422679901,0.24411025643348694,0.05411364138126373,-0.056487053632736206,-0.1291886568069458
0.23435868322849274,0.1182534247636795,0.36048951745033264,0.06141826510429382,-0.10260024666786194,-0.0665137767791748
-0.06837817281484604,0.4252253472805023,0.5597100853919983,0.047307901084423065,-0.08395254611968994,0.04271501302719116
-0.6476017236709595,0.4671448767185211,0.7833542227745056,0.09098659455776215,-0.05168670415878296,-0.11637532711029053
-0.9249163866043091,0.28217488527297974,0.8412062525749207,0.058558396995067596,-0.008963584899902344,-0.39353126287460327
-0.4812683165073395,0.28998804092407227,0.7673799991607666,0.05053170770406723,-0.0044175684452056885,-0.5770657062530518
0.294253408908844,0.3804095387458801,0.697506844997406,0.09268742799758911,0.042742908000946045,-0.5170281529426575
0.7475911974906921,0.3056943714618683,0.621393084526062,0.13618560135364532,0.10101038217544556,-0.2601414918899536
0.8409940600395203,0.3569541871547699,0.5627596974372864,0.16268041729927063,0.13456502556800842,-0.023528337478637695
0.687624990940094,0.3792809247970581,0.6277256608009338,0.22909431159496307,0.1430671215057373,0.12597328424453735
0.29322734475135803,0.37522098422050476,0.774721622467041,0.27119797468185425,0.14852330088615417,0.15651381015777588
0.03845692053437233,0.4572047293186188,0.9390318989753723,0.2812996506690979,0.1869540810585022,0.022230207920074463
0.16265976428985596,0.5143349766731262,1.0916820764541626,0.2770981788635254,0.1964118480682373,-0.09886211156845093
0.3335685431957245,0.5203941464424133,1.1391206979751587,0.21020153164863586,0.20748662948608398,-0.06233870983123779
0.32562455534935,0.5424602031707764,1.119836688041687,0.18702098727226257,0.1922951340675354,0.04464530944824219
0.22569723427295685,0.5294307470321655,1.2184315919876099,0.23224171996116638,0.14024436473846436,0.09855496883392334
0.11771514266729355,0.48056069016456604,1.4233330488204956,0.263613224029541,0.13582360744476318,0.07118737697601318
0.08986979722976685,0.49689313769340515,1.484313726425171,0.17301063239574432,0.15490132570266724,0.047711074352264404
0.1221095472574234,0.4914266765117645,1.4415311813354492,0.1348087340593338,0.14965492486953735,0.025091886520385742
0.20557904243469238,0.4720079004764557,1.3846144676208496,0.1292380839586258,0.14408832788467407,-0.005885720252990723
0.23079228401184082,0.4089506268501282,1.2969328165054321,0.12443232536315918,0.1372579038143158,-0.0021033883094787598
0.17618654668331146,0.41747382283210754,1.2415660619735718,0.11472353339195251,0.11510822176933289,0.05292409658432007
0.18325097858905792,0.3465844690799713,1.2355232238769531,0.13227365911006927,0.06621289253234863,0.01864546537399292
0.19709007441997528,0.4470478594303131,1.19448721408844,0.12300072610378265,0.039266765117645264,0.012365996837615967
0.2622548043727875,0.3643812835216522,1.1976863145828247,0.13244877755641937,0.00830867886543274,-0.04373747110366821
0.4181627929210663,0.16582240164279938,1.1890970468521118,0.11984306573867798,-0.007795065641403198,-0.12226849794387817
0.4442930817604065,0.0060323807410895824,1.2534369230270386,0.13800501823425293,-0.021066904067993164,-0.10752511024475098
0.2529168725013733,-0.05596323311328888,1.4467856884002686,0.1846139281988144,-0.05706983804702759,-0.016651690006256104
0.1013360396027565,0.0537915863096714,1.6499799489974976,0.18141376972198486,-0.040990084409713745,-0.024497926235198975
0.15765662491321564,0.018766717985272408,1.7361873388290405,0.13364768028259277,-0.021241337060928345,-0.10344183444976807
0.3363482654094696,-0.055933158844709396,1.542302131652832,-0.01119115948677063,0.05590701103210449,-0.17486822605133057
0.3269960284233093,0.014128899201750755,1.3112308979034424,-0.13074404001235962,0.037218064069747925,-0.06913554668426514
-0.12867003679275513,0.14013108611106873,1.3329180479049683,-0.09548312425613403,-0.019036084413528442,0.05813789367675781
-0.5598364472389221,0.04604595527052879,1.5451476573944092,0.04737436771392822,-0.028207719326019287,-0.04989182949066162
-0.4016956090927124,0.08329872786998749,1.5066490173339844,0.029014021158218384,0.03947967290878296,-0.33937710523605347
0.4410487711429596,0.29880020022392273,0.9670031070709229,-0.15819522738456726,0.13863849639892578,-0.4800754189491272
1.30643892288208,0.2829958498477936,0.4848819375038147,-0.12227016687393188,0.20501115918159485,-0.45154261589050293
1.4351637363433838,0.3952575922012329,0.38514626026153564,0.014979898929595947,0.1456255316734314,-0.08376127481460571
1.056470513343811,0.5027572512626648,0.5424870252609253,0.10034847259521484,0.07608717679977417,0.2415987253189087
0.23455454409122467,0.6503369808197021,0.9521877765655518,0.17683285474777222,-0.005626261234283447,0.41875964403152466
-0.6492704749107361,0.7931787967681885,1.1319847106933594,0.164762943983078,0.020864486694335938,0.43404340744018555
-0.9301185011863708,0.8625532984733582,1.178779125213623,0.17470216751098633,0.10735750198364258,-0.0650564432144165
-0.5041502118110657,0.6440000534057617,1.2592628002166748,0.22069406509399414,0.07223418354988098,-0.32771438360214233
0.1473955363035202,0.7051495909690857,1.2309606075286865,0.1739560067653656,0.023455113172531128,-0.26100093126296997
0.378239244222641,0.9986659288406372,1.1994143724441528,0.12230819463729858,-0.02375701069831848,-0.0514642596244812
0.2573572099208832,0.9518360495567322,1.147249460220337,0.056603968143463135,-0.023943185806274414,0.0043947696685791016
0.2539895176887512,0.930099368095398,0.9284113645553589,-0.011945515871047974,0.0006084740161895752,-0.03953808546066284
0.45087847113609314,0.9451247453689575,0.8811814785003662,0.08126494288444519,-0.007427811622619629,-0.07827460765838623
0.6947608590126038,0.9177064299583435,1.0100725889205933,0.15069320797920227,-0.004320621490478516,-0.011211216449737549
0.5739973783493042,0.9779129028320312,1.194867491722107,0.11462773382663727,-0.023436635732650757,0.16660261154174805
0.25007346272468567,1.13316011428833,1.3970640897750854,0.061337247490882874,-0.008875608444213867,0.23218512535095215
-0.014045492745935917,1.0632234811782837,1.3861150741577148,-0.005018770694732666,0.041839778423309326,0.12551569938659668
-0.043225910514593124,0.7841706871986389,1.439757227897644,0.007842957973480225,0.014803707599639893,-0.008915424346923828
0.11344997584819794,0.5477002263069153,1.4909230470657349,0.022248804569244385,0.04665973782539368,-0.063393235206604
0.1137934997677803,0.31569725275039673,1.4242448806762695,-0.016693711280822754,0.04195651412010193,-0.018424630165100098
0.02678751014173031,0.5410453081130981,1.2662763595581055,-0.09958364069461823,0.018399924039840698,0.027341008186340332
0.12868987023830414,0.6145631670951843,1.032212257385254,-0.12104485929012299,0.03480282425880432,-0.054358839988708496
0.11542899161577225,0.7506850361824036,0.799241840839386,-0.1267644315958023,0.025510072708129883,-0.03883767127990723
0.09645457565784454,0.7154897451400757,0.634101390838623,-0.0748777985572815,0.01750725507736206,-0.11049771308898926
0.20006723701953888,0.776042640209198,0.5232686996459961,-0.03669402003288269,0.007928848266601562,-0.1529330015182495
0.4014451801776886,0.9539830684661865,0.439200222492218,-0.02830323576927185,-0.01896566152572632,-0.1302071213722229
0.4354254901409149,1.0136585235595703,0.36227840185165405,-0.0318266898393631,-0.06561505794525146,-0.050157785415649414
0.19862449169158936,1.1364293098449707,0.4295755922794342,0.01133960485458374,-0.036474525928497314,0.047157347202301025
-0.45377984642982483,1.152194619178772,0.5820004343986511,0.07891209423542023,0.013906091451644897,-0.005599081516265869
-0.8156141042709351,0.9111177921295166,0.6936377286911011,0.13005635142326355,0.0705883800983429,-0.3112754225730896
-0.35108867287635803,0.7487055659294128,0.7259032130241394,0.03065614402294159,0.08880540728569031,-0.5032994747161865
0.5578491687774658,0.6422438025474548,0.5307349562644958,-0.03168100118637085,0.1056622862815857,-0.43701809644699097
0.8633416295051575,0.6181893944740295,0.45014289021492004,-0.010892808437347412,0.06519085168838501,-0.05771636962890625
0.5275118947029114,0.573464572429657,0.4936559796333313,0.04057419300079346,0.07880228757858276,0.17343038320541382
-0.08377361297607422,0.6328960657119751,0.6324781179428101,0.06427750736474991,0.07580581307411194,0.24064713716506958
-0.39149150252342224,0.6493827700614929,0.6887561678886414,0.0696263536810875,0.10501635074615479,0.05284774303436279
-0.30317363142967224,0.5031945705413818,0.7392059564590454,0.06753744930028915,0.09306356310844421,-0.13078004121780396
0.13689161837100983,0.3235800862312317,0.725509524345398,0.0008267834782600403,0.06717619299888611,-0.18769294023513794
0.4731540083885193,0.40753933787345886,0.5909286737442017,-0.06866437196731567,0.05922725796699524,0.014732420444488525
0.4229836165904999,0.3163309395313263,0.5276087522506714,-0.056873589754104614,0.03061896562576294,0.15029507875442505
0.2176959067583084,0.15158872306346893,0.534795343875885,-0.054867617785930634,0.026676207780838013,0.18160277605056763
0.16354170441627502,0.13990791141986847,0.542808473110199,-0.07484530657529831,0.019788414239883423,0.16791290044784546
0.25594422221183777,0.16173936426639557,0.5099363327026367,-0.08560312539339066,0.020767003297805786,0.15596556663513184
0.20814086496829987,0.09100746363401413,0.5042014122009277,-0.030443720519542694,0.011468321084976196,0.1720600724220276
0.03880441561341286,0.00403711898252368,0.539875328540802,-0.0026736631989479065,-0.007961660623550415,0.15657305717468262
-0.09730446338653564,-0.11708835512399673,0.5333781242370605,-0.046673692762851715,-0.014965265989303589,0.10746181011199951
-0.23162609338760376,-0.1487453430891037,0.3578187823295593,-0.10492856800556183,-0.007479071617126465,0.055990755558013916
-0.2197437286376953,-0.24974951148033142,0.15223214030265808,-0.0886688232421875,-0.015357226133346558,-0.060089945793151855
-0.050889745354652405,-0.2532578408718109,0.00840744934976101,-0.060608699917793274,-0.03598937392234802,-0.13417327404022217
0.1995846927165985,-0.226288840174675,-0.10528199374675751,-0.03789791464805603,-0.042322129011154175,-0.15184921026229858
0.37110522389411926,-0.26627621054649353,-0.17742018401622772,-0.03170686960220337,-0.06016543507575989,-0.1225174069404602
0.4459840655326843,-0.2783873379230499,-0.2908903658390045,-0.05855342745780945,-0.05626600980758667,-0.034222304821014404
0.3651900291442871,-0.2707803249359131,-0.32727012038230896,-0.02073308825492859,-0.07509845495223999,0.014623165130615234
0.2437528371810913,-0.35568398237228394,-0.27047571539878845,0.014636039733886719,-0.0670785903930664,-0.013063430786132812
0.24003134667873383,-0.47549453377723694,-0.19151748716831207,-0.0011588186025619507,-0.061691880226135254,-0.028237342834472656
0.23848426342010498,-0.6091232299804688,-0.19376400113105774,-0.10341261327266693,-0.0938539206981659,0.036990582942962646
0.009122641757130623,-0.3731265366077423,-0.2912060618400574,-0.2124301791191101,-0.08673807978630066,0.16973263025283813
-0.48622995615005493,-0.009983398020267487,-0.25098517537117004,-0.21447700262069702,-0.07102873921394348,0.126045823097229
-1.0196914672851562,-0.20345748960971832,-0.20607712864875793,-0.13246195018291473,-0.005076587200164795,-0.19359833002090454
-0.8773398995399475,-0.45705920457839966,-0.24893403053283691,-0.19972115755081177,0.03398412466049194,-0.4520230293273926
-0.22417782247066498,-0.4267665445804596,-0.5817463397979736,-0.2846341133117676,0.11390340328216553,-0.4730094075202942
0.4057287573814392,-0.41877201199531555,-0.9832445383071899,-0.2749793231487274,0.12999501824378967,-0.2992340922355652
0.6396837830543518,-0.5179172158241272,-1.1671175956726074,-0.20995110273361206,0.12088242173194885,0.0069533586502075195
0.5691434741020203,-0.5637295246124268,-1.2634283304214478,-0.19461742043495178,0.08482450246810913,0.22433781623840332
0.2776637673377991,-0.4772356450557709,-1.210864543914795,-0.15987534821033478,0.06379953026771545,0.35156160593032837
-0.21605487167835236,-0.22256270051002502,-1.1129966974258423,-0.1400548368692398,0.0778418481349945,0.36375921964645386
-0.5216494798660278,-0.2677289545536041,-1.013901948928833,-0.1038939356803894,0.09734806418418884,0.13337498903274536
-0.5281252264976501,-0.4802953004837036,-0.9255402088165283,-0.12022878229618073,0.11529278755187988,-0.008902430534362793
-0.3940706253051758,-0.47222900390625,-0.9684908986091614,-0.1561417281627655,0.12816131114959717,-0.03307312726974487
-0.18060007691383362,-0.44890958070755005,-1.0543711185455322,-0.16802376508712769,0.125108003616333,-0.019639015197753906
-0.028804142028093338,-0.5285742282867432,-1.1203744411468506,-0.1541338413953781,0.1074601411819458,0.03212779760360718
-0.008374474942684174,-0.587787389755249,-1.1230919361114502,-0.11500909924507141,0.0937269926071167,0.11265569925308228
-0.09315786510705948,-0.4893210828304291,-1.091332197189331,-0.11835268139839172,0.06665030121803284,0.15865689516067505
-0.09439264237880707,-0.3862229883670807,-1.0731065273284912,-0.12739764153957367,0.06559878587722778,0.12784945964813232
-0.05216981843113899,-0.36285802721977234,-1.089637041091919,-0.12651312351226807,0.0700952410697937,0.08363533020019531
-0.014799855649471283,-0.36420729756355286,-1.112954020500183,-0.10296516120433807,0.05197945237159729,0.06398403644561768
0.018479878082871437,-0.28175386786460876,-1.1094017028808594,-0.0720621645450592,0.01868259906768799,0.030246078968048096
0.14446589350700378,-0.19621756672859192,-1.0495102405548096,-0.04847279191017151,-0.0021765828132629395,-0.016408264636993408
0.1601584404706955,-0.0789656713604927,-0.9719696044921875,-0.052812471985816956,-0.008586287498474121,0.007132887840270996
0.05333944410085678,-0.04668891429901123,-0.9006196856498718,-0.07303085923194885,-0.004855901002883911,-0.03221535682678223
-0.042035188525915146,-0.18134844303131104,-0.8324711322784424,-0.055431902408599854,-0.00523802638053894,-0.09545671939849854
-0.05045028775930405,-0.14917123317718506,-0.7699365615844727,-0.056043416261672974,-0.004335522651672363,-0.10905367136001587
-0.022375326603651047,-0.12287864834070206,-0.7362208366394043,-0.05892450362443924,0.00027886033058166504,-0.0912047028541565
0.022089499980211258,-0.030680617317557335,-0.7611915469169617,-0.09180387854576111,0.005572319030761719,-0.06782031059265137
0.10071295499801636,-0.002591353375464678,-0.780686616897583,-0.09417931735515594,-0.023235827684402466,-0.05324822664260864
0.01792087033390999,0.17798349261283875,-0.6964156627655029,-0.12665128707885742,-0.041319042444229126,0.04651612043380737
-0.41718700528144836,0.48817822337150574,-0.5765955448150635,-0.09994793683290482,0.00486910343170166,0.052905917167663574
-1.0546212196350098,0.1957792192697525,-0.3527132570743561,-0.0024952590465545654,0.07570499181747437,-0.19326329231262207
-1.123898983001709,-0.0841723307967186,-0.4538702368736267,-0.1058918833732605,0.14965805411338806,-0.4354861378669739
-0.28627583384513855,-0.2883850634098053,-0.8087942600250244,-0.1528167873620987,0.15830418467521667,-0.5482305884361267
0.6095324158668518,-0.43088871240615845,-1.0607974529266357,-0.11723978817462921,0.13004571199417114,-0.2800946831703186
0.791411280632019,-0.2717154920101166,-1.229408621788025,-0.08538845181465149,0.11890918016433716,0.08379900455474854
0.5691642165184021,-0.2263958603143692,-1.1624581813812256,-0.03273652493953705,0.06656235456466675,0.2436298131942749
0.056387461721897125,-0.30407270789146423,-0.8621853590011597,0.053437739610672,0.046945154666900635,0.2690150737762451
-0.4838651418685913,-0.16275973618030548,-0.63591068983078,0.09845881164073944,0.06001001596450806,0.11535525321960449
-0.4654228985309601,-0.10417346656322479,-0.4367397129535675,0.08723357319831848,0.031148016452789307,-0.16837787628173828
-0.11921822279691696,-0.3652433454990387,-0.4469708800315857,-0.038588762283325195,0.02991694211959839,-0.2672790288925171
0.08336257934570312,-0.6774829626083374,-0.6526251435279846,-0.04657156765460968,0.02162611484527588,-0.23520427942276
0.2683781683444977,-0.7665340304374695,-0.5491210222244263,0.0981118381023407,-0.08280986547470093,-0.16718941926956177
0.4903235137462616,-0.6066508293151855,-0.3322789669036865,0.13163012266159058,-0.08356514573097229,-0.062477707862854004
0.5057030916213989,-0.5346870422363281,-0.22569194436073303,0.042473286390304565,-0.03297939896583557,0.07057881355285645
0.31651365756988525,-0.656755805015564,-0.2597544491291046,0.016233906149864197,0.017491817474365234,0.13707923889160156
0.13175168633460999,-0.7030946612358093,-0.2749844789505005,0.012361332774162292,0.02996969223022461,0.1441483497619629
