rotation_x,rotation_y,rotation_z,acceleration_x,acceleration_y,acceleration_z
-0.1502072960138321,-0.09436535835266113,0.09770619124174118,-0.08420863747596741,0.07721631228923798,0.2314050793647766
-0.4066254198551178,0.6285452246665955,-0.3729548156261444,-0.19044551253318787,0.07835313677787781,0.23788326978683472
-0.30277910828590393,0.9883801937103271,-0.6920539140701294,-0.16263055801391602,0.08207505941390991,0.10301792621612549
-0.016996439546346664,0.8233491778373718,-0.7459984421730042,-0.04624011367559433,0.08980442583560944,-0.02521061897277832
0.15176844596862793,0.418235719203949,-0.5691779851913452,0.053820766508579254,0.06543342769145966,-0.06889885663986206
0.180040642619133,-0.050568826496601105,-0.23457889258861542,0.11896438896656036,0.028386801481246948,-0.04193234443664551
0.09857667237520218,-0.29902660846710205,0.08413082361221313,0.09048215299844742,0.00028558075428009033,0.021143019199371338
0.016939518973231316,-0.28331828117370605,0.19936631619930267,0.006721965968608856,-0.004351019859313965,0.06986135244369507
0.05564272031188011,-0.24170055985450745,0.14410191774368286,-0.030075669288635254,0.02755051851272583,0.06612902879714966
0.14990217983722687,-0.19121837615966797,0.06758380681276321,-0.034235358238220215,0.050428807735443115,0.07403820753097534
0.1512022614479065,-0.12754707038402557,0.02491835504770279,-0.038410529494285583,0.040356263518333435,0.1163288950920105
0.03466000407934189,-0.01079680398106575,0.024792734533548355,-0.04436291754245758,0.02242480218410492,0.15978455543518066
-0.08680729568004608,0.1179601326584816,0.03337925672531128,-0.05620903521776199,0.01484382152557373,0.1543712019920349
-0.10987453162670135,0.16949620842933655,0.02124229073524475,-0.061325833201408386,0.012398511171340942,0.10351890325546265
-0.0341271348297596,0.1608174741268158,-0.011647043749690056,-0.05603909492492676,0.01922503113746643,0.04861503839492798
0.05669039487838745,0.10049168765544891,-0.05492720752954483,-0.055132970213890076,0.013249322772026062,0.03476780652999878
0.07411839067935944,0.015187607146799564,-0.0786261186003685,-0.04522173851728439,0.013722211122512817,0.052643775939941406
-0.0010796061251312494,0.008897562511265278,-0.07211919873952866,-0.03530178964138031,0.010168001055717468,0.07846146821975708
-0.10868987441062927,0.08197121322154999,-0.023878131061792374,-0.019994929432868958,-0.002636060118675232,0.07751768827438354
-0.21130570769309998,0.2196197658777237,0.03341997042298317,-0.015877246856689453,-0.004673510789871216,0.04283761978149414
-0.2474679946899414,0.27134832739830017,0.0553160235285759,-0.020176343619823456,0.0027975887060165405,-0.024930477142333984
-0.17526942491531372,0.19596613943576813,0.03128031641244888,-0.015424255281686783,0.02505582571029663,-0.0896446704864502
-0.11835146695375443,0.07730063796043396,0.010674001649022102,-0.013032518327236176,0.03734816610813141,-0.09277904033660889
-0.15599337220191956,0.04749824479222298,0.029167694970965385,-0.01095285639166832,0.022329658269882202,-0.05418801307678223
-0.24653926491737366,0.12887105345726013,0.07896174490451813,-0.007109597325325012,-0.009851261973381042,-0.03074944019317627
-0.3713344633579254,0.31894323229789734,0.17708806693553925,0.02592117339372635,-0.02092917263507843,-0.056601643562316895
-0.4251730144023895,0.3816779553890228,0.37343472242355347,0.08461497724056244,-0.006068289279937744,-0.13585525751113892
-0.3955206274986267,0.21087610721588135,0.5639357566833496,0.07484754920005798,0.0033494681119918823,-0.19935709238052368
-0.29288429021835327,-0.06587643921375275,0.6033753156661987,0.007715050131082535,0.0002817511558532715,-0.20618468523025513
-0.1681293249130249,-0.21090899407863617,0.490608274936676,-0.03601701185107231,0.030366867780685425,-0.15597468614578247
-0.023021657019853592,-0.301619291305542,0.28152620792388916,-0.041307803243398666,0.046756818890571594,-0.09302735328674316
0.15811698138713837,-0.3962431252002716,0.10179562121629715,-0.010882005095481873,0.027548015117645264,-0.020926713943481445
0.20829100906848907,-0.22377245128154755,0.07058152556419373,0.03383480757474899,0.001098349690437317,0.07790559530258179
0.09429866075515747,0.20953840017318726,0.07290365546941757,0.05242772400379181,-0.021559208631515503,0.12358897924423218
0.048330724239349365,0.43317070603370667,0.06358033418655396,0.06482021510601044,-0.01969209313392639,0.05234789848327637
0.11609327048063278,0.27895718812942505,0.07988229393959045,0.0868033617734909,0.018020346760749817,-0.035788893699645996
0.1629006564617157,0.008979621343314648,0.04383758082985878,0.06413234025239944,0.025510519742965698,-0.038691818714141846
0.14504475891590118,-0.1784631609916687,-0.006338487844914198,0.023433972150087357,0.008960425853729248,0.024477124214172363
0.09822823852300644,-0.19981235265731812,-0.02647951990365982,0.002938549965620041,-0.005653306841850281,0.09663993120193481
0.07686784863471985,-0.126766175031662,-0.03834232687950134,-0.0011683255434036255,-0.02215646207332611,0.14445430040359497
0.055604349821805954,-9.64384526014328e-07,-0.003111080266535282,-0.008215703070163727,-0.032303765416145325,0.167336106300354
-0.002365118358284235,0.06350524723529816,0.0183400958776474,-0.011360742151737213,-0.043522417545318604,0.17086464166641235
-0.09283267706632614,0.05328567698597908,0.030521610751748085,-0.007380019873380661,-0.03598327934741974,0.1553947925567627
-0.13947272300720215,0.015041502192616463,0.037302855402231216,-0.014895331114530563,-0.038318932056427,0.1287086009979248
-0.1470317393541336,-0.005114515777677298,0.03353950381278992,-0.0272042378783226,-0.03830324113368988,0.09918314218521118
-0.17300796508789062,-0.0009633238660171628,-0.00693114660680294,-0.026236753910779953,-0.02748548984527588,0.07533299922943115
-0.16806112229824066,-0.04198925942182541,-0.07062485069036484,-0.027974873781204224,-0.023645460605621338,0.042294323444366455
-0.1274259090423584,-0.12590523064136505,-0.13692088425159454,-0.04202853888273239,-0.024321645498275757,0.014847218990325928
-0.07723560929298401,-0.25721475481987,-0.22602829337120056,-0.04474032297730446,-0.02156585454940796,0.016243696212768555
-0.07807228714227676,-0.3023424744606018,-0.29587697982788086,-0.02623923495411873,-0.009477481245994568,0.056284964084625244
-0.1544695794582367,-0.16607926785945892,-0.30874043703079224,-0.0021068528294563293,-0.010694116353988647,0.08933162689208984
-0.2167215347290039,0.0232068058103323,-0.297679603099823,0.0012486428022384644,-0.01830790936946869,0.05865687131881714
-0.14924076199531555,0.07570333033800125,-0.3661155700683594,-0.019352689385414124,-0.015584409236907959,-0.03469884395599365
-0.016297362744808197,-0.024274475872516632,-0.47535404562950134,-0.026591897010803223,0.00416719913482666,-0.10124975442886353
0.0641220360994339,-0.24245008826255798,-0.623607873916626,-0.02191133052110672,0.023427814245224,-0.11627072095870972
0.06705376505851746,-0.44984301924705505,-0.725023090839386,0.0036769509315490723,0.004287242889404297,-0.08693760633468628
-0.0067925178445875645,-0.39968937635421753,-0.7292514443397522,0.020314045250415802,-0.04491907358169556,-0.05196559429168701
-0.1192859634757042,-0.12591570615768433,-0.6434926390647888,0.034513331949710846,-0.06566645205020905,-0.056470274925231934
-0.2060806006193161,0.13871519267559052,-0.515783429145813,0.05594022572040558,-0.04212406277656555,-0.12761688232421875
-0.2132238894701004,0.08853370696306229,-0.4756832718849182,0.036616891622543335,-0.019393712282180786,-0.22433382272720337
-0.12856760621070862,-0.17307649552822113,-0.5351114869117737,-0.012163311243057251,-0.0027375221252441406,-0.28068476915359497
-0.006666918285191059,-0.4402429461479187,-0.6261832118034363,-0.021601006388664246,0.016882047057151794,-0.23988670110702515
0.060164496302604675,-0.5627050399780273,-0.6970901489257812,-0.0002926290035247803,0.02769741415977478,-0.12159627676010132
0.10316156595945358,-0.45988595485687256,-0.6728096008300781,0.0057374462485313416,0.004743456840515137,0.0011026859283447266
0.09985446184873581,-0.20786811411380768,-0.5663783550262451,0.01822718232870102,-0.0029793977737426758,0.09034311771392822
0.0772605761885643,0.05651837959885597,-0.47393763065338135,0.0016243085265159607,-0.0075987279415130615,0.12259846925735474
0.10303764790296555,0.1632065773010254,-0.44949105381965637,-0.027904771268367767,0.005786329507827759,0.10705924034118652
0.0936288833618164,0.1532776951789856,-0.46622636914253235,-0.0441608801484108,0.04727877676486969,0.09277737140655518
-0.026305075734853745,0.1280071884393692,-0.5161604285240173,-0.054418645799160004,0.060859814286231995,0.09755271673202515
-0.12878386676311493,0.20351432263851166,-0.5260156393051147,-0.047854699194431305,0.04820364713668823,0.06691926717758179
-0.12190091609954834,0.3200472891330719,-0.3997025489807129,0.004640959203243256,0.04435727000236511,-0.018683195114135742
-0.01154645998030901,0.27672722935676575,-0.19173015654087067,0.04298339784145355,0.049438536167144775,-0.11075109243392944
0.14518670737743378,0.010543053969740868,-0.045744601637125015,0.019357740879058838,0.0668739527463913,-0.1470562219619751
0.25299328565597534,-0.3267163038253784,-0.02303924784064293,-0.03290940821170807,0.08080731332302094,-0.08813220262527466
0.21172064542770386,-0.5102356672286987,-0.10525032132863998,-0.05083028972148895,0.08769385516643524,0.03669077157974243
0.15006768703460693,-0.41955727338790894,-0.1505049616098404,-0.03118497133255005,0.0728616863489151,0.1393868327140808
0.14264081418514252,-0.13357755541801453,-0.11317262798547745,-0.015904396772384644,0.03707253932952881,0.18188154697418213
0.13799598813056946,0.1289660930633545,-0.03249257802963257,-0.009474411606788635,0.014010518789291382,0.17975980043411255
0.09054165333509445,0.1837632954120636,0.04934396594762802,-0.0030150115489959717,0.02233920991420746,0.14678621292114258
0.03420134261250496,0.06105824187397957,0.1009238064289093,-0.008864320814609528,0.029050275683403015,0.10015475749969482
0.02009980008006096,-0.04831843078136444,0.13600753247737885,-0.017048560082912445,0.02068418264389038,0.06634736061096191
0.04706554487347603,-0.0371473990380764,0.15744590759277344,-0.02657143771648407,0.00803576409816742,0.05051499605178833
0.09411917626857758,0.0290943942964077,0.1796346753835678,-0.0248536616563797,-0.004707366228103638,0.032060861587524414
0.1370662897825241,0.06185831129550934,0.20276060700416565,-0.024115078151226044,-0.013154104351997375,0.015970945358276367
0.1283802092075348,0.05984139069914818,0.18597567081451416,-0.04004114866256714,-0.006243914365768433,0.009573519229888916
0.04940116032958031,0.022660307586193085,0.1337466537952423,-0.04609820246696472,0.00345456600189209,0.0069048404693603516
-0.017630232498049736,0.012023947201669216,0.08010135591030121,-0.04455675929784775,0.0007327049970626831,-0.013853251934051514
0.012653181329369545,-0.007039687130600214,0.058359064161777496,-0.03255031257867813,-0.003451511263847351,-0.05016869306564331
0.0599917396903038,-0.04695611447095871,0.06051553413271904,-0.013667367398738861,0.0034409761428833008,-0.057717859745025635
0.026457957923412323,-0.04733945429325104,0.057908352464437485,-0.006523609161376953,0.010645508766174316,-0.020601749420166016
-0.058271341025829315,0.005541555117815733,0.05868631601333618,-0.004421919584274292,0.009471505880355835,0.0036084651947021484
-0.10620564222335815,0.07954591512680054,0.07277245819568634,-8.759647607803345e-05,0.005306139588356018,-0.008440196514129639
-0.07574567943811417,0.12380758672952652,0.0778203010559082,0.002985239028930664,0.01459406316280365,-0.0477868914604187
-0.019353773444890976,0.11592550575733185,0.092924565076828,-0.004772253334522247,0.006595641374588013,-0.07314842939376831
-0.06028088182210922,0.24111279845237732,0.12309341132640839,0.003521762788295746,0.007764473557472229,-0.07573556900024414
-0.07307638227939606,0.23937535285949707,0.19390513002872467,0.0413561686873436,0.022973835468292236,-0.11557751893997192
-0.056608278304338455,0.12262096256017685,0.23606987297534943,0.03645354509353638,0.028303563594818115,-0.13493096828460693
-0.08763560652732849,0.08063077926635742,0.18751996755599976,0.00645049661397934,0.001088455319404602,-0.11197984218597412
-0.08233609795570374,0.07213704288005829,0.1515251100063324,0.02476770430803299,0.014134913682937622,-0.10102331638336182
0.089631587266922,-0.05614127218723297,0.11621422320604324,0.03774378448724747,0.02157774567604065,-0.09636294841766357
0.32597842812538147,-0.26538318395614624,0.08737596869468689,0.03711014240980148,0.037040770053863525,-0.02827078104019165
0.4211990237236023,-0.30384451150894165,0.044225845485925674,0.012363679707050323,0.037570834159851074,0.10448247194290161
0.29867053031921387,-0.05898122116923332,0.0232357457280159,0.005301646888256073,0.02564235031604767,0.207011878490448
0.04751848056912422,0.3538694381713867,0.016359802335500717,0.0030290335416793823,0.03634539246559143,0.21642273664474487
-0.12652768194675446,0.5821564197540283,0.03636026754975319,0.01009167730808258,0.036741092801094055,0.1084091067314148
-0.14647887647151947,0.4719502329826355,0.1080339327454567,0.020076170563697815,0.045002058148384094,-0.034377098083496094
-0.07093795388936996,0.1602022647857666,0.1481061726808548,-0.006767980754375458,0.045410871505737305,-0.09865891933441162
0.013141985051333904,-0.18397998809814453,0.06769979000091553,-0.04939540475606918,0.04489763081073761,-0.07193189859390259
0.03518333286046982,-0.32411885261535645,-0.09587617963552475,-0.07015450298786163,0.049970343708992004,0.022729098796844482
0.0162278451025486,-0.2646183669567108,-0.20727400481700897,-0.06808412820100784,0.0262129008769989,0.11445426940917969
-0.031587544828653336,-0.11160659044981003,-0.20941179990768433,-0.052289798855781555,-0.014138326048851013,0.16664808988571167
-0.061180900782346725,0.08655338734388351,-0.1762290894985199,-0.04040319472551346,-0.04010188579559326,0.1624535322189331
-0.06275422871112823,0.17567873001098633,-0.1445293426513672,-0.03344438970088959,-0.03403154015541077,0.12862926721572876
-0.09541523456573486,0.11229114979505539,-0.13052311539649963,-0.027035385370254517,-0.021056145429611206,0.09582006931304932
-0.15952570736408234,-0.019026849418878555,-0.1250593513250351,-0.02986578643321991,-0.023590534925460815,0.08408176898956299
-0.23400776088237762,-0.08024045825004578,-0.12648779153823853,-0.03544240444898605,-0.0301581472158432,0.07450973987579346
-0.23537518084049225,-0.17472964525222778,-0.16558557748794556,-0.03240258991718292,-0.03199857473373413,0.04133206605911255
-0.18457679450511932,-0.2578093409538269,-0.2163824886083603,-0.02962920069694519,-0.026138663291931152,0.015571534633636475
-0.12067942321300507,-0.2799489200115204,-0.2848609983921051,-0.04816830903291702,-0.051404908299446106,0.00486910343170166
-0.05955495685338974,-0.24178571999073029,-0.3567872643470764,-0.04709560424089432,-0.06490534543991089,-0.0003750920295715332
0.01019301824271679,-0.14784879982471466,-0.4133402109146118,-0.03157731145620346,-0.06210505962371826,-0.015931904315948486
0.10877536982297897,-0.09655755758285522,-0.4541112184524536,-0.014393612742424011,-0.05886106193065643,-0.04763472080230713
0.15819138288497925,-0.17430098354816437,-0.43495243787765503,0.017073392868041992,-0.05456434190273285,-0.06407523155212402
0.14914897084236145,-0.31839093565940857,-0.38835689425468445,0.04084642231464386,-0.053928062319755554,-0.058051466941833496
0.1411217451095581,-0.4177950620651245,-0.334727942943573,0.040767595171928406,-0.057313114404678345,-0.05026745796203613
0.13462063670158386,-0.38406163454055786,-0.30075356364250183,0.03136526048183441,-0.0615202933549881,-0.043544650077819824
0.12866021692752838,-0.25389528274536133,-0.2837255597114563,0.028204888105392456,-0.056694790720939636,-0.042931556701660156
0.08808891475200653,-0.1803249567747116,-0.2625569701194763,0.0405983105301857,-0.04379042983055115,-0.05606281757354736
0.019918188452720642,-0.16853123903274536,-0.24673166871070862,0.04713091254234314,-0.043228983879089355,-0.07118022441864014
-0.06331828981637955,-0.11901307106018066,-0.18943706154823303,0.0832705870270729,-0.033447638154029846,-0.10033011436462402
-0.13852134346961975,-0.01637931913137436,-0.09755728393793106,0.12275195121765137,-0.01686081290245056,-0.1435939073562622
-0.18672101199626923,0.07857395708560944,-0.004835539031773806,0.10474028438329697,-0.020288586616516113,-0.1805819272994995
-0.14679613709449768,-0.007390058133751154,0.08133386075496674,0.08557846397161484,0.006211951375007629,-0.21011322736740112
-0.03892676159739494,-0.2650164067745209,0.030459966510534286,0.043842948973178864,0.06254306435585022,-0.18322324752807617
0.07959721982479095,-0.43019556999206543,-0.13136103749275208,-0.026531338691711426,0.09499600529670715,-0.07335644960403442
0.11253014951944351,-0.3718193769454956,-0.27423810958862305,-0.060192227363586426,0.10108333826065063,0.06313014030456543
0.1182379201054573,-0.2065381407737732,-0.33431941270828247,-0.06255930662155151,0.08371838927268982,0.15554362535476685
0.11947140842676163,0.010252878069877625,-0.3258211612701416,-0.049712806940078735,0.07712198793888092,0.19158083200454712
0.05254263058304787,0.30143165588378906,-0.2936922609806061,-0.07150976359844208,0.0649331659078598,0.20414912700653076
-0.06688788533210754,0.35739725828170776,-0.24826020002365112,-0.049006715416908264,0.07270035147666931,0.1668216586112976
-0.17764566838741302,0.23566022515296936,-0.16312579810619354,-0.017157331109046936,0.08796647191047668,0.10225749015808105
-0.23233163356781006,0.10550767183303833,-0.07360344380140305,-0.027570419013500214,0.07835517823696136,0.05401122570037842
-0.21485865116119385,0.029296180233359337,-0.022380612790584564,-0.04815381020307541,0.0711582750082016,0.026186585426330566
-0.14747044444084167,-0.018470507115125656,-0.037160806357860565,-0.06453701108694077,0.08503276109695435,0.02303755283355713
-0.0853896290063858,-0.03315754234790802,-0.08069445937871933,-0.08297029882669449,0.08804674446582794,0.05075150728225708
-0.08791610598564148,-0.014803054742515087,-0.13246482610702515,-0.09557472914457321,0.07793143391609192,0.09295350313186646
-0.13472767174243927,-0.007770015858113766,-0.19757124781608582,-0.09516365826129913,0.07000812888145447,0.1216924786567688
-0.20267075300216675,-0.007394813932478428,-0.25282910466194153,-0.08739319443702698,0.06192740797996521,0.12995225191116333
-0.25526803731918335,-0.0012898003915324807,-0.27885591983795166,-0.07496581226587296,0.05273272097110748,0.11987924575805664
-0.29988786578178406,-0.0211490411311388,-0.2859000265598297,-0.060461267828941345,0.03219348192214966,0.09705919027328491
-0.3292067050933838,0.025483490899205208,-0.2560800313949585,-0.0456685945391655,0.02100539207458496,0.0663345456123352
-0.31886518001556396,0.10703374445438385,-0.2469298094511032,-0.04331839084625244,0.004029333591461182,0.009473323822021484
-0.21251024305820465,0.13228245079517365,-0.24910636246204376,-0.028817184269428253,0.005679219961166382,-0.06570780277252197
-0.05126607045531273,0.09976345300674438,-0.2351115494966507,-0.014910243451595306,-0.001144513487815857,-0.11720472574234009
0.056433260440826416,0.10089480876922607,-0.18493260443210602,-0.01808931678533554,-0.023499608039855957,-0.1210361123085022
0.05916697531938553,0.0882340744137764,-0.12362588196992874,-0.004087135195732117,-0.038433223962783813,-0.11237329244613647
0.03516042232513428,-0.0018067469354718924,-0.042109906673431396,0.04594355821609497,-0.01325342059135437,-0.12061572074890137
0.0764944925904274,-0.10490536689758301,0.04983510449528694,0.05715232342481613,0.0005231946706771851,-0.12283337116241455
0.12483607977628708,-0.1235608458518982,0.09931575506925583,0.030173838138580322,-0.00035449862480163574,-0.09948736429214478
0.15642791986465454,-0.10597877949476242,0.09276311099529266,0.018441244959831238,-0.012183547019958496,-0.07266020774841309
0.12816929817199707,0.10371305048465729,0.12966327369213104,0.04695563018321991,-0.021240249276161194,-0.051100730895996094
0.04922032356262207,0.32619524002075195,0.3197178244590759,0.11300070583820343,-0.021541476249694824,-0.07395517826080322
-0.0034509259276092052,0.3896034359931946,0.6277340650558472,0.15655717253684998,-0.02496558427810669,-0.15301209688186646
0.06470327079296112,0.30022236704826355,0.8603013157844543,0.119284488260746,-0.028463542461395264,-0.23039448261260986
0.16572217643260956,0.15929636359214783,0.908357560634613,0.07899446040391922,0.024190902709960938,-0.23692506551742554
0.235340878367424,-0.021611018106341362,0.8273438215255737,0.05942791700363159,0.07047611474990845,-0.17691195011138916
0.2709349989891052,-0.16901178658008575,0.7301671504974365,0.05697331577539444,0.08108070492744446,-0.08524119853973389
0.3335355222225189,-0.24682119488716125,0.6572735905647278,0.06266465783119202,0.07034334540367126,0.011167645454406738
0.42305126786231995,-0.21918021142482758,0.6088825464248657,0.07457143813371658,0.05801329016685486,0.10054773092269897
0.441398948431015,-0.0790678858757019,0.5933341979980469,0.08629146218299866,0.05274595320224762,0.18560320138931274
0.31378716230392456,0.1269197165966034,0.5688542723655701,0.0769372507929802,0.05152866244316101,0.2436274290084839
0.10049108415842056,0.28614747524261475,0.5540962219238281,0.06807313859462738,0.04994422197341919,0.24730896949768066
-0.06661155819892883,0.29692181944847107,0.5441900491714478,0.07027778774499893,0.052137941122055054,0.19104140996932983
-0.1268835812807083,0.2391900271177292,0.5062961578369141,0.05580250173807144,0.04288913309574127,0.1243252158164978
-0.12085903435945511,0.25667285919189453,0.4057985842227936,0.026932530105113983,0.03585699200630188,0.0833200216293335
-0.08969350159168243,0.3105878233909607,0.2620878219604492,0.006789639592170715,0.02118813991546631,0.06268662214279175
-0.03716427460312843,0.34303322434425354,0.12632472813129425,0.001072116196155548,0.00492742657661438,0.046078383922576904
-0.0053314208053052425,0.3120611608028412,0.08494751155376434,0.0207597017288208,-0.012527793645858765,0.03874737024307251
-0.0022717646788805723,0.23973140120506287,0.08704891055822372,0.02915292978286743,-0.030385687947273254,0.043730735778808594
-0.01656176708638668,0.1904291957616806,0.10097109526395798,0.023625940084457397,-0.03957901895046234,0.057764530181884766
-0.03738084062933922,0.1868066042661667,0.08108218014240265,0.021774597465991974,-0.04588070511817932,0.06209111213684082
-0.03202198073267937,0.15724749863147736,0.06796686351299286,0.03798422962427139,-0.05186143517494202,0.047709882259368896
-0.012727363035082817,0.0693584457039833,0.12232788652181625,0.05487077683210373,-0.06682755053043365,0.039560139179229736
-0.03868260234594345,-5.337526090443134e-05,0.20195572078227997,0.055915214121341705,-0.07789652049541473,0.05177706480026245
-0.07941892743110657,-0.0718129351735115,0.23262211680412292,0.03518719971179962,-0.08416323363780975,0.057389914989471436
-0.045999351888895035,-0.1206948459148407,0.18375183641910553,0.006120502948760986,-0.07822206616401672,0.042345404624938965
0.008039815351366997,-0.1338142603635788,0.07658671587705612,-0.009258545935153961,-0.07087364792823792,0.034101009368896484
0.0584283322095871,-0.16369862854480743,-0.02876078337430954,-0.0038835853338241577,-0.07924875617027283,0.020251333713531494
0.12264775484800339,-0.20047692954540253,-0.07504406571388245,0.013608835637569427,-0.09319795668125153,0.0007697939872741699
0.1858161836862564,-0.1704970747232437,-0.07219372689723969,0.037312716245651245,-0.09642723202705383,-0.010006546974182129
0.21402780711650848,-0.08490794152021408,-0.057575762271881104,0.06608480215072632,-0.08275419473648071,-0.020218193531036377
0.2635495066642761,-0.024327753111720085,-0.0669843778014183,0.08780312538146973,-0.05811145901679993,-0.048325300216674805
0.340805321931839,-0.07752861082553864,-0.06710122525691986,0.09425786882638931,-0.03214193880558014,-0.07788389921188354
0.32706281542778015,-0.13104377686977386,-0.023917516693472862,0.07662712037563324,-0.04059632122516632,-0.06123536825180054
0.17892906069755554,-0.03133583068847656,0.06231817975640297,0.057533085346221924,-0.04337669909000397,-0.036566734313964844
0.04335084185004234,-0.041275858879089355,0.1614612191915512,0.07613798975944519,-0.0012515783309936523,-0.06738978624343872
-0.03951529040932655,-0.15916617214679718,0.22540955245494843,0.06945313513278961,0.04688495397567749,-0.09951478242874146
-0.1673748791217804,-0.1710396558046341,0.21054238080978394,0.014908477663993835,0.0485709011554718,-0.08360129594802856
-0.31298986077308655,-0.08842919766902924,0.1532958745956421,-0.029369577765464783,0.03696508705615997,-0.07205122709274292
-0.37678855657577515,-0.021287711337208748,0.047841090708971024,-0.034916140139102936,0.053891584277153015,-0.11022394895553589
-0.3257308602333069,-0.05175243690609932,-0.06944634020328522,-0.01993642747402191,0.07195580005645752,-0.15640389919281006
-0.129995658993721,-0.23071448504924774,-0.18456746637821198,-0.0010783225297927856,0.079678013920784,-0.16668415069580078
0.07112914323806763,-0.42090412974357605,-0.2721766531467438,-0.0005054250359535217,0.08556598424911499,-0.07374316453933716
0.12451104074716568,-0.48540711402893066,-0.32000070810317993,0.006130501627922058,0.0771130919456482,0.07383465766906738
0.061171550303697586,-0.37275245785713196,-0.30587008595466614,0.020800143480300903,0.060345664620399475,0.186526358127594
-0.10291673988103867,-0.05495983734726906,-0.22962582111358643,0.0372171625494957,0.043043479323387146,0.24667400121688843
-0.25592976808547974,0.3197048306465149,-0.16044512391090393,0.020879417657852173,0.014686688780784607,0.21660619974136353
-0.2302822470664978,0.4246878921985626,-0.0885474905371666,0.02806182950735092,0.016555488109588623,0.08420300483703613
-0.14338232576847076,0.33170583844184875,0.037360116839408875,0.06769343465566635,0.0371457040309906,-0.026024937629699707
-0.11191467940807343,0.17208625376224518,0.14885453879833221,0.08081755042076111,0.03643260896205902,-0.08583009243011475
-0.07447823137044907,-0.05540440231561661,0.21626871824264526,0.05444733798503876,0.018297269940376282,-0.10875624418258667
0.030004777014255524,-0.21939244866371155,0.24262882769107819,0.023952707648277283,0.011717066168785095,-0.09472149610519409
0.10118518024682999,-0.24497582018375397,0.21947656571865082,0.015010617673397064,0.022180989384651184,-0.02605682611465454
0.11197983473539352,-0.17245016992092133,0.21021206676959991,0.030745461583137512,0.027342230081558228,0.04950714111328125
0.09204434603452682,-0.059411101043224335,0.2451341450214386,0.03732539713382721,0.014302551746368408,0.10629332065582275
0.04638459533452988,0.09467857331037521,0.3007044792175293,0.029009543359279633,-0.000244826078414917,0.1349937915802002
0.003043076954782009,0.20946575701236725,0.3378596305847168,0.02114107459783554,-0.00868198275566101,0.1198732852935791
0.03803010657429695,0.24139916896820068,0.35137349367141724,0.013736419379711151,-0.013466328382492065,0.06599569320678711
0.12543290853500366,0.15207383036613464,0.3536931872367859,0.014040559530258179,-0.00382407009601593,0.014933109283447266
0.17604762315750122,0.019839078187942505,0.36579716205596924,0.023195207118988037,0.0032419413328170776,0.005692243576049805
0.15553328394889832,-0.06056316941976547,0.3907657563686371,0.02067374438047409,0.0023709386587142944,0.03870958089828491
0.0934707298874855,0.04060987010598183,0.3820006251335144,0.007907867431640625,-0.00443597137928009,0.07032656669616699
0.0808088630437851,0.1948615312576294,0.38687098026275635,0.007257603108882904,-0.010318800806999207,0.05727565288543701
0.08259943872690201,0.2981335520744324,0.43824392557144165,0.01596861332654953,-0.010385125875473022,0.02284824848175049
0.07749113440513611,0.3189491927623749,0.48483800888061523,0.004654556512832642,-0.005821064114570618,-0.022947251796722412
0.05588565766811371,0.2744062542915344,0.47254860401153564,-0.013508319854736328,0.008644655346870422,-0.0702926516532898
0.06468968093395233,0.13608446717262268,0.41806143522262573,-0.009040571749210358,0.030112698674201965,-0.11127805709838867
0.10044687986373901,0.058844536542892456,0.3556254804134369,0.0020630955696105957,0.03615359961986542,-0.1147872805595398
0.13842223584651947,0.09470922499895096,0.3459356129169464,0.011423669755458832,0.01777656376361847,-0.09060198068618774
0.10965411365032196,0.24397599697113037,0.406667023897171,0.024341575801372528,0.005002081394195557,-0.059439659118652344
-0.02986196242272854,0.4553977847099304,0.5136393904685974,0.05063319951295853,0.01921422779560089,-0.06015235185623169
-0.12737716734409332,0.4239846169948578,0.6497689485549927,0.0801548957824707,0.047707557678222656,-0.11179637908935547
-0.140367329120636,0.23198498785495758,0.7750389575958252,0.06929659843444824,0.06660972535610199,-0.1624113917350769
-0.06709793210029602,0.030983805656433105,0.7584405541419983,0.025677047669887543,0.058872684836387634,-0.16391295194625854
0.0019779489375650883,0.029629524797201157,0.6451842784881592,0.0078076645731925964,0.05706503987312317,-0.1212759017944336
0.07927384972572327,0.09166385978460312,0.530438244342804,0.03704129904508591,0.052034422755241394,-0.08362412452697754
0.18033069372177124,0.07658885419368744,0.48074114322662354,0.08481017500162125,0.056858062744140625,-0.05826324224472046
0.2913697361946106,-0.02484123222529888,0.4772411584854126,0.12080755084753036,0.04907295107841492,-0.012520194053649902
0.306956022977829,0.012959277257323265,0.5424505472183228,0.13792607188224792,0.04168510437011719,0.060520827770233154
0.16293227672576904,0.10631727427244186,0.6167148351669312,0.13790392875671387,0.047352224588394165,0.13292312622070312
-0.0307790394872427,0.22861216962337494,0.6663112044334412,0.1193729043006897,0.05793409049510956,0.15362417697906494
-0.11531639099121094,0.3573055565357208,0.6653417348861694,0.07293660938739777,0.050260335206985474,0.11700403690338135
-0.06385255604982376,0.4037418067455292,0.5967561602592468,0.036410875618457794,0.04134240746498108,0.051942408084869385
0.05203280597925186,0.2961326241493225,0.49865269660949707,0.033859968185424805,0.03771038353443146,0.010687947273254395
0.11637381464242935,0.132835254073143,0.43101978302001953,0.05367663502693176,0.023361891508102417,0.030101418495178223
0.060808390378952026,0.05621546134352684,0.48233628273010254,0.08486974239349365,-0.0037856251001358032,0.09731531143188477
-0.06261279433965683,0.09176916629076004,0.6170992255210876,0.10607457906007767,-0.03021673858165741,0.1435111165046692
-0.132059246301651,0.18159952759742737,0.7470626831054688,0.09914299845695496,-0.03539887070655823,0.14256107807159424
-0.12726522982120514,0.2575101852416992,0.7915197610855103,0.0681329146027565,-0.02247217297554016,0.11001712083816528
-0.09016843140125275,0.2621830403804779,0.7185759544372559,0.03284056484699249,-0.0058591365814208984,0.07876145839691162
-0.06530491262674332,0.19406010210514069,0.6206488609313965,0.03390023112297058,0.008756101131439209,0.06212836503982544
-0.08025392144918442,0.04269494116306305,0.594257652759552,0.05060705542564392,0.0015844851732254028,0.06442183256149292
-0.12372921407222748,-0.04611970856785774,0.614945650100708,0.05118364095687866,-0.02464592456817627,0.07865244150161743
-0.1337272673845291,-0.06839997321367264,0.6453883051872253,0.0492672398686409,-0.03978970646858215,0.0794796347618103
-0.09419623017311096,0.004710089415311813,0.6406366229057312,0.0385870486497879,-0.03559988737106323,0.060916125774383545
-0.00730407377704978,0.09441334754228592,0.5692267417907715,0.018340997397899628,-0.029447466135025024,0.023349761962890625
0.08221549540758133,0.07996470481157303,0.5137672424316406,0.02085293084383011,-0.02941851317882538,-0.014539778232574463
0.11513561755418777,-0.012438364326953888,0.500222384929657,0.028193600475788116,-0.03734612464904785,-0.02898484468460083
0.06839358061552048,-0.08475379645824432,0.5166695713996887,0.05782964825630188,-0.026720285415649414,-0.027550339698791504
0.04380854591727257,-0.179365336894989,0.5218786001205444,0.07587433606386185,-0.010375842452049255,-0.036260902881622314
0.030602915212512016,-0.18917684257030487,0.5561509728431702,0.07482759654521942,-0.02116796374320984,-0.029674887657165527
-0.09778359532356262,0.1042245402932167,0.5965635180473328,0.05684198439121246,-0.03527146577835083,-0.030161678791046143
-0.1923484355211258,0.3997032046318054,0.5387477874755859,0.026251837611198425,-0.007519125938415527,-0.11147177219390869
-0.0419892854988575,0.4402417540550232,0.3789769113063812,0.002206847071647644,0.04606896638870239,-0.23604923486709595
0.21067498624324799,0.29219600558280945,0.24594800174236298,0.017797350883483887,0.06836917996406555,-0.26748108863830566
0.2218356430530548,0.08240018784999847,0.21243493258953094,0.0348377451300621,0.05999663472175598,-0.173659086227417
-0.07365724444389343,0.008101889863610268,0.2668774127960205,0.05268175154924393,0.03553912043571472,-0.06117677688598633
-0.36344829201698303,-0.010896926745772362,0.4012252390384674,0.09299571067094803,0.03209547698497772,-0.04994875192642212
-0.2944411635398865,-0.03155997768044472,0.5507327318191528,0.12900885939598083,0.046685606241226196,-0.1461530327796936
0.12542565166950226,-0.14585691690444946,0.6401482224464417,0.11998076736927032,0.0430808961391449,-0.2053775191307068
0.4080828130245209,-0.15337179601192474,0.6870084404945374,0.09709065407514572,0.07388302683830261,-0.09656184911727905
0.3398696184158325,-0.013133356347680092,0.6733149886131287,0.07769589126110077,0.08152081072330475,0.049304306507110596
0.14348123967647552,0.15623578429222107,0.7435272932052612,0.10581829398870468,0.09491834044456482,0.10715961456298828
0.0017542224377393723,0.297556072473526,0.8849280476570129,0.14203238487243652,0.10287351906299591,0.08782351016998291
0.050507914274930954,0.2772872745990753,0.9893910884857178,0.1277199685573578,0.0881309062242508,0.019314825534820557
0.16828246414661407,0.13128595054149628,1.0065089464187622,0.11128221452236176,0.11739286780357361,0.00573420524597168
0.21296633780002594,0.025740336626768112,0.9113852977752686,0.0847742110490799,0.12260015308856964,0.06750279664993286
0.1592119336128235,0.11381589621305466,0.8156512975692749,0.073269784450531,0.11417824029922485,0.1413552165031433
0.0452306792140007,0.29694750905036926,0.8055019378662109,0.09823949635028839,0.10803177952766418,0.1676797866821289
-0.025492507964372635,0.39050808548927307,0.9116196632385254,0.12245673686265945,0.08668088912963867,0.126359224319458
-0.007313481532037258,0.3657253384590149,1.0451732873916626,0.10048248618841171,0.06905421614646912,0.06612133979797363
-0.00866202637553215,0.2563377320766449,1.1229678392410278,0.07322074472904205,0.0805981457233429,0.04115015268325806
-0.0776597186923027,0.16091975569725037,1.1691489219665527,0.0658164918422699,0.08985625207424164,0.04730939865112305
-0.14428821206092834,0.17032557725906372,1.1941308975219727,0.0407954677939415,0.08166450262069702,0.044391930103302
-0.16460572183132172,0.2341577261686325,1.1870783567428589,0.02086775004863739,0.07257446646690369,0.022096335887908936
-0.07309480011463165,0.23956583440303802,1.1428859233856201,0.012798182666301727,0.06863859295845032,-0.01804453134536743
0.04897801950573921,0.16280575096607208,1.1481670141220093,0.01963154971599579,0.06493480503559113,-0.024216890335083008
0.03849032521247864,0.08090410381555557,1.1863280534744263,0.021829664707183838,0.04969891905784607,0.009568631649017334
-0.08043214678764343,0.07093042135238647,1.2024383544921875,0.015308469533920288,0.03421345353126526,0.049184203147888184
-0.18005730211734772,0.1645180732011795,1.1953461170196533,0.012758277356624603,0.030188441276550293,0.04834866523742676
-0.21624042093753815,0.3143254518508911,1.1319249868392944,-0.001514621078968048,0.03457793593406677,0.01255643367767334
-0.18540862202644348,0.42561525106430054,1.0112143754959106,-0.01876075565814972,0.0365569144487381,-0.047171175479888916
-0.07748756557703018,0.3331669270992279,0.8985428214073181,-0.0026459619402885437,0.04536665976047516,-0.11279481649398804
0.03390206769108772,0.13972868025302887,0.8534920811653137,0.03035280853509903,0.055828824639320374,-0.1326642632484436
0.09542930126190186,-0.06060599163174629,0.8661652207374573,0.05201796814799309,0.04085972160100937,-0.1014297604560852
0.10632047057151794,-0.0599275566637516,0.9112881422042847,0.0468248687684536,0.01053047925233841,-0.035364389419555664
0.02187376655638218,0.10021559149026871,0.957844614982605,0.07102398574352264,0.019962891936302185,0.013727307319641113
-0.12502679228782654,0.18525362014770508,1.0683852434158325,0.1361275613307953,0.050589315593242645,0.0007739663124084473
-0.19983109831809998,0.102152019739151,1.2525242567062378,0.1806248128414154,0.0603729784488678,-0.045247018337249756
-0.20317380130290985,-0.0065118176862597466,1.4023171663284302,0.14598482847213745,0.03518049418926239,-0.05439496040344238
-0.2790370285511017,-0.07399953901767731,1.4670946598052979,0.10879892855882645,0.024091556668281555,-0.03307497501373291
-0.4233853220939636,-0.0481097437441349,1.4764900207519531,0.12008707225322723,0.03255224972963333,-0.025469541549682617
-0.39614197611808777,0.10097569227218628,1.5185410976409912,0.15978163480758667,0.03627019375562668,-0.09915345907211304
-0.07217208296060562,0.2536064684391022,1.5341004133224487,0.1560833752155304,0.04046202450990677,-0.19762200117111206
0.2899573743343353,0.24569353461265564,1.4521363973617554,0.13055594265460968,0.07372644543647766,-0.2180030345916748
0.394858181476593,0.14153225719928741,1.3024133443832397,0.12136887013912201,0.11316237598657608,-0.13285553455352783
0.24635203182697296,0.08504084497690201,1.1984686851501465,0.13911037147045135,0.11306260526180267,-0.030996739864349365
0.12381871789693832,0.07199843227863312,1.1931307315826416,0.1663522720336914,0.08007603138685226,0.006113648414611816
0.17199939489364624,0.1241866871714592,1.2565267086029053,0.18158577382564545,0.05484255403280258,0.007287085056304932
0.28550341725349426,0.2459793984889984,1.3036457300186157,0.16901063919067383,0.04681610316038132,0.02673196792602539
0.3419315814971924,0.3527975380420685,1.3040885925292969,0.1451992690563202,0.045180611312389374,0.06216084957122803
0.29459595680236816,0.37127092480659485,1.284461259841919,0.12989740073680878,0.05335076153278351,0.1020280122756958
0.1775735467672348,0.3171345293521881,1.3066164255142212,0.12498319894075394,0.03959277272224426,0.12002712488174438
0.06712774187326431,0.25659888982772827,1.3737406730651855,0.1274242103099823,0.024345427751541138,0.1019476056098938
0.035843417048454285,0.2315908968448639,1.463657259941101,0.12688559293746948,0.013794340193271637,0.07043009996414185
0.0800522044301033,0.2347443401813507,1.4995709657669067,0.10619358718395233,0.012840107083320618,0.042628347873687744
0.13399095833301544,0.21781706809997559,1.4554753303527832,0.0762951448559761,0.018317408859729767,0.03216135501861572
0.10907075554132462,0.15569613873958588,1.4056928157806396,0.07685397565364838,0.02609933912754059,0.0515403151512146
0.047136612236499786,0.08912020176649094,1.3878612518310547,0.08451654762029648,0.02004600316286087,0.06858158111572266
0.007277365308254957,0.03226969763636589,1.3772090673446655,0.07758960872888565,0.0059459879994392395,0.0754271149635315
-0.005175421480089426,-0.01659695990383625,1.338916540145874,0.06770463287830353,-0.007530637085437775,0.07918679714202881
0.017316564917564392,0.020429415628314018,1.2432845830917358,0.04181902855634689,-0.025874033570289612,0.08404707908630371
0.0823930948972702,0.07846970111131668,1.1273080110549927,0.026465538889169693,-0.04225853085517883,0.08049100637435913
0.09544456750154495,0.111930251121521,1.028694987297058,0.028947174549102783,-0.048465125262737274,0.07719296216964722
0.07295067608356476,0.17261454463005066,0.9327417612075806,0.024387311190366745,-0.05896179378032684,0.07100510597229004
0.06084020435810089,0.17422567307949066,0.8957090377807617,0.03476514667272568,-0.07009745389223099,0.042610347270965576
0.10325664281845093,0.06275134533643723,0.9026633501052856,0.05588094890117645,-0.06941476464271545,0.0010709166526794434
0.15552882850170135,-0.039402782917022705,0.916473388671875,0.05714794993400574,-0.07619570195674896,-0.01603686809539795
0.16353824734687805,-0.08270914107561111,0.8947384357452393,0.048189081251621246,-0.07985027879476547,-0.018384099006652832
0.1839258372783661,-0.10941018909215927,0.8732842206954956,0.06640121340751648,-0.07576213777065277,-0.030346274375915527
0.2362121194601059,-0.017703045159578323,0.8708386421203613,0.07674655318260193,-0.06658997386693954,-0.03390425443649292
0.27951759099960327,0.14442741870880127,0.8833799958229065,0.0765489786863327,-0.06211652606725693,-0.03970283269882202
0.2862306833267212,0.23532800376415253,0.9518528580665588,0.08400748670101166,-0.054667867720127106,-0.0452343225479126
0.18284465372562408,0.2627868950366974,1.0216128826141357,0.06374415755271912,-0.046126723289489746,-0.04395955801010132
0.01340431347489357,0.17432445287704468,1.0640833377838135,0.057522840797901154,-0.02820705622434616,-0.06008189916610718
-0.1286342442035675,0.018793072551488876,1.1434019804000854,0.0736093670129776,0.004761591553688049,-0.09668499231338501
-0.22345921397209167,-0.13347378373146057,1.202389121055603,0.06863416731357574,0.03218616545200348,-0.1308494210243225
-0.22730231285095215,-0.24178646504878998,1.1728172302246094,0.03222421556711197,0.04286651313304901,-0.16019397974014282
-0.11687367409467697,-0.2937496602535248,1.037241816520691,-0.013610489666461945,0.05568184703588486,-0.17123782634735107
0.023420915007591248,-0.29517662525177,0.8325385451316833,-0.03821687400341034,0.0740436390042305,-0.14200925827026367
0.11792878061532974,-0.2635115385055542,0.6191145777702332,-0.03384286165237427,0.07652334868907928,-0.08814960718154907
0.16238592565059662,-0.2037563920021057,0.4605068266391754,-0.006421908736228943,0.0615878701210022,-0.03426080942153931
0.2283390462398529,-0.15879297256469727,0.4005292057991028,0.03995092213153839,0.04354088753461838,-0.004143178462982178
0.310920774936676,-0.09730299562215805,0.46110787987709045,0.08311387896537781,0.024608321487903595,0.035453081130981445
0.30483564734458923,0.033550381660461426,0.5907148122787476,0.0997457355260849,0.013130851089954376,0.07887870073318481
0.19522063434123993,0.15715357661247253,0.763659656047821,0.1193346232175827,0.008953958749771118,0.10672193765640259
0.07884344458580017,0.18171927332878113,0.9585697650909424,0.1180540919303894,0.01820485293865204,0.09164732694625854
-0.010001316666603088,0.15627866983413696,1.0794405937194824,0.08938878029584885,0.03657546639442444,0.05707657337188721
-0.04243853688240051,0.05356895551085472,1.0693132877349854,0.057031773030757904,0.06312417984008789,0.020928621292114258
0.012586400844156742,-0.08088749647140503,0.9805383086204529,0.038683436810970306,0.0920957550406456,0.007131695747375488
0.06548020243644714,-0.07733827829360962,0.8879947662353516,0.03601634502410889,0.09794215857982635,0.04396253824234009
0.06554494798183441,0.0420982651412487,0.827920138835907,0.03613992780447006,0.07496439665555954,0.08807593584060669
0.04531076177954674,0.13079671561717987,0.8080650568008423,0.03177425265312195,0.04730767756700516,0.10327553749084473
0.010011116042733192,0.1340915709733963,0.7787011861801147,0.020097807049751282,0.029374219477176666,0.10844165086746216
-0.022431254386901855,0.13971367478370667,0.7100122570991516,-0.0008604526519775391,0.008488550782203674,0.10629773139953613
-0.043499864637851715,0.1630907505750656,0.6447017788887024,-0.0013976022601127625,-0.007250599563121796,0.09654885530471802
-0.043060142546892166,0.22392331063747406,0.6257582306861877,0.025980129837989807,-0.02713508903980255,0.06480753421783447
-0.01158019620925188,0.2792341113090515,0.6909812092781067,0.058188676834106445,-0.05466380715370178,0.026884257793426514
0.03417814150452614,0.32140254974365234,0.8146084547042847,0.07504601776599884,-0.07257889211177826,-0.0033293962478637695
0.06584818661212921,0.2996178865432739,0.9558529257774353,0.07498957961797714,-0.07986623048782349,-0.01827007532119751
0.08209790289402008,0.20902429521083832,1.058096170425415,0.0633009821176529,-0.07639366388320923,-0.02157539129257202
0.11385529488325119,0.10777676105499268,1.0920357704162598,0.02766302227973938,-0.07613693177700043,-0.013426542282104492
0.12737224996089935,0.10414693504571915,1.0743279457092285,0.0040368810296058655,-0.06652265042066574,0.012425065040588379
0.12808556854724884,0.20095057785511017,1.0460880994796753,-0.00573652982711792,-0.07049915194511414,0.026089906692504883
0.14982841908931732,0.30055955052375793,1.0414090156555176,-0.005000956356525421,-0.07087752223014832,0.008011400699615479
0.17624494433403015,0.33714959025382996,1.042449951171875,-0.003963470458984375,-0.06250805407762527,-0.020138680934906006
0.17995618283748627,0.2904414236545563,1.0174223184585571,-0.016014456748962402,-0.051864638924598694,-0.04070490598678589
0.18370424211025238,0.15023799240589142,0.9662067890167236,-0.023906543850898743,-0.042502015829086304,-0.04857635498046875
0.18897178769111633,0.06272702664136887,0.9219398498535156,-0.02550334483385086,-0.042013220489025116,-0.0283086895942688
0.1652224361896515,0.15785802900791168,0.9206984043121338,-0.018831796944141388,-0.04624517261981964,-0.0036769509315490723
0.11450058221817017,0.19648444652557373,0.9641099572181702,-0.007202267646789551,-0.05282747000455856,-0.012317538261413574
0.09627170860767365,0.2693575918674469,1.02572762966156,0.016731351613998413,-0.042949825525283813,-0.04929250478744507
0.1135670617222786,0.3764023780822754,1.0765728950500488,0.02720595896244049,-0.016911476850509644,-0.08760547637939453
0.11101610958576202,0.39166343212127686,1.118727445602417,0.04209844768047333,0.004600167274475098,-0.12419819831848145
0.09341040998697281,0.3017541468143463,1.192347526550293,0.058450452983379364,0.015323057770729065,-0.1515546441078186
0.10938817262649536,0.12462886422872543,1.2659066915512085,0.0674067884683609,0.021581880748271942,-0.15614396333694458
0.19622883200645447,-0.053838975727558136,1.3086501359939575,0.057885803282260895,0.02779051661491394,-0.1102365255355835
0.2120710164308548,-0.043766219168901443,1.3209172487258911,0.052249178290367126,0.03309071063995361,-0.011688232421875
0.14845353364944458,0.12302743643522263,1.3189105987548828,0.054384879767894745,0.0072240084409713745,0.05825769901275635
0.13290150463581085,0.2729259133338928,1.4000657796859741,0.08055688440799713,-0.0010808035731315613,0.045059144496917725
0.22545544803142548,0.22222048044204712,1.4534046649932861,0.08379605412483215,0.013090208172798157,-0.0054492950439453125
0.2953430414199829,0.11957723647356033,1.392683744430542,0.05847964435815811,0.0478203147649765,-0.0044692158699035645
0.2221001237630844,0.12675946950912476,1.2333378791809082,0.03602473437786102,0.07623384892940521,0.046313703060150146
0.09994688630104065,0.20161885023117065,1.0367010831832886,0.033771224319934845,0.07934755086898804,0.06018584966659546
0.07024957984685898,0.167242631316185,0.9185012578964233,0.04880957305431366,0.05410388112068176,0.028382062911987305
0.1154366061091423,0.11941278725862503,0.8734560608863831,0.05977980047464371,0.01981423795223236,0.01780146360397339
0.15363632142543793,0.15086394548416138,0.8534442186355591,0.05177108943462372,-0.005358695983886719,0.046475887298583984
0.17278039455413818,0.2136496752500534,0.8354269862174988,0.04318554699420929,-0.014820024371147156,0.07582956552505493
0.18020114302635193,0.2370910346508026,0.7939358949661255,0.020642369985580444,-0.011521905660629272,0.10312390327453613
0.14538487792015076,0.20930451154708862,0.7332355976104736,9.64924693107605e-05,-0.01382763683795929,0.1266787052154541
0.07683811336755753,0.1977110207080841,0.674394965171814,-0.002351708710193634,-0.02850678563117981,0.14030617475509644
0.042360205203294754,0.20655834674835205,0.6525604128837585,0.005297571420669556,-0.055261507630348206,0.1268080472946167
0.05299440398812294,0.20456984639167786,0.7005174160003662,0.022509343922138214,-0.07382002472877502,0.10042572021484375
0.04359624534845352,0.18806642293930054,0.800091028213501,0.03894483298063278,-0.07887247204780579,0.0868801474571228
-0.03591577708721161,0.17886921763420105,0.8762621879577637,0.024227645248174667,-0.07399183511734009,0.0894479751586914
-0.09383775293827057,0.1478414684534073,0.8568483591079712,-0.017016295343637466,-0.06385210156440735,0.06532162427902222
-0.07069240510463715,0.026499832049012184,0.7325632572174072,-0.050053857266902924,-0.04792970418930054,0.028906941413879395
-0.02640124037861824,-0.04500296711921692,0.5138140320777893,-0.0760408490896225,-0.04557766020298004,0.01304560899734497
0.0338875986635685,-0.05675824359059334,0.2992466986179352,-0.07462717592716217,-0.06595011055469513,0.014794111251831055
0.07786888629198074,0.014813527464866638,0.15580391883850098,-0.06179579719901085,-0.08778554201126099,0.022417306900024414
0.10958158224821091,0.0896204486489296,0.051124248653650284,-0.04642975702881813,-0.10514725744724274,0.01172792911529541
0.20377808809280396,0.08848118036985397,-0.055077023804187775,-0.03457093611359596,-0.09738512337207794,-0.03013509511947632
0.3093688488006592,0.030940761789679527,-0.16399137675762177,-0.02007976546883583,-0.07584971189498901,-0.046332478523254395
0.35489189624786377,-0.017134465277194977,-0.26390591263771057,0.0008844472467899323,-0.06127791106700897,-0.026521027088165283
0.3603275418281555,-0.04314079508185387,-0.30369681119918823,0.0181567445397377,-0.06667812168598175,0.0014346837997436523
0.36469706892967224,-0.08136340230703354,-0.28557488322257996,0.025284085422754288,-0.08376306295394897,0.01340705156326294
0.3171745240688324,-0.1586470901966095,-0.17560739815235138,0.03456699848175049,-0.08892263472080231,0.036879897117614746
0.10783647000789642,-0.07465586811304092,-0.042905427515506744,0.011403709650039673,-0.08632870018482208,0.058704674243927
-0.12666869163513184,0.08194530755281448,0.014265211299061775,-0.02803140878677368,-0.0870693027973175,0.024155914783477783
-0.16612191498279572,0.07136296480894089,-0.02055315114557743,-0.05908479541540146,-0.054424867033958435,-0.08298951387405396
-0.1424648016691208,-0.030830595642328262,-0.09140376001596451,-0.057914137840270996,-0.02115286886692047,-0.16304683685302734
-0.20817583799362183,-0.12019626796245575,-0.11485395580530167,-0.03201356902718544,-0.008367612957954407,-0.18632560968399048
-0.24296537041664124,-0.2522660195827484,-0.09989486634731293,-0.005290601402521133,-0.0026672333478927612,-0.19476854801177979
-0.16857020556926727,-0.42296940088272095,-0.12453575432300568,-0.010882902890443802,0.005277067422866821,-0.17803889513015747
0.007317407056689262,-0.5125906467437744,-0.22102665901184082,-0.034058570861816406,0.008189111948013306,-0.10638278722763062
0.13472247123718262,-0.4315640926361084,-0.2849048376083374,-0.03126734495162964,0.016223639249801636,0.01130533218383789
0.149978905916214,-0.21424297988414764,-0.2982567250728607,-0.02894364297389984,0.007493793964385986,0.11976242065429688
0.08244004100561142,0.09050817042589188,-0.262219101190567,-0.03156287223100662,-0.0008593648672103882,0.16647136211395264
-0.003174350131303072,0.2693058252334595,-0.1974049210548401,-0.019094042479991913,-0.0014227181673049927,0.13050991296768188
-0.03652171045541763,0.2232978790998459,-0.12289302051067352,-0.008435547351837158,0.008349001407623291,0.04973006248474121
0.004806021694093943,0.09192920476198196,-0.07212784886360168,-0.008984886109828949,0.018744543194770813,-0.01721978187561035
0.061923474073410034,0.011598825454711914,-0.07390305399894714,-0.01591368019580841,0.0399203896522522,-0.04721701145172119
0.09830465167760849,-0.05637463182210922,-0.0989367663860321,-0.0138540118932724,0.050354182720184326,-0.041518449783325195
0.13665823638439178,-0.12439250946044922,-0.10002116858959198,-0.017167694866657257,0.038268446922302246,-0.008984923362731934
0.14009816944599152,-0.1247711107134819,-0.0664968341588974,-0.024037383496761322,0.020549118518829346,0.04783076047897339
0.11302865296602249,-0.09609058499336243,-0.0502968356013298,-0.03043096512556076,0.003584533929824829,0.10192561149597168
0.07522661238908768,0.008854910731315613,-0.022484559565782547,-0.019923239946365356,-0.0050413161516189575,0.1257452368736267
0.041834451258182526,0.09775996953248978,0.04231460019946098,-0.0025355741381645203,-0.017844215035438538,0.11817014217376709
0.033190950751304626,0.13111799955368042,0.10460560023784637,-0.008033409714698792,-0.030090689659118652,0.09507447481155396
0.049951355904340744,0.1037585511803627,0.11218365281820297,-0.033537961542606354,-0.02149246633052826,0.07650649547576904
0.06484787166118622,0.010996771045029163,0.06517120450735092,-0.05320839583873749,-0.006288200616836548,0.07465332746505737
0.06021151319146156,-0.02296154573559761,0.03821156919002533,-0.05849763751029968,-0.009250625967979431,0.09038311243057251
0.05704224109649658,0.03552427515387535,0.05532247945666313,-0.05749580264091492,-0.021862193942070007,0.10215580463409424
0.06498046964406967,0.13054047524929047,0.08034281432628632,-0.06018528342247009,-0.024927541613578796,0.09836280345916748
0.07681682705879211,0.19596843421459198,0.08674714714288712,-0.07606247067451477,-0.023932263255119324,0.07632589340209961
0.0403180792927742,0.21283043920993805,0.06805142015218735,-0.07837031036615372,-0.02255164086818695,0.058696627616882324
-0.05887211859226227,0.2136470526456833,0.06358160823583603,-0.07477235049009323,-0.02462698519229889,0.038913190364837646
-0.13598757982254028,0.20522114634513855,0.06653576344251633,-0.07314015179872513,-0.03500808775424957,-0.004610419273376465
-0.11052493005990982,0.1811995506286621,0.05243426933884621,-0.06861229240894318,-0.043048083782196045,-0.07360118627548218
-0.04011046886444092,0.14459021389484406,0.05797320231795311,-0.04530894383788109,-0.033159732818603516,-0.11276513338088989
-0.05266770347952843,0.1895088404417038,0.08550342917442322,-0.03118821233510971,-0.029200837016105652,-0.11331278085708618
-0.08964981883764267,0.23338164389133453,0.08101247996091843,-0.027074355632066727,-0.027915507555007935,-0.1305755376815796
-0.016589781269431114,0.13542072474956512,0.0687887966632843,-0.0006494633853435516,-0.012638837099075317,-0.17899668216705322
0.08565680682659149,0.05373728275299072,0.10410171002149582,0.009787064045667648,-0.005431383848190308,-0.17449593544006348
0.11578018218278885,0.08850224316120148,0.17745840549468994,0.0158558189868927,-0.011210218071937561,-0.12459760904312134
0.16505242884159088,0.053759001195430756,0.2574043869972229,0.024604149162769318,-0.0005214065313339233,-0.07741391658782959
0.2120593786239624,-0.10263063758611679,0.32348594069480896,0.01834329217672348,0.018338337540626526,-0.003110170364379883
0.1467045396566391,-0.11651748418807983,0.3531394302845001,-0.0035026781260967255,0.02187258005142212,0.10989260673522949
-0.03613646700978279,0.04172465205192566,0.391011118888855,-0.0038185790181159973,0.02103312313556671,0.1930239200592041
-0.246168851852417,0.2713945508003235,0.49004417657852173,0.008378319442272186,0.009123757481575012,0.1927701234817505
-0.3224259614944458,0.3454493582248688,0.6267756819725037,0.01439688354730606,-0.0038694143295288086,0.08506572246551514
-0.2225596308708191,0.13012908399105072,0.707271158695221,-0.008112605661153793,0.016589611768722534,-0.04033172130584717
-0.0748521015048027,-0.12642115354537964,0.5866293907165527,-0.0738217905163765,0.057520702481269836,-0.07922261953353882
0.05880584195256233,-0.30251583456993103,0.2598411738872528,-0.13185971975326538,0.08979247510433197,-0.059559404850006104
0.04464353248476982,-0.23075246810913086,-0.08499140292406082,-0.11167547106742859,0.10691490769386292,0.004790544509887695
-0.11037179827690125,-0.06450715661048889,-0.26379239559173584,-0.03253740072250366,0.07547864317893982,0.0346682071685791
-0.18232114613056183,-0.01990237645804882,-0.23176831007003784,0.04154970124363899,0.021716192364692688,-0.012121379375457764
-0.09864627569913864,-0.1414167284965515,-0.1285795122385025,0.05741123482584953,-0.013879582285881042,-0.04938024282455444
-0.03671620786190033,-0.27710339426994324,-0.14947114884853363,0.018200576305389404,-0.009938240051269531,0.005723178386688232
-0.10548218339681625,-0.29189079999923706,-0.3012291193008423,-0.019730910658836365,-0.0019889920949935913,0.1150922179222107
-0.19396443665027618,-0.1916443407535553,-0.4332306981086731,-0.03571479022502899,-0.024467572569847107,0.17998158931732178
-0.2296418398618698,-0.07431572675704956,-0.4739110767841339,-0.023494891822338104,-0.05371919274330139,0.18336939811706543
-0.21222130954265594,0.048358526080846786,-0.4898487627506256,-0.011504054069519043,-0.0694875568151474,0.15452665090560913
-0.15853862464427948,0.15967795252799988,-0.5381083488464355,-0.016853496432304382,-0.07170304656028748,0.11672532558441162
-0.13651835918426514,0.18987876176834106,-0.5705839991569519,-0.019129015505313873,-0.07172583043575287,0.0920478105545044
-0.2023506909608841,0.12463356554508209,-0.5746450424194336,-0.01144949346780777,-0.07263162732124329,0.07195895910263062
-0.2706429064273834,0.0016844372730702162,-0.5610474944114685,-0.006200976669788361,-0.07538731396198273,0.04143726825714111
-0.2623991370201111,-0.10230087488889694,-0.5507598519325256,-0.013183597475290298,-0.07441627979278564,0.006540179252624512
-0.19385753571987152,-0.12050130218267441,-0.5737885236740112,-0.029557928442955017,-0.07821747660636902,-0.013160645961761475
-0.1029658168554306,-0.18495634198188782,-0.6059207320213318,-0.03948146104812622,-0.07960793375968933,-0.019741833209991455
-0.05892551317811012,-0.22643859684467316,-0.656323254108429,-0.04500231891870499,-0.07663078606128693,-0.004001319408416748
0.0013530529104173183,-0.2170475721359253,-0.7327118515968323,-0.04734067991375923,-0.0728878527879715,-0.002309262752532959
0.06470693647861481,-0.17541834712028503,-0.7853688597679138,-0.02891809493303299,-0.06433799862861633,-0.0066111087799072266
0.10915495455265045,-0.14917419850826263,-0.8208033442497253,-0.010361738502979279,-0.05906175076961517,-0.019436120986938477
0.16093869507312775,-0.15688464045524597,-0.8354452848434448,-0.004352375864982605,-0.055801451206207275,-0.0375058650970459
0.17645269632339478,-0.19435691833496094,-0.8209943175315857,0.013489611446857452,-0.03430210053920746,-0.04359781742095947
0.18141548335552216,-0.2825271785259247,-0.8174036145210266,0.018795959651470184,-0.020464465022087097,-0.04181039333343506
0.2494020015001297,-0.3741758465766907,-0.7667375206947327,0.019576162099838257,-0.01332487165927887,-0.05160093307495117
0.24398130178451538,-0.4539509117603302,-0.7248309254646301,-0.007564939558506012,-0.008114144206047058,-0.020119845867156982
0.05616431683301926,-0.30850160121917725,-0.7222528457641602,-0.05435369163751602,-0.02700868248939514,0.028710126876831055
-0.1465686559677124,-0.07979440689086914,-0.7259283065795898,-0.04865908622741699,-0.01389293372631073,0.0027496814727783203
-0.13732416927814484,-0.07888944447040558,-0.7010486125946045,-0.0023157596588134766,0.024915948510169983,-0.10737854242324829
-0.10446392744779587,-0.24238258600234985,-0.6012796759605408,0.016028687357902527,0.04204542934894562,-0.15599876642227173
-0.25924304127693176,-0.3929302990436554,-0.48228585720062256,0.01079586148262024,0.022883668541908264,-0.11948806047439575
-0.43007180094718933,-0.5159779787063599,-0.4012610614299774,-0.0038394182920455933,0.01617993414402008,-0.08838421106338501
-0.47571635246276855,-0.5498002767562866,-0.4099958837032318,-0.038060836493968964,0.018525123596191406,-0.07000291347503662
-0.45288270711898804,-0.5320577025413513,-0.5398478507995605,-0.0727890282869339,0.017945587635040283,-0.0435560941696167
-0.348539799451828,-0.4936138987541199,-0.7101439833641052,-0.0694926306605339,0.03250885009765625,-0.021031677722930908
-0.1511215716600418,-0.4927876889705658,-0.7952657341957092,-0.02269551157951355,0.052851393818855286,0.0041847825050354
-0.024759115651249886,-0.44264551997184753,-0.7667127847671509,0.02258548140525818,0.04676605761051178,0.061751604080200195
-0.07238462567329407,-0.24987661838531494,-0.7075619697570801,0.01616474986076355,0.031253382563591,0.13850456476211548
-0.17420047521591187,-0.00929089356213808,-0.6724466681480408,-0.015086978673934937,0.023784279823303223,0.16920387744903564
-0.24754218757152557,0.14887365698814392,-0.6692304611206055,-0.03185272216796875,0.029773518443107605,0.1329338550567627
-0.24909575283527374,0.17149336636066437,-0.635541558265686,-0.014415189623832703,0.05149371922016144,0.0658382773399353
-0.25117093324661255,0.14281980693340302,-0.5412003397941589,0.008412525057792664,0.05354854464530945,0.01347583532333374
-0.25930657982826233,0.06177946925163269,-0.4158005118370056,0.011381566524505615,0.050255730748176575,-0.019684255123138428
-0.218282550573349,-0.03502810001373291,-0.3549391031265259,-0.018535509705543518,0.04753592610359192,-0.031048893928527832
-0.17839395999908447,-0.10475071519613266,-0.3780812919139862,-0.04857631027698517,0.05349741131067276,-0.004149973392486572
-0.15010568499565125,-0.09586241096258163,-0.46124720573425293,-0.06916956603527069,0.04430975019931793,0.034938812255859375
-0.10019572079181671,-0.010610395111143589,-0.5268117189407349,-0.06909872591495514,0.02465961128473282,0.055717527866363525
-0.04903314262628555,0.053444184362888336,-0.5153040289878845,-0.046013250946998596,0.0056404247879981995,0.05861598253250122
-0.03560611605644226,0.05321269482374191,-0.4358155131340027,-0.0246303528547287,-0.006143547594547272,0.06309044361114502
-0.07633772492408752,0.015155211091041565,-0.3525293469429016,-0.018753282725811005,-0.009491756558418274,0.07147747278213501
-0.11523479223251343,-0.018441898748278618,-0.2992142140865326,-0.031754471361637115,-0.009426310658454895,0.07195258140563965
-0.11568789929151535,0.00011059746611863375,-0.29474812746047974,-0.041757382452487946,-0.005575075745582581,0.05633920431137085
-0.07749416679143906,0.017694741487503052,-0.2964729070663452,-0.03920088708400726,-0.008158072829246521,0.030037283897399902
-0.02877878025174141,0.05053481087088585,-0.2728666365146637,-0.02933070808649063,-0.012357845902442932,0.003322303295135498
0.0098081324249506,0.08505357056856155,-0.22557790577411652,-0.02506738156080246,-0.0222054123878479,-0.013010561466217041
0.0065564122051000595,0.1280367225408554,-0.15897731482982635,-0.02039206027984619,-0.021361783146858215,-0.022817671298980713
-0.001152297481894493,0.14919115602970123,-0.12997956573963165,-0.023909777402877808,-0.004971489310264587,-0.04743844270706177
0.0037276027724146843,0.09293466061353683,-0.14337119460105896,-0.033944129943847656,0.01181001216173172,-0.05930435657501221
0.005756475031375885,-0.04205235093832016,-0.1602221578359604,-0.03509567677974701,0.018837466835975647,-0.05721414089202881
-0.05112406238913536,-0.08909715712070465,-0.1399288773536682,-0.033780328929424286,0.005429893732070923,-0.024444580078125
-0.13576500117778778,0.04138776287436485,-0.10163822770118713,-0.03666301816701889,-0.022170767188072205,-0.004952669143676758
-0.17280271649360657,0.22200210392475128,-0.04324740543961525,-0.028076335787773132,-0.02229173481464386,-0.03627634048461914
-0.16790960729122162,0.34775257110595703,-0.008679380640387535,-0.029376298189163208,-0.00015524029731750488,-0.10275775194168091
-0.18049323558807373,0.38895556330680847,-0.027098696678876877,-0.03214845806360245,0.025688081979751587,-0.17950820922851562
-0.11839175224304199,0.2141176164150238,-0.07043816894292831,-0.03710569441318512,0.02723792940378189,-0.24969249963760376
0.026966217905282974,-0.07267225533723831,-0.11883261054754257,-0.028194591403007507,0.030146457254886627,-0.2585579752922058
0.2620391249656677,-0.38202282786369324,-0.21728424727916718,-0.024477429687976837,0.023007355630397797,-0.1836734414100647
0.4142586588859558,-0.43770337104797363,-0.263399600982666,0.008750587701797485,0.02221313863992691,-0.019079089164733887
0.44444382190704346,-0.2900109589099884,-0.2506831884384155,0.028662726283073425,-0.0018087774515151978,0.13661909103393555
0.3886352479457855,-0.06529959291219711,-0.1285167634487152,0.056951142847537994,-0.01590077579021454,0.2199442982673645
0.23327085375785828,0.15123726427555084,0.05270741134881973,0.05996323376893997,-0.016994088888168335,0.24314981698989868
0.015910498797893524,0.24851040542125702,0.1899910569190979,0.038226060569286346,-0.00337943434715271,0.19364750385284424
-0.11847451329231262,0.1897508054971695,0.20816472172737122,0.00171661376953125,0.03591318428516388,0.09338778257369995
-0.1683811992406845,0.12891225516796112,0.12655994296073914,-0.034066371619701385,0.07565408945083618,0.011500120162963867
-0.13396896421909332,0.11128819733858109,-0.0758642852306366,-0.07441113144159317,0.09115930646657944,-0.05626344680786133
0.06078876927495003,-0.05590879172086716,-0.34819263219833374,-0.09564606845378876,0.08710384368896484,-0.10107380151748657
0.25535592436790466,-0.2864875793457031,-0.5386697053909302,-0.07353757321834564,0.09072449803352356,-0.04587680101394653
0.20122569799423218,-0.28317856788635254,-0.6099144220352173,-0.038434818387031555,0.06803622841835022,0.0991021990776062
0.01602516882121563,-0.13089893758296967,-0.5981000065803528,-0.015919625759124756,0.022625207901000977,0.19590574502944946
-0.1477479189634323,0.05866142362356186,-0.5277179479598999,0.003141365945339203,-0.006280437111854553,0.21635299921035767
-0.22954070568084717,0.15702670812606812,-0.4914904832839966,0.015419796109199524,-0.0250566303730011,0.1737726926803589
-0.2295808643102646,0.13586142659187317,-0.5032652616500854,0.028461195528507233,-0.04302571713924408,0.1097685694694519
-0.21207888424396515,0.06006660684943199,-0.4489925801753998,0.04617125540971756,-0.06170697510242462,0.06824314594268799
-0.1933727264404297,0.02311522327363491,-0.35232865810394287,0.03324670344591141,-0.08682480454444885,0.047851383686065674
-0.17217929661273956,0.00955511536449194,-0.26862141489982605,0.002928704023361206,-0.09050478041172028,0.0375942587852478
-0.15778973698616028,-0.011968821287155151,-0.27659371495246887,-0.03475242108106613,-0.06754215061664581,0.02718031406402588
-0.1446661651134491,-0.008596276864409447,-0.37555399537086487,-0.0712505429983139,-0.06068858504295349,0.015558779239654541
-0.08294351398944855,0.021738573908805847,-0.4729577898979187,-0.08011963963508606,-0.07093039900064468,-0.012663841247558594
0.04188591614365578,0.049348924309015274,-0.5343960523605347,-0.05661517381668091,-0.07257530838251114,-0.05644512176513672
0.1645595133304596,-0.011133173480629921,-0.5317332148551941,-0.015957586467266083,-0.07345452159643173,-0.08384627103805542
0.19954344630241394,-0.09959004074335098,-0.46175795793533325,0.011822730302810669,-0.07636291533708572,-0.07664483785629272
0.1775299608707428,-0.16383318603038788,-0.37067294120788574,0.019542954862117767,-0.07727101445198059,-0.06343799829483032
0.1771649271249771,-0.21942296624183655,-0.29860591888427734,0.02979639172554016,-0.05266349017620087,-0.07114839553833008
0.24797284603118896,-0.24983076751232147,-0.31309759616851807,0.018000364303588867,-0.023561552166938782,-0.08947819471359253
0.35278379917144775,-0.29871276021003723,-0.37203744053840637,-0.004354991018772125,-0.013673156499862671,-0.08238714933395386
0.3851329982280731,-0.376124769449234,-0.3963431417942047,-0.008705973625183105,-0.011458411812782288,-0.02972424030303955
