rotation_x,rotation_y,rotation_z,acceleration_x,acceleration_y,acceleration_z
-0.45380181074142456,0.6389766931533813,0.17275802791118622,0.10682012140750885,0.04748228192329407,0.16914379596710205
-0.5841016173362732,0.6309990882873535,0.2749655246734619,0.10365475714206696,0.045437246561050415,0.07988417148590088
-0.16886772215366364,0.3739105463027954,0.2697720527648926,0.06782561540603638,0.03677049279212952,-0.10954612493515015
0.30886951088905334,0.2592611610889435,0.14222611486911774,0.04287572205066681,0.07197296619415283,-0.10894930362701416
0.309558629989624,0.556735098361969,0.18723763525485992,0.050818026065826416,0.05646181106567383,0.1056625247001648
0.14418569207191467,0.48088449239730835,0.4222472608089447,0.10131803900003433,0.021222740411758423,0.20114845037460327
0.006648015230894089,0.16101478040218353,0.6355620622634888,0.12388361990451813,0.00629696249961853,0.1659533977508545
-0.13998904824256897,0.09684918820858002,0.611652672290802,0.06244629621505737,0.02951475977897644,0.18427985906600952
-0.14556638896465302,0.13490228354930878,0.47295764088630676,0.017240121960639954,0.04007863998413086,0.1605743169784546
-0.04792418330907822,0.12413246184587479,0.3510708808898926,0.01677386462688446,0.01646864414215088,0.10371637344360352
-0.039403293281793594,0.03177742660045624,0.3384248912334442,0.06110544502735138,-0.012735486030578613,0.07857155799865723
-0.09773165732622147,-0.07655026018619537,0.37058699131011963,0.06584877520799637,-0.03365170955657959,0.07690280675888062
-0.24455781280994415,-0.15135303139686584,0.35818853974342346,0.06500046700239182,-0.052943259477615356,0.06995165348052979
-0.3157164454460144,-0.12000332027673721,0.243280291557312,0.04004120081663132,-0.06816080212593079,0.00725632905960083
-0.1400832086801529,-0.08335604518651962,0.111994668841362,0.0015173554420471191,-0.07987099885940552,-0.11618679761886597
0.1721172332763672,-0.14706920087337494,-0.026108385995030403,-0.0242755189538002,-0.07784202694892883,-0.2165578007698059
0.2637893855571747,-0.2708713114261627,-0.06943218410015106,0.005179576575756073,-0.0798470675945282,-0.22057348489761353
0.15250171720981598,-0.46624189615249634,-0.08970464766025543,0.05532725155353546,-0.08116394281387329,-0.17729806900024414
0.18718880414962769,-0.5676990151405334,-0.06625287979841232,0.052665360271930695,-0.11297684907913208,-0.18265563249588013
0.16924551129341125,-0.22256378829479218,-0.04669186472892761,-0.01979304850101471,-0.17589089274406433,-0.07521229982376099
-0.18826931715011597,0.12218435853719711,0.11232353746891022,0.02710355818271637,-0.12525373697280884,-0.02871859073638916
-0.43079060316085815,0.04308228939771652,0.218240424990654,0.03411082923412323,-0.06561470031738281,-0.2171018123626709
-0.08604568243026733,-0.09774577617645264,0.03185470029711723,-0.06309302151203156,0.06449344754219055,-0.430591344833374
0.6028618216514587,-0.2832782566547394,-0.3497636020183563,-0.16088642179965973,0.1620570719242096,-0.46445518732070923
0.9309194087982178,-0.27441084384918213,-0.5537294745445251,-0.14894209802150726,0.1797197163105011,-0.24915087223052979
0.7725861668586731,-0.2528195083141327,-0.5170254707336426,-0.06840769946575165,0.10787278413772583,0.09312617778778076
0.29724016785621643,-0.0676908791065216,-0.27204641699790955,0.0029701590538024902,0.0476856529712677,0.3138238191604614
-0.24061907827854156,0.11630980670452118,-0.044752754271030426,0.015015706419944763,0.040467798709869385,0.3604011535644531
-0.49239978194236755,0.17048315703868866,0.1630336046218872,0.029984474182128906,0.07053184509277344,0.2089700698852539
-0.46975427865982056,0.17616547644138336,0.3770783245563507,0.041613489389419556,0.07708609104156494,0.008437395095825195
-0.45428019762039185,0.20668847858905792,0.5465158224105835,0.0661584734916687,0.07821381092071533,-0.0507049560546875
-0.4627479612827301,-0.06353268027305603,0.5625907182693481,0.04926316440105438,0.10474765300750732,-0.08447235822677612
-0.42793747782707214,-0.16518841683864594,0.49236631393432617,0.027481794357299805,0.1218574047088623,-0.05671936273574829
-0.009309694170951843,-0.0410635843873024,0.27923330664634705,-0.007886648178100586,0.1447790265083313,-0.09081053733825684
0.5401404500007629,0.29630208015441895,0.175047367811203,0.013149723410606384,0.1573910415172577,-0.09899616241455078
0.6992917656898499,0.38818129897117615,0.25846967101097107,0.06775370240211487,0.10005968809127808,0.008815526962280273
0.46270450949668884,0.2946329116821289,0.3988651931285858,0.1112028956413269,0.09440839290618896,0.13207322359085083
0.26845383644104004,0.3074244260787964,0.5141478180885315,0.1019228994846344,0.08200222253799438,0.17302930355072021
0.28564223647117615,0.37936148047447205,0.650780975818634,0.0866469144821167,0.08343085646629333,0.0843733549118042
0.33313724398612976,0.4350694715976715,0.7478785514831543,0.0978725254535675,0.08120393753051758,-0.011256635189056396
0.3612746298313141,0.3784947991371155,0.7833542823791504,0.0739230364561081,0.08701711893081665,-0.062458574771881104
0.3463623523712158,0.3629375994205475,0.8170632719993591,0.06885287165641785,0.08905118703842163,-0.06766247749328613
0.3140272796154022,0.2808038890361786,0.8349179029464722,0.05959923565387726,0.07901313900947571,-0.07835787534713745
0.2613075375556946,0.3771750330924988,0.8978003263473511,0.09763097763061523,0.09607303142547607,-0.06408321857452393
0.23721106350421906,0.4699089825153351,0.9842105507850647,0.09949025511741638,0.09461385011672974,-0.051685333251953125
0.253805935382843,0.4637905955314636,1.053274393081665,0.10863764584064484,0.09537380933761597,-0.09134769439697266
0.34910231828689575,0.4347231984138489,0.9937072396278381,0.0996936559677124,0.1060866117477417,-0.1383366584777832
0.5008508563041687,0.43962666392326355,0.8543237447738647,0.052041828632354736,0.06232190132141113,-0.13989591598510742
0.3978079557418823,0.670372724533081,0.8973926305770874,0.010445564985275269,0.04235124588012695,-0.0343928337097168
-0.1866861879825592,0.6653249859809875,1.1326332092285156,0.05938845872879028,0.05875849723815918,-7.998943328857422e-05
-0.7301512360572815,0.641953706741333,1.442287564277649,0.2070326805114746,0.055397093296051025,-0.1317698359489441
-0.5708770155906677,0.6530388593673706,1.6597299575805664,0.2552073895931244,0.06896665692329407,-0.3750419020652771
0.026474060490727425,0.7247441411018372,1.6695643663406372,0.20105469226837158,0.10690748691558838,-0.5011576414108276
0.39311808347702026,0.7562808990478516,1.5985231399536133,0.1671113818883896,0.1614132523536682,-0.39592689275741577
0.4478619396686554,0.6002091765403748,1.6148085594177246,0.19614167511463165,0.1868247389793396,-0.21088182926177979
0.45570385456085205,0.5869128704071045,1.6617496013641357,0.224763423204422,0.18334433436393738,-0.09946465492248535
0.49391359090805054,0.8330997824668884,1.6640430688858032,0.20957960188388824,0.19704651832580566,-0.03524714708328247
0.46659499406814575,1.0643657445907593,1.7767555713653564,0.2161981463432312,0.1958099901676178,0.007738649845123291
0.3026071786880493,1.1457138061523438,2.029247283935547,0.2616828680038452,0.17797121405601501,0.02602553367614746
0.21853893995285034,1.0565956830978394,2.2715725898742676,0.2828370928764343,0.18555322289466858,-0.042888343334198
0.34539565443992615,0.9837376475334167,2.3629066944122314,0.21767601370811462,0.2256058156490326,-0.1297907829284668
0.5112920999526978,0.9417551755905151,2.2406864166259766,0.15449155867099762,0.2630920112133026,-0.14904183149337769
0.5863299369812012,0.9933406114578247,2.220930814743042,0.1444692611694336,0.2540636360645294,-0.10360121726989746
0.42544761300086975,1.0139797925949097,2.2775251865386963,0.18177448213100433,0.2130681574344635,0.0005848407745361328
0.2416290044784546,0.9405545592308044,2.403977870941162,0.23010019958019257,0.19671404361724854,-0.004388332366943359
0.20054149627685547,0.9829714298248291,2.5517921447753906,0.2577390670776367,0.18404388427734375,-0.06454765796661377
0.34957262873649597,1.0817302465438843,2.59611439704895,0.21144917607307434,0.18510198593139648,-0.14499938488006592
0.48598986864089966,1.0786149501800537,2.494516611099243,0.1657095104455948,0.1987629532814026,-0.17494958639144897
0.45241597294807434,0.8967149257659912,2.338428258895874,0.13608890771865845,0.22248584032058716,-0.16367268562316895
0.42548567056655884,0.701167106628418,2.221998929977417,0.1508406400680542,0.19591382145881653,-0.19021117687225342
0.5292503237724304,0.7182310223579407,2.1187491416931152,0.14138484001159668,0.18343937397003174,-0.21055638790130615
0.6341227889060974,0.7544924020767212,2.005340337753296,0.11767807602882385,0.16580206155776978,-0.19224262237548828
0.6917241811752319,1.0871222019195557,1.8639627695083618,0.11281806230545044,0.1669185757637024,-0.10862463712692261
0.8505781292915344,1.523886799812317,1.6826390027999878,0.060632213950157166,0.13621050119400024,-0.06777942180633545
0.9902276396751404,1.7198314666748047,1.6193385124206543,0.06727129220962524,0.1187899112701416,-0.13207578659057617
1.0069606304168701,1.452345609664917,1.6561578512191772,0.11403535306453705,0.1190752387046814,-0.21473079919815063
0.9568963050842285,1.133672833442688,1.6339023113250732,0.09167210757732391,0.11694064736366272,-0.1931580901145935
0.7700890302658081,1.5655354261398315,1.6768091917037964,0.025603875517845154,0.044225096702575684,0.03730630874633789
0.507774829864502,2.140094518661499,1.8070275783538818,0.043666452169418335,-0.007256984710693359,0.11686646938323975
0.305497944355011,1.9503902196884155,1.9852173328399658,0.0755026638507843,0.02298685908317566,-0.07893997430801392
0.4592505991458893,1.1988154649734497,1.9777055978775024,0.04357151687145233,0.0671502947807312,-0.34031248092651367
0.7697437405586243,0.7324416041374207,1.6746762990951538,-0.030509188771247864,0.18660277128219604,-0.3619476556777954
0.796802818775177,0.8521952033042908,1.572887897491455,-0.016066089272499084,0.19096237421035767,-0.13619136810302734
0.5555330514907837,1.0909987688064575,1.7016769647598267,0.043770596385002136,0.10767638683319092,0.09108054637908936
0.09007016569375992,1.145354151725769,1.852341890335083,0.08200152218341827,0.06982213258743286,0.21050643920898438
-0.3468649983406067,1.1270769834518433,1.9276138544082642,0.02709619700908661,0.050668537616729736,0.1727299690246582
-0.5650826692581177,0.9277468919754028,1.9560123682022095,0.02121920883655548,0.06911531090736389,0.025773346424102783
-0.521106481552124,0.6441914439201355,1.855575442314148,0.049367547035217285,0.11834695935249329,-0.17841875553131104
-0.16338400542736053,0.6061484813690186,1.636864423751831,0.04581345617771149,0.13949847221374512,-0.29362696409225464
0.37638288736343384,0.6856357455253601,1.5375332832336426,0.038081973791122437,0.10761305689811707,-0.310779333114624
0.6443089842796326,0.8333088159561157,1.476043701171875,0.02597157657146454,0.07319179177284241,-0.19915246963500977
0.6524693965911865,0.9237982630729675,1.4412143230438232,0.03150995075702667,0.05770745873451233,-0.04570895433425903
0.6515459418296814,0.9261949062347412,1.4575313329696655,0.03584538400173187,0.04752504825592041,0.006981492042541504
0.5570042729377747,0.8885329961776733,1.419048547744751,-0.0051491111516952515,0.060527950525283813,0.05341076850891113
0.4349859058856964,0.8400145173072815,1.482814073562622,0.015331000089645386,0.051673561334609985,0.08831393718719482
0.3871888518333435,0.776212215423584,1.625814437866211,0.08466799557209015,0.027648508548736572,0.056296706199645996
0.4611912965774536,0.6473895311355591,1.762351393699646,0.10099813342094421,0.03233647346496582,-0.0072293877601623535
0.3395223021507263,0.5064215660095215,1.819323182106018,0.05308961868286133,0.05885809659957886,0.03196060657501221
-0.013141658157110214,0.4590209424495697,1.6629581451416016,-0.008903980255126953,0.10807633399963379,0.13908988237380981
-0.17991600930690765,0.5213629603385925,1.4974783658981323,-0.054581329226493835,0.1133718490600586,0.10800683498382568
0.01542850024998188,0.5610974431037903,1.3796272277832031,-0.035038337111473083,0.05627542734146118,-0.03567928075790405
0.23643949627876282,0.6499272584915161,1.3422319889068604,-0.030193239450454712,0.026898890733718872,-0.09279894828796387
0.205668643116951,0.7267882823944092,1.3070108890533447,-0.004573196172714233,-0.005873382091522217,-0.035512447357177734
0.16186918318271637,0.817487359046936,1.1172380447387695,-0.06334158778190613,0.021113276481628418,-0.004165768623352051
0.21527662873268127,0.9114952683448792,0.8849875330924988,-0.1075066328048706,0.04201149940490723,-0.03401714563369751
0.17402580380439758,0.9147570133209229,0.7526143789291382,-0.07335615158081055,0.0269910991191864,-0.0514146089553833
0.04602722078561783,0.8368697762489319,0.7562649250030518,0.026003986597061157,0.0010361671447753906,-0.06681662797927856
0.06557707488536835,0.954963743686676,0.7326311469078064,0.044761672616004944,-0.0058831870555877686,-0.0874972939491272
0.3454713523387909,1.1781792640686035,0.778103232383728,0.03835423290729523,-0.04731827974319458,-0.15278756618499756
0.30149781703948975,1.4260820150375366,1.002107858657837,0.07304608821868896,-0.02419191598892212,-0.05502164363861084
-0.30530330538749695,1.278340458869934,1.1251087188720703,0.13763993978500366,0.04262208938598633,0.04001510143280029
-0.8319779634475708,0.8829815983772278,1.099276065826416,0.14303280413150787,0.1445218324661255,-0.07104194164276123
-0.6314900517463684,0.5077130198478699,1.0587477684020996,0.15773329138755798,0.1481863260269165,-0.26780492067337036
-0.06079788878560066,0.7070943713188171,1.1001334190368652,0.16874267160892487,0.1083965003490448,-0.28910982608795166
0.41617006063461304,0.9891248941421509,1.228751301765442,0.19885794818401337,0.04156523942947388,-0.1669633388519287
0.4402725398540497,1.1509835720062256,1.358620524406433,0.15995457768440247,0.04766961932182312,-0.003215610980987549
-0.012659658677875996,1.1820271015167236,1.3735617399215698,0.11164916306734085,0.07686853408813477,0.15923893451690674
-0.4766227900981903,1.0846787691116333,1.3493549823760986,0.11860275268554688,0.11421102285385132,0.1475711464881897
-0.5033846497535706,0.8478108048439026,1.4191317558288574,0.17002853751182556,0.09749972820281982,-0.034596920013427734
-0.1672888994216919,0.8026173114776611,1.4690232276916504,0.16568805277347565,0.07047480344772339,-0.1466212272644043
0.31944185495376587,0.933853268623352,1.528679370880127,0.13212530314922333,0.06827551126480103,-0.1476721167564392
0.5156898498535156,0.9915876984596252,1.5885040760040283,0.07821319997310638,0.08118528127670288,-0.010350167751312256
0.33553043007850647,0.8383243680000305,1.543705940246582,-0.04236666113138199,0.0789923369884491,0.14895659685134888
0.03075629472732544,0.7282415628433228,1.4115809202194214,-0.13947756588459015,0.06550651788711548,0.24190670251846313
-0.07029260694980621,0.5922693014144897,1.2160621881484985,-0.16376109421253204,0.046133190393447876,0.1752822995185852
-0.06639483571052551,0.5179591774940491,1.0664476156234741,-0.09402797371149063,0.013625085353851318,0.08238482475280762
0.05277854949235916,0.5355413556098938,1.047223687171936,-0.016310125589370728,-0.019651472568511963,0.03930562734603882
0.11158035695552826,0.42724859714508057,1.165219783782959,0.06288518011569977,-0.03695675730705261,0.011963963508605957
-0.07782845944166183,0.2638041079044342,1.1853243112564087,0.05544804036617279,-0.032501280307769775,0.05066967010498047
-0.19285991787910461,0.1282675862312317,1.0240178108215332,-0.02531171590089798,0.0043437182903289795,0.018680453300476074
-0.08093840628862381,-0.039390187710523605,0.7688630223274231,-0.08353690803050995,0.013139486312866211,-0.06520408391952515
0.20855386555194855,0.0931854322552681,0.5500020980834961,-0.08756710588932037,0.01348617672920227,-0.09124517440795898
0.47558364272117615,0.31563064455986023,0.5552681088447571,0.012703672051429749,-0.035836994647979736,-0.07775551080703735
0.49507391452789307,0.3392413556575775,0.6165049076080322,0.06129246950149536,-0.08035910129547119,-0.0017055273056030273
0.2845546007156372,0.315002977848053,0.506066620349884,-0.04333072900772095,-0.06851187348365784,0.08601951599121094
0.1434171348810196,0.21058008074760437,0.2645002007484436,-0.1407853215932846,-0.05376860499382019,0.08232659101486206
0.13355977833271027,-0.02877286821603775,0.024779753759503365,-0.16213607788085938,-0.05361515283584595,0.006418406963348389
0.1952720284461975,-0.2667746841907501,-0.22508500516414642,-0.18211884796619415,-0.06844973564147949,-0.03774148225784302
0.04340953379869461,-0.3311743438243866,-0.38927727937698364,-0.20508205890655518,-0.1516258716583252,0.06068539619445801
-0.4849579334259033,-0.28489357233047485,-0.19485114514827728,-0.12476232647895813,-0.18358075618743896,0.13401371240615845
-1.0108948945999146,-0.42418792843818665,-0.048976656049489975,-0.06547120213508606,-0.18874096870422363,0.032242774963378906
-1.005110263824463,-0.6163291931152344,-0.08912531286478043,-0.06945228576660156,-0.08358451724052429,-0.2763634920120239
-0.4755227863788605,-0.6802998781204224,-0.3408164978027344,-0.13205306231975555,-0.011288851499557495,-0.4802895188331604
0.28372257947921753,-0.5873568654060364,-0.726233720779419,-0.21356716752052307,0.05217549204826355,-0.46879202127456665
0.6634169816970825,-0.5578249096870422,-0.8922410011291504,-0.1702873557806015,0.04747346043586731,-0.23055881261825562
0.5183100700378418,-0.5306930541992188,-0.85976243019104,-0.07562980055809021,0.011845290660858154,0.06248217821121216
0.056377120316028595,-0.3817155957221985,-0.6683195233345032,-0.022466212511062622,-0.0377679169178009,0.2722293734550476
-0.4643118977546692,-0.274265319108963,-0.4655255973339081,0.0061948299407958984,-0.05110082030296326,0.29050213098526
-0.49523594975471497,-0.29928019642829895,-0.39098605513572693,-0.0002748221158981323,-0.011247485876083374,0.057322561740875244
-0.21297763288021088,-0.42019954323768616,-0.36099371314048767,-0.01141919195652008,0.032238543033599854,-0.1303163766860962
0.039164550602436066,-0.41183608770370483,-0.44031843543052673,-0.023408502340316772,0.07318413257598877,-0.14507240056991577
0.2060842216014862,-0.3029624819755554,-0.5300683975219727,-0.05757729709148407,0.0779123306274414,-0.0256272554397583
0.22905293107032776,-0.30069294571876526,-0.5355592966079712,-0.0483781099319458,0.05899292230606079,0.08618718385696411
0.12718237936496735,-0.32389432191848755,-0.47238174080848694,-0.011024966835975647,0.02513030171394348,0.168038010597229
-0.033380474895238876,-0.3975355625152588,-0.40053895115852356,0.0015242397785186768,0.007336348295211792,0.2067950963973999
-0.04666323959827423,-0.4231545925140381,-0.3422817885875702,0.009615540504455566,-0.014464199542999268,0.16101670265197754
0.06183093041181564,-0.2613336443901062,-0.3492697477340698,-0.02779334783554077,-0.0031539201736450195,0.15107762813568115
0.1566140502691269,-0.12524205446243286,-0.32515835762023926,-0.020742163062095642,-0.007102489471435547,0.13184475898742676
0.14579133689403534,-0.03230808302760124,-0.26902616024017334,-0.005877703428268433,-0.011895477771759033,0.13324153423309326
0.05460347235202789,0.012814472429454327,-0.2010975182056427,-0.0022938549518585205,-0.008316993713378906,0.1170574426651001
0.014147505164146423,-0.12515567243099213,-0.15137308835983276,-0.005820021033287048,0.0020096302032470703,0.037204086780548096
0.02275819331407547,-0.09379543364048004,-0.16907848417758942,-0.018483564257621765,0.017206162214279175,-0.014623045921325684
0.11256659030914307,0.05790381878614426,-0.25402721762657166,-0.041164249181747437,0.011540710926055908,-0.06082206964492798
0.31207898259162903,0.15230150520801544,-0.24076074361801147,-0.0014728307723999023,-0.011635124683380127,-0.11784934997558594
0.329203724861145,0.11654802411794662,-0.1263662725687027,0.0849233865737915,-0.03456917405128479,-0.10162878036499023
0.2186519354581833,0.10749626159667969,-0.02118503674864769,0.11478881537914276,-0.06150168180465698,-0.03733867406845093
0.16245026886463165,0.07495700567960739,0.0022542139049619436,0.101498082280159,-0.07038652896881104,-0.035944342613220215
0.1901068538427353,-0.03522679582238197,0.0065424637869000435,0.06858557462692261,-0.11890667676925659,-0.06316936016082764
0.09215597063302994,0.3331790566444397,0.06468022614717484,0.028831973671913147,-0.1323826014995575,0.051615893840789795
-0.23999442160129547,0.9777014255523682,0.3719375729560852,0.1263822615146637,-0.12201714515686035,0.13177359104156494
-0.5440688133239746,1.3379478454589844,0.8981478810310364,0.32537996768951416,-0.12316185235977173,-0.03980696201324463
-0.6723685264587402,1.0300554037094116,1.2290198802947998,0.3875971734523773,-0.044093161821365356,-0.2601175308227539
-0.3887085020542145,0.5218967795372009,0.9950687885284424,0.17201781272888184,0.08375823497772217,-0.36521220207214355
-0.08840885758399963,0.37436750531196594,0.6495828032493591,-0.015128284692764282,0.16572076082229614,-0.2412918210029602
0.06743990629911423,0.3748936057090759,0.49966830015182495,-0.017324864864349365,0.14744806289672852,-0.08263874053955078
0.07221604138612747,0.4054073393344879,0.5222982168197632,0.03261537849903107,0.12107193470001221,0.017728149890899658
-0.10382497310638428,0.3414355218410492,0.6429674029350281,0.08891932666301727,0.11348021030426025,0.05706888437271118
-0.3414686322212219,0.4785953760147095,0.7760430574417114,0.13252396881580353,0.13643622398376465,0.08974617719650269
-0.23740042746067047,0.6388475894927979,0.8024110198020935,0.11028994619846344,0.16972976922988892,-0.0162772536277771
0.07623487710952759,0.5357440114021301,0.6782393455505371,0.023450098931789398,0.18321493268013,-0.10091656446456909
0.13995243608951569,0.3745100498199463,0.5563271045684814,-0.01926083117723465,0.17154577374458313,-0.029104769229888916
-0.006138996686786413,0.24302619695663452,0.5026701092720032,0.00040790438652038574,0.11281782388687134,0.10294604301452637
-0.18082550168037415,0.17754986882209778,0.5879531502723694,0.05261201411485672,0.07531657814979553,0.18428754806518555
-0.28176599740982056,0.1437668353319168,0.774749755859375,0.09561735391616821,0.011989861726760864,0.20124667882919312
-0.37300071120262146,0.2276068478822708,0.8793089389801025,0.051359742879867554,-0.008838653564453125,0.22727227210998535
-0.5047153830528259,0.2531537115573883,0.8644527792930603,-0.04062314331531525,-0.019836068153381348,0.22572773694992065
-0.5995666980743408,0.08637547492980957,0.8017866611480713,-0.09068596363067627,-0.017853379249572754,0.13805216550827026
-0.6482257843017578,-0.06419382989406586,0.7171956300735474,-0.0863611027598381,-0.04238903522491455,0.06210964918136597
-0.5811054706573486,-0.14240464568138123,0.600837230682373,-0.10310723632574081,-0.08258113265037537,0.01641017198562622
-0.45594221353530884,-0.11402323096990585,0.4352090358734131,-0.12297722697257996,-0.08914971351623535,-0.022248804569244385
-0.2684975862503052,-0.09515469521284103,0.2873111069202423,-0.12859994173049927,-0.10621589422225952,-0.08513450622558594
-0.04804329574108124,-0.10567761957645416,0.04138600826263428,-0.17090755701065063,-0.11063915491104126,-0.13846659660339355
0.2055867314338684,-0.11409658193588257,-0.22303719818592072,-0.2156810760498047,-0.10376301407814026,-0.17700481414794922
0.4108154773712158,-0.10526345670223236,-0.39446723461151123,-0.19303672015666962,-0.12595340609550476,-0.1951630711555481
0.5224159955978394,-0.14888320863246918,-0.4411885738372803,-0.11471036076545715,-0.11869600415229797,-0.21425265073776245
0.6782751679420471,-0.2421264946460724,-0.42688268423080444,-0.03650263696908951,-0.10504665970802307,-0.2489202618598938
0.8117164969444275,-0.45410996675491333,-0.4443955421447754,-0.02748855948448181,-0.060683250427246094,-0.2478243112564087
0.7181387543678284,-0.6752903461456299,-0.5089476108551025,-0.06500604748725891,-0.042176246643066406,-0.11397266387939453
0.33445850014686584,-0.670006275177002,-0.6132687330245972,-0.13636942207813263,-0.10419684648513794,0.08158880472183228
-0.19318118691444397,-0.5172346830368042,-0.46510446071624756,-0.10637904703617096,-0.11494868993759155,0.1211090087890625
-0.34724733233451843,-0.7059826254844666,-0.34773024916648865,-0.018464237451553345,-0.11724075675010681,-0.1185307502746582
-0.02473967894911766,-0.7457184791564941,-0.4117714464664459,-0.03358609974384308,-0.03507119417190552,-0.3133436441421509
0.4436908960342407,-0.6317883133888245,-0.6348269581794739,-0.1046871542930603,0.044944316148757935,-0.3252789378166199
0.6408496499061584,-0.4924602210521698,-0.8261046409606934,-0.1066635400056839,0.07305258512496948,-0.10953539609909058
0.5417264699935913,-0.43060770630836487,-0.8656430840492249,-0.06705863773822784,0.044447511434555054,0.10017597675323486
0.31066131591796875,-0.36745449900627136,-0.8016781806945801,-0.05059900879859924,0.0029349327087402344,0.21540331840515137
-0.023194540292024612,-0.32169803977012634,-0.6870972514152527,-0.031737953424453735,-0.01848742365837097,0.25519317388534546
-0.2171056568622589,-0.22115164995193481,-0.6068814992904663,-0.021982848644256592,0.007880091667175293,0.1842852234840393
-0.17473973333835602,-0.1780247688293457,-0.5180386900901794,-0.005752846598625183,0.03527650237083435,0.02066051959991455
0.019357334822416306,-0.26568639278411865,-0.5110753774642944,-0.012843102216720581,0.06449422240257263,-0.11493372917175293
0.24973464012145996,-0.31989312171936035,-0.593505859375,-0.043872103095054626,0.09506645798683167,-0.12613368034362793
0.35535764694213867,-0.25134021043777466,-0.6562402844429016,-0.04276350140571594,0.08328735828399658,0.00543898344039917
0.29404252767562866,-0.18552793562412262,-0.6900557279586792,-0.022069483995437622,0.06786459684371948,0.12309247255325317
0.2625366449356079,-0.18275633454322815,-0.6815371513366699,-0.01057519018650055,0.04739868640899658,0.147868812084198
0.35670509934425354,-0.17364388704299927,-0.61446213722229,0.015200808644294739,0.031844109296798706,0.08459234237670898
0.5128596425056458,-0.14260569214820862,-0.5266825556755066,0.04120248556137085,0.022352665662765503,0.055641353130340576
0.6290102601051331,-0.08183112740516663,-0.44970783591270447,0.05475994944572449,0.02373853325843811,0.07088810205459595
0.5947761535644531,0.024884648621082306,-0.3643660247325897,0.06125733256340027,0.016314029693603516,0.1456139087677002
0.4590032398700714,0.09680160135030746,-0.20599354803562164,0.09519672393798828,-0.0016113519668579102,0.1756746768951416
0.337089866399765,0.09416373819112778,0.02955772541463375,0.12979461252689362,-0.029637575149536133,0.1293402910232544
0.2390781044960022,0.05160195007920265,0.26547884941101074,0.1333077996969223,-0.03522372245788574,0.038268446922302246
0.11419422924518585,0.06438912451267242,0.30244380235671997,0.0388161838054657,0.01355290412902832,-0.015008389949798584
0.10128337889909744,0.028115715831518173,0.2641337811946869,0.016756311058998108,0.03350776433944702,-0.05006992816925049
0.026603709906339645,0.07739809155464172,0.2870502471923828,0.0319189727306366,0.026920795440673828,0.02510988712310791
-0.1648080199956894,0.1762647032737732,0.33753472566604614,0.03505676984786987,0.02049088478088379,0.05368542671203613
-0.30645257234573364,0.2579304575920105,0.3767791986465454,0.01717059314250946,0.0092659592628479,0.018271803855895996
-0.36056968569755554,0.35423266887664795,0.3184184730052948,-0.022862613201141357,-0.02950453758239746,-0.010100722312927246
-0.45336031913757324,0.5377572178840637,0.34286361932754517,-0.0034638941287994385,-0.03434428572654724,0.019486427307128906
-0.8434480428695679,0.8321136832237244,0.4582992196083069,0.08227680623531342,0.05053490400314331,-0.028383731842041016
-1.2455110549926758,0.9115983843803406,0.5053947567939758,0.12977629899978638,0.13574549555778503,-0.33071839809417725
-0.8040554523468018,0.6708918213844299,0.4039517641067505,0.08187216520309448,0.1459619402885437,-0.6267127990722656
0.15578009188175201,0.5607563853263855,0.1859244853258133,0.007971309125423431,0.15689817070960999,-0.4990984797477722
0.5039023160934448,0.5812364220619202,-0.00481751561164856,0.034276083111763,0.1279394030570984,-0.1192789077758789
0.32119932770729065,0.4444124400615692,0.048187438398599625,0.12659145891666412,0.06395506858825684,0.11082339286804199
0.04447266831994057,0.3998219966888428,0.3063961863517761,0.1684870421886444,0.027847737073898315,0.19496190547943115
-0.24941544234752655,0.5257138013839722,0.536005437374115,0.15853799879550934,0.05438816547393799,0.22517800331115723
-0.4438835382461548,0.6380630731582642,0.7241069078445435,0.12472748756408691,0.07043826580047607,0.11972713470458984
-0.42911484837532043,0.5563443899154663,0.7855224013328552,0.05580069124698639,0.1023823618888855,0.03615838289260864
-0.34650811553001404,0.46546998620033264,0.7532386779785156,0.02119097113609314,0.09507572650909424,0.04364389181137085
-0.3172212243080139,0.41797831654548645,0.8004841804504395,0.014026224613189697,0.04687860608100891,0.051378488540649414
-0.27914825081825256,0.3167244493961334,0.8652376532554626,0.0144214928150177,0.03414270281791687,0.027213752269744873
-0.18442468345165253,0.2446538656949997,0.8914240598678589,-0.01230292022228241,0.03151869773864746,0.03851628303527832
-0.13360358774662018,0.221123605966568,0.8679921627044678,-0.028855912387371063,0.027546823024749756,0.110073983669281
-0.22584518790245056,0.16617843508720398,0.8645150065422058,-0.02589234709739685,-0.0025974512100219727,0.15446913242340088
-0.27075204253196716,0.11443180590867996,0.8167206645011902,-0.05562940239906311,-0.009147971868515015,0.1632285714149475
-0.25183168053627014,0.09715206176042557,0.7336035370826721,-0.04734267294406891,-0.014399975538253784,0.1714460849761963
-0.25989070534706116,0.08285703510046005,0.7419074773788452,0.0061702728271484375,-0.03195786476135254,0.18500423431396484
-0.3238297700881958,0.08992458134889603,0.7177783846855164,-7.567554712295532e-05,-0.05561336874961853,0.1823146939277649
-0.4347282946109772,0.17242765426635742,0.6138195395469666,-0.041847795248031616,-0.0640985369682312,0.16261518001556396
-0.5808438658714294,0.15977202355861664,0.4673212170600891,-0.05971572548151016,-0.07774785161018372,0.04594844579696655
-0.5796563625335693,0.10307299345731735,0.32602089643478394,-0.05322632938623428,-0.08455127477645874,-0.12431168556213379
-0.29410141706466675,0.02219969406723976,0.18020965158939362,-0.08465501666069031,-0.12429606914520264,-0.25578612089157104
0.0776703804731369,-0.09521755576133728,0.08294123411178589,-0.09570726007223129,-0.14725452661514282,-0.25452011823654175
0.21152181923389435,-0.12722323834896088,-0.04623132944107056,-0.10076100379228592,-0.13853874802589417,-0.15943819284439087
0.15886110067367554,-0.15188215672969818,-0.14152196049690247,-0.07076230645179749,-0.1354089379310608,-0.14996027946472168
0.2204096019268036,-0.4109799861907959,-0.21003426611423492,-0.06988497823476791,-0.13307896256446838,-0.16075599193572998
0.18697234988212585,-0.4814024865627289,-0.21996358036994934,-0.11023282259702682,-0.21641090512275696,0.013638496398925781
-0.09980005025863647,-0.03900151699781418,-0.11441941559314728,-0.10624536871910095,-0.2118605673313141,0.06436246633529663
-0.3823799788951874,0.0910915806889534,-0.04005792737007141,-0.1026870384812355,-0.12213212251663208,-0.23153787851333618
-0.26231151819229126,-0.25865089893341064,-0.17623528838157654,-0.15806278586387634,-0.011136412620544434,-0.4344024062156677
0.18315516412258148,-0.507323145866394,-0.4713275134563446,-0.19272282719612122,0.04718175530433655,-0.42560726404190063
0.6377263069152832,-0.46273568272590637,-0.64003586769104,-0.1468045711517334,0.03490787744522095,-0.18188005685806274
0.6788263320922852,-0.2873004674911499,-0.6993132829666138,-0.12265253067016602,0.02722269296646118,0.07169914245605469
0.48758697509765625,-0.20981888473033905,-0.6679810285568237,-0.11893214285373688,0.01591464877128601,0.18996411561965942
0.13430647552013397,-0.3152869939804077,-0.5937206745147705,-0.12551380693912506,0.02137315273284912,0.2266988754272461
-0.270434707403183,-0.2283778190612793,-0.5422549247741699,-0.11940395832061768,0.03158998489379883,0.1898118257522583
-0.3809131681919098,-0.0658416599035263,-0.4818967580795288,-0.09594504535198212,0.056073784828186035,-0.004780828952789307
-0.18573108315467834,-0.10243590176105499,-0.45073267817497253,-0.09812526404857635,0.08034199476242065,-0.1524866819381714
0.05132731795310974,-0.22637426853179932,-0.49384990334510803,-0.09306729584932327,0.08507505059242249,-0.11723935604095459
0.08976971358060837,-0.32957908511161804,-0.5686225295066833,-0.08440256863832474,0.07288339734077454,-0.02365124225616455
0.1559557020664215,-0.5156210660934448,-0.6645715236663818,-0.05592942237854004,0.07218751311302185,0.02497786283493042
0.24159538745880127,-0.4251518249511719,-0.6743402481079102,-0.01735420525074005,0.03947225213050842,0.13289260864257812
0.3041093051433563,-0.26622524857521057,-0.5951778888702393,0.018558472394943237,0.013148009777069092,0.16874569654464722
0.3108377456665039,-0.22794915735721588,-0.46714088320732117,0.023737147450447083,0.00042313337326049805,0.1761050820350647
0.2541690170764923,-0.19881942868232727,-0.4172455966472626,-0.02438896894454956,0.02473592758178711,0.1773831844329834
0.215705007314682,-0.2189815789461136,-0.41773515939712524,-0.03642807900905609,0.01494210958480835,0.10461550951004028
0.3359719514846802,-0.195330411195755,-0.3725987672805786,-0.011540010571479797,0.008889853954315186,0.049645185470581055
0.41631627082824707,-0.05053432285785675,-0.3538088798522949,-0.03552420437335968,0.00945928692817688,0.056349992752075195
0.40796247124671936,0.06674158573150635,-0.29978281259536743,-0.015242204070091248,-0.0006044507026672363,0.052761971950531006
0.2853204607963562,0.07825065404176712,-0.20801207423210144,0.00020165741443634033,-0.007413268089294434,0.015304625034332275
0.14824233949184418,0.06699051707983017,-0.11743686348199844,0.00610341876745224,0.005482107400894165,-0.059507906436920166
0.021983124315738678,0.012444389052689075,-0.07650747150182724,-0.006348952651023865,0.030755162239074707,-0.10483628511428833
-0.014353378675878048,-0.013637399300932884,-0.1334119290113449,-0.028410419821739197,0.052416861057281494,-0.11525577306747437
0.05141202360391617,0.08887186646461487,-0.17595745623111725,0.007039874792098999,0.05091303586959839,-0.06492996215820312
0.06675408035516739,0.172007754445076,-0.2094711810350418,0.024020090699195862,0.009982019662857056,0.005206048488616943
0.0019198013469576836,0.3147866725921631,-0.1371242254972458,0.03934942185878754,-0.044050395488739014,0.12406754493713379
-0.26360219717025757,0.6934452056884766,-0.060397665947675705,0.0531001091003418,0.010265827178955078,0.12401634454727173
-0.40454187989234924,0.9099928140640259,-0.010095739737153053,0.09698553383350372,0.0477672815322876,-0.12868618965148926
-0.2675599455833435,0.8039538264274597,0.017009561881422997,0.06191422790288925,0.09410765767097473,-0.3025384545326233
0.05513463541865349,0.9010416865348816,-0.20625565946102142,0.024833232164382935,0.13322487473487854,-0.3119826912879944
0.2432263344526291,0.7954943776130676,-0.26935014128685,0.1110205203294754,0.09678491950035095,-0.18452543020248413
0.06073739007115364,0.5434697270393372,-0.14895881712436676,0.17312075197696686,0.05692082643508911,-0.0062531232833862305
-0.239364355802536,0.25272348523139954,0.08738884329795837,0.19814662635326385,0.03450697660446167,0.06588327884674072
-0.37453344464302063,0.23905356228351593,0.26735907793045044,0.15660808980464935,0.0314674973487854,0.05415832996368408
-0.3624798357486725,0.28846362233161926,0.34310877323150635,0.12174773216247559,0.040094077587127686,0.025513112545013428
-0.41394901275634766,0.3023444414138794,0.38195696473121643,0.10975007712841034,0.016516447067260742,0.016099154949188232
-0.37445560097694397,0.2595125734806061,0.47646772861480713,0.10314367711544037,-0.02035588026046753,-0.052153170108795166
-0.187332883477211,0.23145687580108643,0.5741611123085022,0.07811972498893738,-0.029787421226501465,-0.07578915357589722
-0.05810776725411415,0.17963367700576782,0.6542548537254333,0.06606131792068481,-0.0394328236579895,-0.046333909034729004
0.10749781131744385,0.22218948602676392,0.6647182703018188,0.02242077887058258,-0.021002769470214844,0.002803206443786621
0.2730269432067871,0.25410351157188416,0.6310593485832214,0.0003869086503982544,-0.013747632503509521,0.04008752107620239
0.34348174929618835,0.13016419112682343,0.6326161026954651,0.0032010823488235474,-0.00834745168685913,0.09204608201980591
0.27960145473480225,-0.011595318093895912,0.6037225723266602,0.005401195026934147,-0.021676570177078247,0.1422751545906067
0.2760305404663086,-0.12455905973911285,0.5783146619796753,0.00237824022769928,-0.027944564819335938,0.12274044752120972
0.3836642801761627,-0.10833439230918884,0.4716940224170685,-0.04114687442779541,-0.02530580759048462,0.14092904329299927
0.4024275541305542,0.01951875537633896,0.25950199365615845,-0.07960011065006256,-0.03516089916229248,0.20456403493881226
0.3439011573791504,0.13257887959480286,0.10870224982500076,-0.047152504324913025,-0.061926186084747314,0.18346023559570312
0.23455560207366943,-0.021249588578939438,0.16276922821998596,0.024551182985305786,-0.08722978830337524,0.04709756374359131
0.05621344968676567,-0.2840292453765869,0.21485555171966553,0.02391524612903595,-0.08782094717025757,-0.07306945323944092
0.10808280110359192,-0.2954571843147278,0.1526186168193817,-0.027699217200279236,-0.09518396854400635,-0.163224995136261
0.4783373773097992,-0.12751610577106476,0.11764886230230331,-0.050345152616500854,-0.10727551579475403,-0.1879633665084839
0.6765021681785583,-0.10068248212337494,0.0966334417462349,-0.0413806289434433,-0.07215622067451477,-0.10296404361724854
0.41495460271835327,-0.1747434139251709,0.10645228624343872,0.007128581404685974,-0.041116178035736084,-0.035859107971191406
0.15394265949726105,-0.3120327293872833,0.1904008537530899,0.04763064160943031,-0.03493115305900574,-0.1056787371635437
0.1959005892276764,-0.7573416233062744,0.3401317000389099,0.019117996096611023,-0.06828850507736206,-0.2189195156097412
0.42072996497154236,-0.7928522825241089,0.2909252643585205,-0.131544828414917,-0.029844313859939575,-0.08618336915969849
0.34546735882759094,-0.23538975417613983,0.11177413910627365,-0.15676386654376984,0.016951143741607666,0.013496577739715576
0.036194827407598495,-0.2769802212715149,0.0686667263507843,-0.11829227209091187,0.004592269659042358,-0.08227920532226562
-0.08686846494674683,-0.5589483976364136,0.0609557144343853,-0.12184138596057892,0.04719960689544678,-0.19857871532440186
-0.08875522762537003,-0.6541037559509277,-0.08341283351182938,-0.15810048580169678,0.1182403564453125,-0.18003016710281372
0.154280424118042,-0.5567338466644287,-0.3229803442955017,-0.17125429213047028,0.15594714879989624,-0.1996179223060608
0.4873209297657013,-0.49104857444763184,-0.5368068814277649,-0.13541071116924286,0.14194738864898682,-0.060172200202941895
0.5221688151359558,-0.3567727506160736,-0.6305161118507385,-0.11457677185535431,0.10628354549407959,0.1511988639831543
0.1909257024526596,-0.3519689440727234,-0.5441245436668396,-0.040750980377197266,0.07439541816711426,0.28785473108291626
-0.3958985209465027,-0.26343414187431335,-0.24369266629219055,0.007788270711898804,0.04579734802246094,0.23556482791900635
-0.6631083488464355,-0.27953076362609863,-0.060711197555065155,0.0046754926443099976,0.12125033140182495,0.011211812496185303
-0.6459496021270752,-0.24699626863002777,-0.07830961048603058,-0.09220242500305176,0.1602897047996521,-0.1320095658302307
-0.32897236943244934,-0.3369588851928711,-0.34155088663101196,-0.14053432643413544,0.21157562732696533,-0.1892215609550476
0.06367463618516922,-0.3115428686141968,-0.547439455986023,-0.09747494757175446,0.16631564497947693,-0.045051634311676025
0.13302946090698242,-0.14021697640419006,-0.5836373567581177,-0.027697697281837463,0.11269822716712952,0.1304614543914795
0.04968441277742386,-0.06246788427233696,-0.4928666651248932,-0.0016894638538360596,0.08075344562530518,0.20415782928466797
-0.12115718424320221,-0.0905592069029808,-0.3722914755344391,0.010267019271850586,0.058454930782318115,0.16851329803466797
-0.12956050038337708,-0.20693226158618927,-0.29214781522750854,-0.018209874629974365,0.05755549669265747,0.07619184255599976
-0.03273829445242882,-0.06172049790620804,-0.3575880527496338,-0.07076093554496765,0.052435874938964844,0.07256221771240234
0.10034561157226562,-0.007411003578454256,-0.3545077443122864,-0.025411084294319153,0.02762240171432495,0.06787168979644775
0.042439937591552734,-0.022840777412056923,-0.24930016696453094,0.010542348027229309,-0.0055359601974487305,0.13717681169509888
-0.10233217477798462,0.05892770737409592,-0.0954369455575943,0.032207414507865906,-0.023877859115600586,0.12334960699081421
-0.15736697614192963,0.05014503374695778,0.09418634325265884,0.005110457539558411,-0.03241300582885742,0.03718221187591553
-0.13529261946678162,0.14861150085926056,0.10140558332204819,-0.06389358639717102,0.001792997121810913,0.00205308198928833
-0.1218222826719284,0.23016919195652008,-0.03600579500198364,-0.11071658134460449,0.0013503432273864746,-0.028151750564575195
-0.1800084412097931,0.20735010504722595,-0.14170315861701965,-0.0731097012758255,-0.008835643529891968,-0.0329626202583313
-0.2607443332672119,0.1264650821685791,-0.1147838830947876,-0.00887349247932434,-0.02744424343109131,-0.1094735860824585
-0.2315925657749176,-0.10329766571521759,0.015909817069768906,0.022785887122154236,-0.057135701179504395,-0.15752601623535156
-0.1867215782403946,-0.16829587519168854,-0.006172293797135353,-0.05387130379676819,-0.023811817169189453,-0.11209666728973389
-0.11957398056983948,0.0672825276851654,-0.1659744381904602,-0.08542808890342712,-0.035654664039611816,-0.08494651317596436
0.14711466431617737,0.22376805543899536,-0.3362381160259247,-0.07642930746078491,-0.10224828124046326,-0.10948854684829712
0.20148110389709473,0.36265912652015686,-0.18033961951732635,0.014413431286811829,-0.10842785239219666,0.016623198986053467
-0.2638135850429535,0.5164803862571716,0.197775736451149,0.10391591489315033,-0.07426729798316956,0.06865662336349487
-0.892021656036377,0.5206020474433899,0.47558507323265076,0.07031325995922089,0.008423328399658203,-0.04370617866516113
-1.0520668029785156,0.08738954365253448,0.5581676363945007,0.030031993985176086,0.04765203595161438,-0.27072954177856445
-0.8020262718200684,-0.2553059160709381,0.42306432127952576,-0.0431002676486969,0.054682254791259766,-0.31709641218185425
-0.36026206612586975,-0.058521512895822525,0.1703876405954361,-0.00992032140493393,0.052033841609954834,-0.2637860178947449
0.2858743965625763,0.2608466148376465,0.060058217495679855,0.05680834501981735,0.019181638956069946,-0.2094089388847351
0.6495007276535034,0.2712832987308502,0.1291629672050476,0.09474049508571625,0.030741333961486816,-0.028451383113861084
0.41345494985580444,0.16450980305671692,0.19069227576255798,0.07639870047569275,0.07343530654907227,0.1758948564529419
-0.11629249900579453,0.07282803952693939,0.28233835101127625,0.07512727379798889,0.09415829181671143,0.223044753074646
-0.46494486927986145,0.16290363669395447,0.3406354784965515,0.07590171694755554,0.09526282548904419,0.051788389682769775
-0.3527989685535431,0.17385923862457275,0.36923152208328247,0.030821800231933594,0.06963866949081421,-0.12751364707946777
-0.007316227070987225,0.085752472281456,0.24740397930145264,-0.03390693664550781,0.06937366724014282,-0.15516364574432373
0.22614756226539612,0.03864680975675583,0.12562713027000427,-0.04856205731630325,0.04031053185462952,-0.0487942099571228
0.22917701303958893,0.04020191729068756,0.11920509487390518,-0.03763590753078461,0.012965083122253418,0.05695599317550659
0.1607249230146408,-0.07404661923646927,0.1020687073469162,-0.052038758993148804,0.02483484148979187,0.06095921993255615
0.13967657089233398,-0.11575650423765182,0.033248357474803925,-0.10642737150192261,0.038997769355773926,0.08292996883392334
0.22790949046611786,0.012893453240394592,-0.15475308895111084,-0.14015181362628937,0.05908215045928955,0.08102983236312866
0.3364233374595642,-0.10365571081638336,-0.20994530618190765,-0.10604944825172424,0.046272873878479004,0.03244578838348389
0.323471337556839,-0.35695165395736694,-0.3115486204624176,-0.14012321829795837,0.0598907470703125,0.05833703279495239
0.12566259503364563,-0.332522451877594,-0.5321401357650757,-0.20273995399475098,0.06870761513710022,0.13986927270889282
-0.06872687488794327,-0.3293478190898895,-0.7475146055221558,-0.22362665832042694,0.06543469429016113,0.11625152826309204
-0.17663905024528503,-0.4702114164829254,-0.9482166171073914,-0.20888881385326385,0.06873747706413269,0.061488330364227295
-0.18548883497714996,-0.5769391059875488,-1.122694492340088,-0.1965409368276596,0.05845412611961365,0.02082878351211548
-0.11899802088737488,-0.6820546984672546,-1.262223243713379,-0.17566156387329102,0.03926590085029602,-0.028798222541809082
0.04005829244852066,-0.6855021119117737,-1.3915094137191772,-0.1761355698108673,0.027857303619384766,-0.0211031436920166
0.08218907564878464,-0.6265869140625,-1.5049636363983154,-0.14152103662490845,0.018943339586257935,0.022272944450378418
-0.07337852567434311,-0.6627626419067383,-1.525981068611145,-0.1031671091914177,0.003325551748275757,0.035276949405670166
-0.3060150146484375,-0.8475748300552368,-1.455322027206421,-0.09610125422477722,0.0005324184894561768,-0.027376174926757812
-0.39327049255371094,-0.9684527516365051,-1.4453309774398804,-0.12617072463035583,0.03191030025482178,-0.1371314525604248
-0.2325056940317154,-1.0741345882415771,-1.5629395246505737,-0.16270163655281067,0.10480913519859314,-0.23709231615066528
0.06399925798177719,-1.1912188529968262,-1.8525872230529785,-0.20977173745632172,0.1759079098701477,-0.24197900295257568
0.2561623752117157,-1.2446744441986084,-2.1574761867523193,-0.2402636557817459,0.1759062111377716,-0.11372971534729004
0.2516874670982361,-1.2035069465637207,-2.3532216548919678,-0.25242945551872253,0.124504953622818,0.04797768592834473
-0.10765095800161362,-1.0746784210205078,-2.361274003982544,-0.21358051896095276,0.09824991226196289,0.1324419379234314
-0.7208306789398193,-1.073614239692688,-2.2330482006073,-0.14225083589553833,0.1544213593006134,0.05428898334503174
-1.0886558294296265,-1.094234824180603,-2.2118122577667236,-0.12519297003746033,0.22373804450035095,-0.18786364793777466
-0.7776262760162354,-1.177116870880127,-2.3288280963897705,-0.18011106550693512,0.21622022986412048,-0.39480143785476685
-0.19525180757045746,-1.177005410194397,-2.459699869155884,-0.19882284104824066,0.2088179588317871,-0.3234509825706482
0.042418114840984344,-1.0054749250411987,-2.4867866039276123,-0.19638320803642273,0.14833992719650269,-0.08783149719238281
-0.21370798349380493,-0.914961040019989,-2.3278772830963135,-0.16174191236495972,0.1091318130493164,0.03029632568359375
-0.6227603554725647,-0.9998526573181152,-2.132572889328003,-0.16903837025165558,0.11631610989570618,-0.039699673652648926
-0.7403552532196045,-1.020406723022461,-2.017677068710327,-0.16286340355873108,0.18786734342575073,-0.2045738697052002
-0.4748041331768036,-1.1164315938949585,-2.023831844329834,-0.18969176709651947,0.2335263192653656,-0.32822662591934204
-0.07225757837295532,-1.2907263040542603,-2.1863675117492676,-0.23813888430595398,0.2922246754169464,-0.25992822647094727
0.0823923796415329,-1.3099180459976196,-2.37123966217041,-0.23230400681495667,0.29379013180732727,-0.04775899648666382
0.02825162187218666,-1.281196117401123,-2.3963518142700195,-0.1606566160917282,0.2594265043735504,0.06214189529418945
-0.029071075841784477,-1.1456955671310425,-2.329737663269043,-0.1550428867340088,0.22405016422271729,0.10712975263595581
-0.06164216250181198,-1.0895090103149414,-2.3731112480163574,-0.21567709743976593,0.2218914031982422,0.08814072608947754
-0.044285934418439865,-1.1328130960464478,-2.384437084197998,-0.19995152950286865,0.19089877605438232,0.04031670093536377
-0.11623970419168472,-1.1859155893325806,-2.315359592437744,-0.17460590600967407,0.16179868578910828,0.06374025344848633
-0.3339889347553253,-1.0828957557678223,-2.247476577758789,-0.1776122897863388,0.14193150401115417,0.057974398136138916
-0.45945391058921814,-1.0458641052246094,-2.144758462905884,-0.1764146387577057,0.1253117024898529,-0.035384297370910645
-0.4447544813156128,-1.0473074913024902,-2.094967842102051,-0.1948491334915161,0.13901042938232422,-0.13508790731430054
-0.3545547425746918,-1.0292260646820068,-2.132425308227539,-0.21999529004096985,0.1706310212612152,-0.19363194704055786
-0.1967950463294983,-1.0121755599975586,-2.223742961883545,-0.2278415858745575,0.1918467879295349,-0.20999664068222046
-0.03275848925113678,-1.028393268585205,-2.3461556434631348,-0.2361459732055664,0.21461400389671326,-0.21775299310684204
0.04238962009549141,-1.0641227960586548,-2.4549851417541504,-0.23852306604385376,0.2205989956855774,-0.16093122959136963
0.009765411727130413,-1.009059190750122,-2.538490056991577,-0.21500104665756226,0.22818714380264282,-0.055213212966918945
-0.0022372829262167215,-0.9703266620635986,-2.503082275390625,-0.1539461761713028,0.2102205753326416,-0.018185079097747803
0.014269539155066013,-1.0137748718261719,-2.395155668258667,-0.09656962007284164,0.17472651600837708,-0.04430091381072998
0.023180443793535233,-0.9731937050819397,-2.412130117416382,-0.09959505498409271,0.17781612277030945,-0.06463724374771118
-0.02808196283876896,-0.9157499074935913,-2.4172019958496094,-0.1314271241426468,0.15697792172431946,-0.021379947662353516
-0.20763546228408813,-0.903896152973175,-2.2605860233306885,-0.09243310987949371,0.11904716491699219,0.02645742893218994
-0.6298986077308655,-0.7901209592819214,-1.9662086963653564,0.02004486694931984,0.1161203384399414,0.036199092864990234
-0.659248948097229,-0.8889312148094177,-1.8161360025405884,0.03597085550427437,0.10308724641799927,-0.1597137451171875
-0.14777876436710358,-1.0770469903945923,-1.9603900909423828,-0.05837348848581314,0.16464099287986755,-0.3823639750480652
0.3483103811740875,-1.0671941041946411,-2.139284372329712,-0.09527751803398132,0.19956541061401367,-0.3467254042625427
0.3538696765899658,-1.0379985570907593,-2.0408754348754883,-0.003319980576634407,0.16512420773506165,-0.08959251642227173
-0.0297642033547163,-1.1386545896530151,-1.7843743562698364,0.08966995775699615,0.11354324221611023,0.10306233167648315
-0.39292365312576294,-1.1305748224258423,-1.649421215057373,0.05019998550415039,0.09611853957176208,0.14976561069488525
-0.43887627124786377,-0.9512370228767395,-1.6648153066635132,-0.04034760594367981,0.09808719158172607,0.0382305383682251
-0.3055044710636139,-0.8532772660255432,-1.753825306892395,-0.09064342081546783,0.09764820337295532,-0.11429309844970703
-0.22436091303825378,-0.8680799603462219,-1.7746202945709229,-0.044055819511413574,0.11638599634170532,-0.21390217542648315
-0.1308669149875641,-1.0277072191238403,-1.7577968835830688,0.01374950259923935,0.11801257729530334,-0.26058316230773926
-0.03294926509261131,-1.064208745956421,-1.7739176750183105,-0.002952657639980316,0.11652058362960815,-0.19666576385498047
-0.14052216708660126,-1.0467567443847656,-1.7960238456726074,-0.018091104924678802,0.12158346176147461,-0.04002171754837036
-0.3388028144836426,-1.1111643314361572,-1.8257968425750732,-0.00756855309009552,0.11506009101867676,0.0641012191772461
-0.35888782143592834,-1.1602387428283691,-1.8836203813552856,-0.02174968644976616,0.11051616072654724,0.03946632146835327
-0.23640280961990356,-1.1418019533157349,-1.9108818769454956,-0.0036599934101104736,0.10489386320114136,0.019472837448120117
-0.17884115874767303,-1.0739480257034302,-1.8727929592132568,0.016188520938158035,0.08123841881752014,0.026533126831054688
-0.19135144352912903,-1.0762537717819214,-1.8278117179870605,0.0304928719997406,0.061634063720703125,0.04435861110687256
-0.19917422533035278,-0.9991695880889893,-1.8133881092071533,-0.003936678171157837,0.04431912302970886,0.058144986629486084
-0.23735283315181732,-0.9671196341514587,-1.8244259357452393,-0.01895242929458618,0.029327392578125,0.052317798137664795
-0.2673386037349701,-0.9918853044509888,-1.7887003421783447,0.009584769606590271,-0.0006721615791320801,0.022166073322296143
-0.2147061824798584,-0.9754678010940552,-1.7665560245513916,0.03304779529571533,-0.00461965799331665,-0.02968651056289673
-0.17181262373924255,-0.9957467913627625,-1.685286521911621,0.07254639267921448,-0.002681910991668701,-0.06532931327819824
-0.06516452133655548,-0.9515973329544067,-1.6020073890686035,0.08386702835559845,0.004157364368438721,-0.0816202163696289
0.02490382082760334,-0.921292781829834,-1.4799604415893555,0.11041893810033798,0.0041318535804748535,-0.06621092557907104
-0.08505959063768387,-0.8809309601783752,-1.3788501024246216,0.10612954199314117,0.012949466705322266,0.008321404457092285
-0.17264603078365326,-0.9075227975845337,-1.2944693565368652,0.10058248788118362,0.0024988949298858643,0.019606173038482666
-0.17056098580360413,-0.976042628288269,-1.2254217863082886,0.06914437562227249,0.009052902460098267,-0.059116482734680176
-0.15716376900672913,-0.9757255911827087,-1.1743327379226685,0.043115004897117615,-0.0078352689743042,-0.07290011644363403
0.04491761699318886,-1.012226939201355,-1.1715528964996338,-0.0026487112045288086,0.009579122066497803,-0.11578309535980225
0.16255061328411102,-0.9743014574050903,-1.2448557615280151,-0.050876691937446594,0.02806064486503601,-0.061177194118499756
0.06648106127977371,-0.8905453085899353,-1.2863965034484863,-0.10566825419664383,-0.006297856569290161,0.044505178928375244
-0.16085141897201538,-0.9442163705825806,-1.2122052907943726,-0.10512417554855347,-0.02348986268043518,0.07136142253875732
-0.6110976934432983,-1.1452621221542358,-1.0040453672409058,-0.018935203552246094,-0.051214128732681274,0.04206746816635132
-0.79508376121521,-1.1208561658859253,-0.9251327514648438,-0.0002945065498352051,-0.03931546211242676,-0.052569687366485596
-0.5750722885131836,-0.9443360567092896,-0.9298264980316162,-0.037949010729789734,-0.0067653656005859375,-0.15782952308654785
-0.25739970803260803,-0.9295908808708191,-0.9978420734405518,-0.042865872383117676,0.027236372232437134,-0.1923941969871521
-0.03512425348162651,-0.9850008487701416,-1.0907691717147827,-0.014378622174263,0.04490894079208374,-0.15126121044158936
0.05961290001869202,-0.8894620537757874,-1.0549019575119019,-0.02805885672569275,-0.013187497854232788,-0.016756892204284668
0.020964207127690315,-0.6914169788360596,-0.9842801690101624,-0.048276543617248535,-0.05075398087501526,0.09216511249542236
-0.11918357759714127,-0.6351093053817749,-0.8367505073547363,-0.02073565125465393,-0.036835670471191406,0.07763117551803589
-0.24404916167259216,-0.6843646168708801,-0.721001923084259,0.02990032732486725,-0.038897812366485596,-0.008318305015563965
-0.22588467597961426,-0.6084885597229004,-0.6409422755241394,0.048775702714920044,-0.039531052112579346,-0.05296570062637329
-0.005425963085144758,-0.5532086491584778,-0.5136224627494812,0.09694936871528625,-0.051692426204681396,-0.10693758726119995
0.16831018030643463,-0.5260334014892578,-0.4811130464076996,0.07572507858276367,-0.03264331817626953,-0.0899733304977417
0.2668718993663788,-0.5733720660209656,-0.5039846897125244,0.034056156873703,-0.01207318902015686,-0.03681647777557373
0.28292667865753174,-0.5105544924736023,-0.5159416794776917,-0.0051656365394592285,-0.025750279426574707,0.0538402795791626
0.24883751571178436,-0.49517643451690674,-0.4619220495223999,-0.004235133528709412,-0.06433600187301636,0.12220239639282227
0.27618706226348877,-0.348847359418869,-0.26195740699768066,0.027326419949531555,-0.0874316394329071,0.11465191841125488
0.3157151937484741,-0.34885507822036743,-0.048959337174892426,0.04470738768577576,-0.092190682888031,0.09442710876464844
0.28258922696113586,-0.34802573919296265,0.02147749252617359,0.03495991230010986,-0.05615413188934326,0.07432293891906738
0.23923367261886597,-0.3282928764820099,0.05302458256483078,-0.00865095853805542,-0.0697832703590393,0.07203906774520874
0.3835846483707428,-0.28975236415863037,0.1046949252486229,-0.048768818378448486,-0.07862964272499084,0.011744201183319092
0.4621693193912506,-0.19373974204063416,0.18054889142513275,-0.019020408391952515,-0.06916719675064087,-0.018895745277404785
0.3434602916240692,-0.3036080300807953,0.24844492971897125,0.06493246555328369,-0.07501184940338135,-0.05025136470794678
0.35488438606262207,-0.2785758376121521,0.40873652696609497,0.10596773028373718,-0.10526412725448608,-0.03869229555130005
0.4401353895664215,-0.22483988106250763,0.7176245450973511,0.11745050549507141,-0.149592787027359,-0.016752958297729492
0.4520335793495178,-0.23012298345565796,0.945909857749939,0.09648823738098145,-0.1132543683052063,-0.03526383638381958
0.4580799639225006,-0.2697547972202301,0.8411166071891785,-0.015058755874633789,-0.0011075735092163086,-0.046427011489868164
0.46168527007102966,-0.32616615295410156,0.6545928120613098,-0.03224092721939087,0.044402360916137695,-0.057536959648132324
0.635545551776886,-0.14219729602336884,0.5338748693466187,0.002123892307281494,0.04419136047363281,-0.06410515308380127
0.775628387928009,0.08910010755062103,0.5128438472747803,0.02688431739807129,0.017608642578125,-0.002539992332458496
0.6363449096679688,0.2938394248485565,0.5456632971763611,0.029532164335250854,0.03600788116455078,0.05895727872848511
0.11067883670330048,0.32132992148399353,0.3940953016281128,-0.034344226121902466,0.06515520811080933,0.1154664158821106
-0.3314802646636963,0.40913355350494385,0.12496448308229446,-0.06855571269989014,0.07116037607192993,0.060478925704956055
-0.26895207166671753,0.6578526496887207,0.03683961555361748,0.01132616400718689,0.05018293857574463,-0.12602633237838745
0.026051364839076996,0.9056099057197571,0.11634119600057602,0.12203115224838257,0.040221452713012695,-0.290973961353302
0.2276269793510437,0.726662278175354,0.23227204382419586,0.18167877197265625,0.048997342586517334,-0.34118372201919556
0.31311509013175964,0.46253204345703125,0.2114488035440445,0.13607701659202576,0.08808618783950806,-0.2925373911857605
0.3478666841983795,0.4585254490375519,0.10318240523338318,0.07815524935722351,0.12118089199066162,-0.1562126874923706
0.42347511649131775,0.4744083881378174,0.03641977533698082,0.0850924551486969,0.12885266542434692,-0.0658947229385376
0.4174567759037018,0.35051432251930237,0.1012667566537857,0.1565316617488861,0.10208255052566528,-0.013296842575073242
0.32940560579299927,0.39157551527023315,0.24275489151477814,0.19625920057296753,0.07385706901550293,0.04343259334564209
0.17471720278263092,0.5407987833023071,0.45311135053634644,0.1782466471195221,0.03582620620727539,0.10949528217315674
0.03414398804306984,0.5245015621185303,0.5018109679222107,0.11669322848320007,0.0227203369140625,0.0985763669013977
0.0652782991528511,0.4363076984882355,0.44501248002052307,0.07535609602928162,0.05734062194824219,0.004927337169647217
0.19556251168251038,0.3397124111652374,0.4276055693626404,0.04591768980026245,0.03316390514373779,-0.02411431074142456
0.24323049187660217,0.23106715083122253,0.4659425914287567,0.06932598352432251,0.02448570728302002,0.010158300399780273
0.15636871755123138,0.2431306540966034,0.5209940075874329,0.09824809432029724,0.022055447101593018,0.09876751899719238
0.04587810859084129,0.23561549186706543,0.5253777503967285,0.06547558307647705,0.029787719249725342,0.11812096834182739
-0.026076020672917366,0.1590694934129715,0.4790170192718506,0.03623461723327637,0.03485804796218872,0.07274776697158813
0.03965196758508682,0.013976827263832092,0.3318074941635132,-0.013697624206542969,0.03831374645233154,-0.006167769432067871
0.21563886106014252,-0.10814612358808517,0.1220390722155571,-0.040694355964660645,0.04823148250579834,-0.08159172534942627
0.20714442431926727,-0.06270262598991394,0.03894887492060661,-0.006206154823303223,0.016163766384124756,-0.005991101264953613
0.22968058288097382,-0.033703677356243134,0.009044175036251545,0.011915445327758789,-0.004624485969543457,0.03056490421295166
0.21674761176109314,-0.053704679012298584,0.02051880955696106,0.019987791776657104,-0.0460168719291687,0.01967829465866089
0.13112647831439972,-0.11500713974237442,-0.05538586527109146,-0.012863993644714355,-0.06820303201675415,0.03251218795776367
0.13829642534255981,-0.22972188889980316,-0.06059565767645836,0.0231894850730896,-0.08199882507324219,-0.029749274253845215
0.2680289149284363,-0.23758159577846527,-0.03779376670718193,0.05801516771316528,-0.08942228555679321,-0.09810495376586914
0.3682405948638916,-0.2111935168504715,-0.010230187326669693,0.06415331363677979,-0.06716084480285645,-0.1004752516746521
0.33593690395355225,-0.3349282741546631,0.07834579050540924,0.07618877291679382,-0.06561243534088135,-0.0732114315032959
0.1842857301235199,-0.48017340898513794,0.07001491636037827,0.057548463344573975,-0.04114866256713867,-0.035532355308532715
0.07095859944820404,-0.563303530216217,-0.14571720361709595,-0.042855530977249146,-0.013579368591308594,0.0074928998947143555
-0.08889538049697876,-0.521587610244751,-0.3983856439590454,-0.14134034514427185,-0.044601619243621826,0.07055246829986572
-0.3716837167739868,-0.3177265524864197,-0.41448134183883667,-0.16625052690505981,-0.0966845154762268,0.12143951654434204
-0.5972244739532471,-0.46357840299606323,-0.3212495446205139,-0.11373329162597656,-0.10772854089736938,0.006022036075592041
-0.792222797870636,-0.5775632262229919,-0.3308199346065521,-0.005483776330947876,-0.032529473304748535,-0.1818983554840088
-0.641981840133667,-0.4448758363723755,-0.34676316380500793,0.08150506019592285,-0.009135544300079346,-0.2981269359588623
0.09555474668741226,-0.2739185392856598,-0.4024372696876526,0.04494929313659668,0.006709575653076172,-0.4004971981048584
0.6966039538383484,-0.13108496367931366,-0.455910325050354,0.01488882303237915,0.0557820200920105,-0.26617932319641113
0.7527130842208862,-0.19994424283504486,-0.4292067587375641,0.00918656587600708,0.06403905153274536,0.02674722671508789
0.41120919585227966,-0.11331053823232651,-0.349010169506073,-0.007070064544677734,0.07054543495178223,0.2802361249923706
-0.05822242796421051,0.14438432455062866,-0.17285987734794617,-0.008196204900741577,0.05121725797653198,0.3796563148498535
-0.46377164125442505,0.3030892014503479,-0.11192590743303299,-0.009852468967437744,0.09442746639251709,0.31899505853652954
-0.5677598118782043,0.14490388333797455,-0.09412481635808945,0.01640009880065918,0.13179391622543335,0.11726319789886475
-0.30927562713623047,0.12786047160625458,-0.18759140372276306,-0.00935259461402893,0.1410202980041504,-0.02740722894668579
-0.04873243719339371,0.20632922649383545,-0.31395313143730164,-0.032876014709472656,0.1394277811050415,-0.033883094787597656
0.036776963621377945,0.1444038450717926,-0.3969652056694031,-0.008357524871826172,0.11210346221923828,0.02336275577545166
-0.011240523308515549,0.13736100494861603,-0.36763015389442444,0.027017176151275635,0.07358366250991821,0.12299138307571411
-0.09362737089395523,0.1776711344718933,-0.23023363947868347,0.061509937047958374,0.032617151737213135,0.18505579233169556
-0.19456809759140015,0.24026048183441162,-0.06090853363275528,0.09965702891349792,0.01360023021697998,0.19084161520004272
-0.1778765320777893,0.2155066728591919,-0.042843788862228394,0.06154349446296692,0.024596989154815674,0.11545819044113159
-0.040646396577358246,0.2940886318683624,-0.07471499592065811,0.020019322633743286,0.020311951637268066,0.05833679437637329
-0.014169685542583466,0.32186800241470337,-0.018649250268936157,0.030139893293380737,-0.012703001499176025,0.066933274269104
-0.09701362997293472,0.3608688414096832,0.07423660159111023,0.057891517877578735,-0.04258698225021362,0.08577066659927368
-0.168283611536026,0.45920222997665405,0.1277846246957779,0.04070731997489929,-0.04453909397125244,0.08910030126571655
-0.1631292849779129,0.4080195426940918,0.16803930699825287,0.026247844099998474,-0.05879336595535278,0.02288532257080078
-0.15662087500095367,0.40401700139045715,0.16544808447360992,0.003135591745376587,-0.050636112689971924,-0.01003950834274292
-0.1279403418302536,0.45239749550819397,0.084684357047081,-0.04493892192840576,-0.0631411075592041,-0.04039543867111206
-0.05180845409631729,0.4916771948337555,-0.13556164503097534,-0.10087528824806213,-0.03841102123260498,-0.08880239725112915
-0.03015792742371559,0.5215271711349487,-0.20712898671627045,-0.051885440945625305,-0.05356025695800781,-0.0923694372177124
-0.11811034381389618,0.5843424797058105,-0.14780667424201965,0.0317811518907547,-0.09998929500579834,-0.059729158878326416
-0.1732463538646698,0.6184942722320557,0.014616323634982109,0.05370381474494934,-0.1512477993965149,-0.024677932262420654
-0.35983675718307495,0.81214439868927,0.2517916262149811,0.06093946099281311,-0.1239655613899231,0.03705388307571411
-0.659123420715332,0.9400258660316467,0.22269189357757568,0.015392035245895386,-0.021076321601867676,0.009945273399353027
-0.8802387118339539,1.0480811595916748,0.11022885143756866,-0.021799147129058838,0.061436235904693604,-0.10636234283447266
-0.726484477519989,0.8370482921600342,-0.011365759186446667,0.007010340690612793,0.07041060924530029,-0.30207645893096924
-0.24188511073589325,0.6849845051765442,-0.05862707272171974,0.06899070739746094,0.07075101137161255,-0.41789597272872925
0.16356703639030457,0.7349655032157898,0.04847157001495361,0.11310255527496338,0.04145622253417969,-0.3269972801208496
0.2233791947364807,0.6436499357223511,0.1696731150150299,0.11256188154220581,0.018782436847686768,-0.12541532516479492
0.03363071754574776,0.5640065670013428,0.2605573832988739,0.07904456555843353,0.05511564016342163,0.04100137948989868
-0.2247409075498581,0.6082056164741516,0.3336378335952759,0.04870904982089996,0.056205153465270996,0.12636268138885498
-0.32748299837112427,0.6292927861213684,0.37427768111228943,0.0493459552526474,0.06788647174835205,0.08328723907470703
-0.25449442863464355,0.5101054906845093,0.44953638315200806,0.04885739088058472,0.06629973649978638,-0.01422351598739624
-0.1442205309867859,0.3605656325817108,0.5419037938117981,0.07679924368858337,0.045623719692230225,-0.06289124488830566
-0.09190335124731064,0.3598397970199585,0.5957469344139099,0.06741799414157867,0.03872695565223694,0.0007060766220092773
-0.09384728223085403,0.33879899978637695,0.6012609004974365,0.04060983657836914,0.02943652868270874,0.062272846698760986
-0.038007013499736786,0.2242865413427353,0.6012183427810669,0.01302405446767807,0.04029151797294617,0.058699071407318115
0.018529515713453293,0.16185393929481506,0.5944377779960632,0.0063169002532958984,0.044006526470184326,0.09502977132797241
0.01928899995982647,0.2288166880607605,0.5745849609375,-0.006832383573055267,0.028950512409210205,0.1634809970855713
