rotation_x,rotation_y,rotation_z,acceleration_x,acceleration_y,acceleration_z
-0.6761056780815125,-0.10901287943124771,-0.27383533120155334,0.05578477680683136,0.04306325316429138,0.1088305115699768
-0.7491259574890137,-0.35479775071144104,-0.1176455095410347,0.040276870131492615,0.03375351428985596,0.08004170656204224
-0.3906424343585968,-0.24549908936023712,-0.07093233615159988,-0.01754036545753479,0.03184965252876282,0.014170646667480469
-0.005237056408077478,-0.24685274064540863,-0.11790718883275986,0.014886260032653809,-0.006857037544250488,0.03337007761001587
-0.029708843678236008,-0.4523233473300934,-0.13775093853473663,0.027917802333831787,-0.0390775203704834,0.12126672267913818
-0.3675321936607361,-0.7704458832740784,-0.22660961747169495,0.0251019224524498,-0.07411313056945801,0.13269150257110596
-0.5744262337684631,-0.6781412959098816,-0.4442720413208008,-0.00981256365776062,-0.08373090624809265,0.03051304817199707
-0.5111958980560303,-0.3510292172431946,-0.5077133178710938,0.005912363529205322,-0.06710225343704224,-0.032621145248413086
-0.2857997417449951,-0.1980334222316742,-0.3664742112159729,0.025432124733924866,-0.02727636694908142,-0.020767807960510254
-0.013463294133543968,-0.23153582215309143,-0.24149943888187408,0.04514480382204056,-0.038064390420913696,-0.015925288200378418
0.08469986915588379,-0.30238786339759827,-0.22339071333408356,0.0501493439078331,-0.04793509840965271,-0.0020578503608703613
-0.022427670657634735,-0.42864468693733215,-0.16644075512886047,0.07465165108442307,-0.058953940868377686,0.00211489200592041
-0.08302240073680878,-0.3763401508331299,-0.05727899447083473,0.045834980905056,-0.0644952654838562,-0.04763984680175781
0.0017618864076212049,-0.05246979370713234,0.021111179143190384,-0.008425146341323853,-0.0753374695777893,-0.0802077054977417
0.07002665102481842,0.08487291634082794,0.11855947226285934,-0.003180190920829773,-0.10053116083145142,-0.0054776668548583984
0.07179146260023117,-0.14334185421466827,0.14540070295333862,-0.01042892038822174,-0.11514720320701599,0.06255245208740234
0.01516637485474348,-0.3884541988372803,0.08759939670562744,-0.04942193627357483,-0.15168192982673645,0.03900337219238281
0.043917689472436905,-0.423324853181839,-0.09377904236316681,-0.06289978325366974,-0.16435885429382324,0.030096471309661865
-0.11951742321252823,-0.6374446153640747,-0.4431455731391907,-0.08690516650676727,-0.07963606715202332,0.05350232124328613
-0.4289637506008148,-0.7308959364891052,-0.6405118107795715,-0.0542123019695282,0.00925341248512268,-0.003461480140686035
-0.5560234785079956,-0.4041277766227722,-0.5759931206703186,-0.013477250933647156,0.07300162315368652,-0.08886003494262695
-0.3922653794288635,-0.02068079449236393,-0.16965310275554657,0.01394827663898468,0.09394389390945435,-0.0922195315361023
0.01962914504110813,0.02357769012451172,0.0269224364310503,-0.028789639472961426,0.048138588666915894,-0.04118514060974121
0.2560005784034729,-0.25508028268814087,-0.18357139825820923,-0.05113157629966736,0.023284584283828735,0.020923256874084473
0.06330254673957825,-0.26449355483055115,-0.25547733902931213,-0.06065376102924347,0.059635549783706665,0.06584739685058594
-0.26732826232910156,-0.15508081018924713,-0.1865261048078537,-0.03777459263801575,0.04772061109542847,0.0807303786277771
-0.3799147605895996,0.0026333206333220005,-0.26163890957832336,-0.03821665048599243,0.00876164436340332,0.046918630599975586
-0.290082722902298,0.15718749165534973,-0.32963794469833374,0.0036974847316741943,0.018502503633499146,0.06521618366241455
-0.17784075438976288,0.07476402819156647,-0.05771680921316147,0.0590125173330307,0.016373932361602783,0.09865462779998779
-0.025030644610524178,0.07473813742399216,0.13618138432502747,0.018213137984275818,-0.0639691948890686,0.08168309926986694
-0.042739227414131165,0.06412485241889954,0.07332352548837662,-0.034604206681251526,-0.12893947958946228,0.08441144227981567
-0.14621739089488983,-0.09451498836278915,0.02479136735200882,-0.03229494392871857,-0.15915510058403015,0.040755629539489746
-0.03934122994542122,0.040226440876722336,-0.026992192491889,-0.03103916347026825,-0.13128820061683655,-0.04766273498535156
0.1005031019449234,0.19781285524368286,0.1341410130262375,0.0265587717294693,-0.08549574017524719,-0.03709298372268677
0.1384243369102478,0.10565456748008728,0.32044804096221924,0.047294750809669495,-0.08265024423599243,-0.0043509602546691895
0.20687539875507355,0.019054846838116646,0.36663928627967834,0.022117599844932556,-0.077084481716156,-0.0641714334487915
0.2513236999511719,0.06516365706920624,0.3962484300136566,-0.011800825595855713,-0.03135722875595093,-0.0937354564666748
0.1805139183998108,0.1580534428358078,0.4554188549518585,-0.020412340760231018,-0.009085416793823242,-0.08780378103256226
0.14827804267406464,0.38193410634994507,0.5547686219215393,0.03206010162830353,-0.03376421332359314,-0.05060935020446777
-0.01414637453854084,0.04176660627126694,0.5554807186126709,-0.001699552871286869,-0.035940319299697876,0.022744715213775635
-0.29986807703971863,-0.2861277163028717,0.35795730352401733,-0.050107598304748535,-0.060794293880462646,-0.08516830205917358
-0.29086577892303467,-0.02771926298737526,0.2787739634513855,-0.0247592031955719,-0.01080051064491272,-0.16472172737121582
0.01813151314854622,0.47515037655830383,0.5506898760795593,0.033594027161598206,0.06765437126159668,-0.09758734703063965
0.30922386050224304,0.30044054985046387,0.7540585398674011,0.06471872329711914,0.05237862467765808,0.008998870849609375
0.5086290836334229,0.0967535451054573,0.6971032619476318,0.016752004623413086,0.032399654388427734,0.027086973190307617
0.49662405252456665,0.14365820586681366,0.595914363861084,0.011556744575500488,0.030527323484420776,0.0764843225479126
0.1905825138092041,-0.03451002389192581,0.4153955578804016,-0.017816483974456787,0.02494111657142639,0.11903905868530273
-0.29477667808532715,-0.36867818236351013,0.05535554885864258,-0.03217287361621857,0.02503606677055359,0.05792200565338135
-0.414861798286438,-0.04692691192030907,0.004422017838805914,-0.011591598391532898,0.05873161554336548,-0.07740163803100586
-0.07072405517101288,0.5173835754394531,0.2062307894229889,0.020118817687034607,0.10321015119552612,-0.05729597806930542
0.27034661173820496,0.39747756719589233,0.34488430619239807,0.0404343456029892,0.0758562982082367,0.06000041961669922
0.4532678723335266,-0.0029586085584014654,0.39843255281448364,0.039000749588012695,0.03790009021759033,0.10529124736785889
0.4915572702884674,-0.1216358095407486,0.36310428380966187,-0.025498390197753906,0.015604108572006226,0.08923578262329102
0.40585780143737793,0.003960845060646534,0.17594680190086365,-0.10530795156955719,-0.03152894973754883,0.05579245090484619
0.22505547106266022,0.0006073955446481705,-0.1524355709552765,-0.06506691873073578,-0.056427955627441406,0.06748729944229126
0.09512210637331009,-0.19020171463489532,-0.3097757399082184,-0.022542325779795647,-0.02455410361289978,0.04833793640136719
0.020287005230784416,-0.2946797311306,-0.3674883544445038,-0.014019474387168884,0.007881402969360352,-0.011356890201568604
-0.08993268758058548,-0.22126510739326477,-0.5148108601570129,-0.03702767193317413,0.016908586025238037,-0.08056116104125977
-0.23108839988708496,-0.06360571086406708,-0.5329794883728027,-0.0044051408767700195,0.027338474988937378,-0.09638887643814087
-0.22374828159809113,0.16754832863807678,-0.42134422063827515,0.02067914605140686,0.0001513063907623291,-0.06293630599975586
-0.3639081120491028,-0.23123188316822052,-0.5863204598426819,0.0044413963332772255,-0.017112165689468384,-0.006677508354187012
-0.6449304819107056,-0.47052663564682007,-0.6873926520347595,0.029731139540672302,0.0011796355247497559,-0.07538646459579468
-0.6476153135299683,-0.2285488396883011,-0.49859949946403503,0.06922832131385803,0.03330090641975403,-0.14350742101669312
-0.26239609718322754,0.06152394413948059,-0.32709455490112305,-0.02555939555168152,0.05450999736785889,-0.19375640153884888
0.31182268261909485,0.23668742179870605,-0.25762033462524414,0.01184910535812378,0.028690189123153687,-0.14832168817520142
0.7093735933303833,0.26870328187942505,-0.11207567900419235,-0.01467043161392212,0.06921932101249695,-0.007571876049041748
0.727998673915863,0.11109005659818649,-0.0963955819606781,-0.06830428540706635,0.04365509748458862,0.08160257339477539
0.3987584114074707,-0.06808912009000778,-0.3666425943374634,-0.14222633838653564,0.030683457851409912,0.11314547061920166
0.017274275422096252,0.11557856947183609,-0.6038309335708618,-0.14235682785511017,0.05366453528404236,0.12199544906616211
-0.14987778663635254,0.40213820338249207,-0.628993034362793,-0.07046478986740112,0.07036978006362915,0.1732192039489746
-0.22592470049858093,0.35443007946014404,-0.5633124709129333,-0.028507456183433533,0.04047909379005432,0.2181621789932251
-0.2468774914741516,-0.07232383638620377,-0.4264509379863739,0.008873015642166138,-0.0035668611526489258,0.19435596466064453
-0.18709613382816315,-0.21921001374721527,-0.3511233329772949,-0.0603080689907074,-0.0570986270904541,0.04888486862182617
-0.15790526568889618,-0.026437833905220032,-0.4073888063430786,-0.08751723170280457,-0.08618414402008057,-0.053276240825653076
-0.10343819111585617,0.11823202669620514,-0.24202993512153625,0.0012031644582748413,-0.06645458936691284,-0.04494011402130127
0.09408023953437805,0.12741774320602417,0.03853617608547211,0.03363415598869324,-0.09333449602127075,-0.05814826488494873
0.24147929251194,0.10755863785743713,0.031765446066856384,-0.02204050123691559,-0.12773370742797852,-0.04652225971221924
0.15647906064987183,-0.0451740026473999,0.04758686572313309,0.0008302181959152222,-0.1217181384563446,-0.03822624683380127
0.17341937124729156,-0.015173433348536491,0.10169847309589386,-0.023043744266033173,-0.060160666704177856,-0.11593186855316162
0.2064368575811386,0.26041895151138306,0.20455533266067505,-0.024682164192199707,-0.025529563426971436,-0.14552748203277588
0.2169491946697235,0.38127705454826355,0.2880389094352722,0.008725941181182861,-0.042937785387039185,-0.04020988941192627
0.06809261441230774,-0.052776820957660675,0.2298320233821869,0.0008369088172912598,-0.022663533687591553,0.016404926776885986
-0.25246530771255493,-0.4474307596683502,0.14849387109279633,0.007154509425163269,-0.00308951735496521,-0.029014945030212402
-0.3661712110042572,-0.1768885850906372,0.09317178279161453,-0.0022154003381729126,0.0126628577709198,-0.1457861065864563
-0.17055316269397736,0.19136081635951996,0.19191643595695496,0.04019654914736748,0.08951205015182495,-0.09874248504638672
0.16581320762634277,0.1270570009946823,0.4203401803970337,0.10193917155265808,0.09904584288597107,-0.02557516098022461
0.42306575179100037,-0.039270635694265366,0.5564354062080383,0.07310585677623749,0.0846930742263794,0.025419533252716064
0.3746389150619507,-0.23513095080852509,0.44319191575050354,0.019613459706306458,0.08264410495758057,0.07993876934051514
-0.010140156373381615,-0.2380615770816803,0.2792101502418518,0.0017376355826854706,0.06592616438865662,0.057017505168914795
-0.1734636127948761,-0.01937057636678219,0.2853156626224518,0.006327331066131592,0.07366189360618591,0.00975865125656128
0.04785023629665375,0.10374917089939117,0.23627746105194092,0.01017896831035614,0.08652019500732422,0.034087955951690674
0.23507709801197052,0.03196519985795021,0.16735044121742249,0.02176201343536377,0.03969705104827881,0.05419641733169556
0.2079133689403534,0.05953672528266907,0.13676558434963226,0.026131659746170044,0.04808148741722107,0.09828305244445801
0.14155858755111694,0.046036895364522934,0.21185500919818878,0.030842719599604607,0.03456929326057434,0.111971914768219
0.1810474842786789,-0.015909740701317787,0.1585104912519455,-0.013853669166564941,-0.010475516319274902,0.06542795896530151
0.28774094581604004,-0.06574632972478867,0.03761586174368858,-0.027037054300308228,-0.051425933837890625,0.02354329824447632
0.26560458540916443,-0.048148635774850845,-0.06928225606679916,-0.018869923427700996,-0.033785074949264526,0.035633862018585205
0.08189834654331207,-0.17928528785705566,-0.047944575548172,0.013714537024497986,-0.046788424253463745,0.03012746572494507
0.0023352091666311026,-0.2828834056854248,-0.09232711046934128,-0.02240915596485138,-0.043500661849975586,-0.05148583650588989
0.005716254003345966,-0.15917526185512543,-0.19944310188293457,-0.05374199151992798,-0.03958243131637573,-0.10816043615341187
0.01299793366342783,0.13546738028526306,-0.17308054864406586,-0.02856387197971344,-0.014134317636489868,-0.08198153972625732
0.09537708759307861,0.2117101401090622,-0.00387143949046731,0.047645822167396545,-0.03946053981781006,0.022503316402435303
-0.1630348116159439,-0.4787919819355011,-0.187691792845726,-0.027477726340293884,0.016550004482269287,0.07727235555648804
-0.6635066866874695,-0.9552211165428162,-0.5439661145210266,-0.044968679547309875,0.025136083364486694,-0.07047092914581299
-0.7207121253013611,-0.5353778004646301,-0.5222470760345459,-0.009600028395652771,0.16720181703567505,-0.1828320026397705
-0.21341347694396973,0.1695725917816162,0.09436552226543427,0.05248019099235535,0.23314893245697021,-0.15362602472305298
0.22191016376018524,0.10905959457159042,0.3607921898365021,0.0009361356496810913,0.1586420238018036,-0.029739081859588623
0.42187434434890747,-0.25337955355644226,0.2193167805671692,-0.056221991777420044,0.08981239795684814,0.037089407444000244
0.3600042760372162,-0.2955009341239929,-0.030133308842778206,-0.07077649235725403,0.08017131686210632,0.10198092460632324
-0.024068649858236313,-0.018820127472281456,-0.1300608068704605,-0.07684829831123352,0.046273112297058105,0.1517091989517212
-0.4646448493003845,0.1938813328742981,-0.3022347390651703,-0.07548598945140839,-0.01909095048904419,0.16865789890289307
-0.595299482345581,0.15960216522216797,-0.5467929840087891,-0.06791691482067108,-0.06228873133659363,0.1098945140838623
-0.4120836555957794,0.08295410871505737,-0.5972099900245667,-0.001032649539411068,-0.05966654419898987,0.0472983717918396
-0.2281099259853363,0.10244850814342499,-0.3874875605106354,0.03801281750202179,-0.03919541835784912,0.039428532123565674
-0.15213988721370697,0.0017050610622391105,-0.16321061551570892,0.02071245014667511,-0.074008047580719,0.019973814487457275
-0.09025663882493973,-0.09349235147237778,-0.16340911388397217,-0.019277095794677734,-0.10591468214988708,-0.055249691009521484
-0.022989096119999886,0.07283835858106613,-0.1382293552160263,-0.006959632504731417,-0.09950265288352966,-0.10413628816604614
0.030992140993475914,0.18978892266750336,0.03932403773069382,0.03562815487384796,-0.07928967475891113,-0.10791540145874023
0.15841305255889893,0.06058764085173607,0.26798462867736816,0.04532913863658905,-0.07180583477020264,-0.09767258167266846
0.2554691433906555,-0.11917641013860703,0.28985634446144104,-0.02555641531944275,-0.06369808316230774,-0.11762559413909912
0.21561631560325623,0.04572109878063202,0.19431078433990479,-0.0738002359867096,-0.03613045811653137,-0.1429157853126526
0.16350089013576508,0.5282080173492432,0.23375751078128815,0.015841245651245117,-0.0014821290969848633,-0.03161013126373291
-0.009635202586650848,0.05120810493826866,0.401405930519104,0.0708264410495758,0.018656641244888306,0.0851128101348877
-0.2632674276828766,-0.3114379346370697,0.3005450367927551,0.022714868187904358,-0.0349159836769104,-0.011824548244476318
-0.3864893615245819,-0.22822372615337372,0.15384230017662048,-0.02553004026412964,0.007857024669647217,-0.1291569471359253
-0.19619666039943695,0.24302414059638977,0.22865772247314453,0.03555099666118622,0.04011356830596924,-0.16423344612121582
0.1780804842710495,0.4048132300376892,0.4304620325565338,0.09126493334770203,0.06973043084144592,-0.04661768674850464
0.3965027630329132,0.22960570454597473,0.586118221282959,0.07740288972854614,0.055510252714157104,0.08197140693664551
0.3592938482761383,-0.042602747678756714,0.48009219765663147,0.015629827976226807,0.01606687903404236,0.1391947865486145
0.03819853812456131,-0.21524815261363983,0.2420809119939804,-0.023513063788414,0.003140866756439209,0.1528393030166626
-0.2652696967124939,-0.23757144808769226,0.0913841649889946,-0.01827959530055523,0.03301292657852173,0.09586542844772339
-0.20984385907649994,-0.5246732831001282,0.013615845702588558,0.004737004637718201,0.0489538311958313,0.03116130828857422
0.2186957597732544,-0.5963779091835022,-0.08402243256568909,0.0423264354467392,0.04282182455062866,-0.015237629413604736
0.4106747806072235,-0.13591136038303375,-0.01851542294025421,0.10015466809272766,0.09162983298301697,0.03378540277481079
0.14365075528621674,0.027416283264756203,0.30241647362709045,0.10053250193595886,0.07420787215232849,0.11782485246658325
-0.02638336457312107,0.017675500363111496,0.277186781167984,0.0031823068857192993,-0.007218897342681885,0.04908496141433716
0.10278376936912537,0.01749979332089424,0.001436798833310604,-0.017162472009658813,-0.03414207696914673,-0.01120084524154663
0.12495747953653336,0.07711955159902573,-0.157464399933815,0.021307174116373062,-0.013468623161315918,0.009345293045043945
-0.07921391725540161,-0.107650525867939,-0.12616825103759766,0.04368053376674652,-0.004158973693847656,0.00750124454498291
-0.16041715443134308,-0.30882692337036133,-0.18806134164333344,-0.023110076785087585,-0.004103571176528931,-0.10928618907928467
-0.05530358478426933,-0.08886546641588211,-0.31472501158714294,-0.05124245584011078,0.0037301182746887207,-0.18922263383865356
-0.04022173956036568,0.07891679555177689,-0.3396139144897461,-0.009911447763442993,0.013013273477554321,-0.07478111982345581
-0.27064231038093567,-0.15852314233779907,-0.402754545211792,-0.01269177719950676,-0.00814145803451538,-0.04768788814544678
-0.549223780632019,-0.37856000661849976,-0.5823931097984314,-0.06444711983203888,-0.0094795823097229,-0.13571733236312866
-0.5344177484512329,-0.2775406837463379,-0.724448025226593,-0.14599698781967163,0.011959165334701538,-0.3006175756454468
0.09164275974035263,0.4248349666595459,-0.5769062638282776,-0.12397387623786926,0.02437606453895569,-0.31222599744796753
0.7399879693984985,0.5500854849815369,-0.32432079315185547,-0.026698395609855652,0.06510156393051147,-0.05159425735473633
0.8818641304969788,0.07202122360467911,-0.13986989855766296,-0.03382411599159241,0.04796615242958069,0.1180645227432251
0.5965525507926941,-0.2371019870042801,-0.32260966300964355,-0.10735350847244263,0.043391913175582886,0.17674612998962402
0.1764267534017563,-0.024484876543283463,-0.48417118191719055,-0.08811913430690765,0.06700852513313293,0.20263254642486572
-0.16343481838703156,0.156032532453537,-0.6221613883972168,-0.05238139629364014,0.0832718014717102,0.23227041959762573
-0.25713589787483215,-0.043520744889974594,-0.5990062952041626,0.022172540426254272,0.06650018692016602,0.16678732633590698
-0.09281615167856216,0.006355111952871084,-0.3338142931461334,0.0630623996257782,0.0752108097076416,0.09608381986618042
0.08419977128505707,0.0495692640542984,-0.003295090515166521,0.038856759667396545,0.04629021883010864,0.08748918771743774
0.12829019129276276,-0.11518874019384384,0.0859314426779747,-0.011533543467521667,-0.03331565856933594,0.06394487619400024
0.12049272656440735,0.022593088448047638,-0.011500570923089981,-0.06208929419517517,-0.060710251331329346,0.014356553554534912
0.02083590440452099,0.13574175536632538,0.0030061996076256037,-0.014210239984095097,-0.05992075800895691,0.012760341167449951
-0.047800853848457336,0.09719089418649673,0.08411318808794022,0.030185386538505554,-0.05348899960517883,-0.014496207237243652
-0.057682301849126816,0.03537876904010773,0.20220452547073364,0.04082576930522919,-0.041386693716049194,-0.05203080177307129
-0.12664885818958282,-0.06782831251621246,0.2581346333026886,-0.0060342103242874146,-0.0330929160118103,-0.1162186861038208
-0.12099365144968033,0.2591066062450409,0.272490531206131,0.0027641053311526775,-0.03227725625038147,-0.17220866680145264
-0.25488847494125366,0.15298892557621002,0.3178183138370514,0.002580702304840088,0.008225291967391968,-0.1252974271774292
-0.40388384461402893,0.08370544761419296,0.4127123951911926,2.8818845748901367e-05,-0.014017164707183838,-0.1723557710647583
-0.21374502778053284,0.21496230363845825,0.45237913727760315,-0.024086445569992065,0.03943565487861633,-0.1845923662185669
0.17204540967941284,0.3890574276447296,0.5809192061424255,0.011492595076560974,0.06342396140098572,-0.07968711853027344
0.29737791419029236,0.23098412156105042,0.5485016107559204,0.002455039881169796,0.06062173843383789,0.03542381525039673
0.2039264291524887,0.08643912523984909,0.4434744119644165,0.01458112895488739,0.06775301694869995,0.07991272211074829
0.05107554793357849,0.08309812843799591,0.4194882810115814,0.021038413047790527,0.0917387306690216,0.10842794179916382
-0.1600767821073532,-0.09238229691982269,0.29887479543685913,0.001761123538017273,0.08887666463851929,0.1058034896850586
-0.2938007712364197,-0.1464177817106247,0.16119252145290375,0.005890741944313049,0.09133899211883545,0.027313053607940674
-0.2564278244972229,0.04841403290629387,0.14623381197452545,0.030427083373069763,0.12062770128250122,-0.015835881233215332
-0.03462543338537216,0.23482055962085724,0.3676042854785919,0.06228908896446228,0.10980480909347534,-0.003677070140838623
0.1710742861032486,0.3085997700691223,0.40312591195106506,0.005414038896560669,0.0522347092628479,0.0673140287399292
0.1752355396747589,0.12920106947422028,0.2154693603515625,-0.04005345702171326,-0.019733726978302002,0.10361206531524658
0.09374600648880005,-0.18839740753173828,0.039019230753183365,-0.009335651993751526,-0.04502248764038086,0.0914163589477539
0.10110500454902649,-0.1519390344619751,0.036206383258104324,-0.02808840572834015,-0.022781968116760254,0.009722113609313965
0.13685943186283112,0.11594315618276596,-0.09847977012395859,-0.04965600371360779,-0.05059516429901123,-0.01838892698287964
0.05567096173763275,-0.045975539833307266,-0.2151588648557663,0.01596507430076599,-0.07071173191070557,0.0267183780670166
-0.026135478168725967,-0.3102157711982727,-0.251972496509552,0.010499432682991028,-0.03958293795585632,-0.038626670837402344
-0.09724969416856766,-0.3653011918067932,-0.3277195692062378,0.015476437285542488,-0.011410713195800781,-0.11364692449569702
-0.14529308676719666,-0.08973857015371323,-0.3217340409755707,0.00572429783642292,0.014577418565750122,-0.16162043809890747
-0.05305791646242142,0.3042469024658203,-0.09725593030452728,0.0958394855260849,0.019777745008468628,-0.11309969425201416
-0.08663327991962433,-0.13777796924114227,-0.03809550777077675,0.08559645712375641,0.021666407585144043,0.01007610559463501
-0.3616454601287842,-0.42921683192253113,-0.16271990537643433,0.047655925154685974,0.008094877004623413,-0.04847496747970581
-0.5186226963996887,-0.24780239164829254,-0.10927549749612808,0.032536834478378296,0.06558635830879211,-0.13717055320739746
-0.27493491768836975,0.1925792396068573,0.110212042927742,0.02389530837535858,0.09627816081047058,-0.16015613079071045
0.2269732654094696,0.4395655393600464,0.2425810992717743,0.045004040002822876,0.08022904396057129,-0.043154358863830566
0.49407580494880676,0.11554872244596481,0.2617322504520416,0.05308760702610016,0.050124019384384155,0.07762300968170166
0.43617770075798035,-0.19966533780097961,0.16322387754917145,0.004033222794532776,0.05263721942901611,0.11100846529006958
0.10827985405921936,-0.05179514363408089,-0.04178490862250328,-0.05600948631763458,0.062237441539764404,0.08471155166625977
-0.27316179871559143,0.0991365984082222,-0.18295739591121674,-0.06630438566207886,0.02970835566520691,0.03829699754714966
-0.2675936818122864,0.26857343316078186,-0.260773628950119,-0.029059767723083496,0.02861902117729187,-0.007339596748352051
-0.01549216452986002,0.3903714120388031,-0.23752357065677643,0.011620551347732544,0.06076091527938843,0.041146695613861084
0.03496522456407547,0.19358593225479126,-0.06210649758577347,0.05222253501415253,0.037031471729278564,0.10308218002319336
-0.04068959131836891,0.19864967465400696,0.06506263464689255,-0.009879321791231632,-0.0009864270687103271,0.06878405809402466
-0.03980506956577301,0.24529507756233215,0.07742349058389664,-0.04145118594169617,-0.02458176016807556,0.054395079612731934
0.03600945696234703,0.16524896025657654,0.03101261891424656,-0.05830569565296173,-0.04842063784599304,0.02101719379425049
0.1130724549293518,0.14148591458797455,0.07331646978855133,-0.011037962511181831,-0.036763936281204224,-0.0009407997131347656
0.11807253956794739,0.10664325207471848,0.23976749181747437,0.015417680144309998,-0.033442556858062744,-0.014962077140808105
0.13617774844169617,0.02019619196653366,0.3027247488498688,0.0027882158756256104,-0.05644422769546509,-0.06096518039703369
0.10489366948604584,-0.0879196971654892,0.222751647233963,-0.03456144034862518,-0.05059412121772766,-0.10012412071228027
0.028940657153725624,-0.01574801094830036,0.18829509615898132,-0.02453574538230896,-0.02111724019050598,-0.14575928449630737
0.07611013948917389,0.3758164048194885,0.31125879287719727,0.04630346596240997,0.007367074489593506,-0.10438787937164307
-0.06259326636791229,0.018344130367040634,0.40377238392829895,0.03632377088069916,0.006626546382904053,-0.024001598358154297
-0.18672096729278564,-0.03156471997499466,0.26288580894470215,0.011190651915967464,-0.031658023595809937,-0.11274904012680054
-0.1107061430811882,0.10312435030937195,0.2779448628425598,0.05771683156490326,0.0390569269657135,-0.11328339576721191
0.0791819840669632,0.20449115335941315,0.43358659744262695,0.0912519097328186,0.07169243693351746,-0.06129193305969238
0.20537833869457245,0.16362714767456055,0.4501471519470215,0.07545195519924164,0.08779740333557129,0.020771026611328125
0.20302022993564606,0.17673592269420624,0.460685670375824,0.09671863913536072,0.08124604821205139,0.0802801251411438
0.028655746951699257,0.1204570010304451,0.432179719209671,0.08899858593940735,0.07966762781143188,0.12217980623245239
-0.24562227725982666,-0.06909259408712387,0.33743417263031006,0.07520349323749542,0.07679697871208191,0.11325836181640625
-0.4147789776325226,-0.1212129294872284,0.26381826400756836,0.05331854522228241,0.0975450873374939,0.017264962196350098
-0.27594929933547974,0.13391225039958954,0.33218398690223694,0.07721836864948273,0.09978896379470825,-0.04330521821975708
-0.0026356808375567198,0.3433261513710022,0.4388175904750824,0.06638124585151672,0.08796590566635132,0.004604935646057129
0.09484674781560898,0.1543675661087036,0.47795331478118896,0.06991556286811829,0.047521352767944336,0.08908486366271973
0.08296458423137665,-0.00622815964743495,0.39157095551490784,0.04922996461391449,0.007254272699356079,0.09811949729919434
0.021488148719072342,0.07433008402585983,0.2927837371826172,0.03105407953262329,-0.002332925796508789,0.06339693069458008
-0.04002979025244713,0.11746533960103989,0.25057998299598694,0.02335381507873535,-0.02914983034133911,0.031002163887023926
0.00039981515146791935,0.003257429227232933,0.1533234864473343,0.012804016470909119,-0.061301618814468384,-0.009315192699432373
0.173818901181221,-0.10216370970010757,-0.01158710103482008,0.011561558581888676,-0.06145784258842468,-0.07472223043441772
0.2308836579322815,-0.08636946231126785,-0.07467324286699295,0.05176392197608948,-0.02778133749961853,-0.06597954034805298
0.042299311608076096,-0.11700271815061569,-0.07310179620981216,0.036415427923202515,-0.0014521479606628418,-0.056915998458862305
-0.07312363386154175,-0.06770016998052597,-0.15685971081256866,0.022118017077445984,0.0018541514873504639,-0.10855650901794434
0.037461064755916595,0.24169325828552246,-0.13152575492858887,0.04844929277896881,0.02884089946746826,-0.1091458797454834
0.034177109599113464,0.05863242223858833,-0.10025975853204727,0.07231642305850983,0.037456631660461426,0.05118077993392944
-0.36064034700393677,-0.3371388018131256,-0.22999638319015503,0.053538158535957336,0.03563845157623291,0.0632975697517395
-0.7110908627510071,-0.28272467851638794,-0.20281195640563965,0.017311036586761475,0.051457345485687256,-0.08392798900604248
-0.5677899122238159,0.07000840455293655,-0.09767226129770279,-0.026684194803237915,0.06522047519683838,-0.20811045169830322
0.07626738399267197,0.5178728103637695,0.10732278972864151,0.014196082949638367,0.07866519689559937,-0.12086731195449829
0.49925726652145386,0.18310518562793732,0.19193953275680542,0.039439111948013306,0.07121676206588745,0.06300979852676392
0.4472600519657135,-0.3372381925582886,0.12978175282478333,0.00796593725681305,0.06448599696159363,0.11447852849960327
0.005491442047059536,-0.13870441913604736,0.017705455422401428,-0.05816076695919037,0.08934399485588074,0.0838809609413147
-0.419730007648468,0.15960124135017395,-0.1447466015815735,-0.08890968561172485,0.06282749772071838,0.045215070247650146
-0.44172918796539307,0.2805560529232025,-0.2502545118331909,-0.009859025478363037,0.043344587087631226,0.019053757190704346
-0.18826211988925934,0.2698199450969696,-0.14331908524036407,0.05597032606601715,0.08246856927871704,0.06274819374084473
-0.047686781734228134,0.1224362924695015,0.11325658112764359,0.08497771620750427,0.05100032687187195,0.08147704601287842
-0.038814201951026917,0.25314733386039734,0.2158273309469223,-0.009774267673492432,-0.014042466878890991,0.05673700571060181
-0.14230255782604218,0.1475825160741806,0.1452769637107849,-0.042150795459747314,-0.07115653157234192,0.04769742488861084
-0.11643598228693008,0.10724049061536789,0.09346738457679749,-0.05401964485645294,-0.0729627013206482,-0.02444326877593994
0.043927017599344254,0.20406554639339447,0.16937355697155,-0.006262794137001038,-0.07044368982315063,-0.0782780647277832
0.18844783306121826,0.24526529014110565,0.3380994498729706,0.0014309883117675781,-0.06361481547355652,-0.06328672170639038
0.23178298771381378,0.1856159269809723,0.36300143599510193,-0.01875711977481842,-0.08659297227859497,-0.05134749412536621
0.17127682268619537,0.02507896162569523,0.3219138979911804,-0.027147188782691956,-0.08095258474349976,-0.07250732183456421
0.13242056965827942,-0.020189104601740837,0.28717926144599915,-0.050047025084495544,-0.027312666177749634,-0.13749104738235474
0.13304294645786285,0.36495456099510193,0.3761247396469116,0.012548461556434631,0.005366861820220947,-0.11678028106689453
0.005123603157699108,0.15694430470466614,0.4818336069583893,0.04627838730812073,-0.0008438825607299805,-0.011147677898406982
-0.1815786361694336,-0.11471656709909439,0.3899271488189697,0.0408395379781723,-0.06051856279373169,-0.0744931697845459
-0.21924179792404175,-0.1133723258972168,0.31842491030693054,-0.008059516549110413,0.007615774869918823,-0.1709517240524292
0.0693521723151207,0.1814182549715042,0.4436127841472626,0.06491680443286896,0.030643761157989502,-0.17324328422546387
0.4380391836166382,0.346294105052948,0.523354172706604,0.027343064546585083,0.07461729645729065,-0.054389774799346924
0.5310547947883606,0.23938152194023132,0.45075732469558716,0.034173592925071716,0.035222530364990234,0.03658169507980347
0.39566269516944885,0.12822067737579346,0.35860589146614075,0.05784977972507477,0.07920235395431519,0.12265533208847046
0.0700700655579567,-0.09946328401565552,0.4114062488079071,0.06963536143302917,0.08623930811882019,0.16284531354904175
-0.20805445313453674,-0.2536916434764862,0.21351635456085205,0.000800415757112205,0.059463322162628174,0.06340688467025757
-0.19421687722206116,0.019756430760025978,-0.07765239477157593,0.00414884090423584,0.07799464464187622,-0.04745960235595703
-0.022401168942451477,0.268380343914032,0.07410650700330734,0.10312336683273315,0.1493685245513916,0.003707706928253174
0.1906445473432541,0.21650762856006622,0.3742539584636688,0.12472887337207794,0.14958184957504272,0.10602825880050659
0.27367037534713745,0.2005442976951599,0.4077986776828766,0.03647810220718384,0.054524242877960205,0.11770308017730713
0.12045825272798538,-0.020526982843875885,0.2013052999973297,0.00822630524635315,-0.008023709058761597,0.13055962324142456
-0.001563090831041336,-0.2961174249649048,0.05579131096601486,0.0220823734998703,0.008366107940673828,0.09082430601119995
0.07359607517719269,-0.11988631635904312,0.03740484267473221,0.034159570932388306,0.006580978631973267,-0.0002824068069458008
0.1265580803155899,-0.1493714451789856,0.02039891481399536,0.043844565749168396,-0.001829683780670166,0.00332486629486084
0.10143304616212845,-0.3216150403022766,-0.051706694066524506,0.030451148748397827,-0.012948721647262573,-0.02092212438583374
-0.010599619708955288,-0.29860207438468933,-0.14943857491016388,0.02371649444103241,-0.011040180921554565,-0.04908221960067749
-0.1853494495153427,-0.24267973005771637,-0.22845377027988434,0.02208283543586731,-0.007562398910522461,-0.07689839601516724
-0.17768186330795288,0.12706612050533295,-0.2780887484550476,0.01997874677181244,-0.002961397171020508,-0.09539318084716797
-0.22045457363128662,-0.16656151413917542,-0.328115850687027,0.05786904692649841,0.0031715333461761475,0.018842458724975586
-0.5139849185943604,-0.3066345155239105,-0.4100068509578705,0.031152114272117615,0.011612892150878906,-0.011770427227020264
-0.7926013469696045,-0.25762471556663513,-0.4728957712650299,0.02052946574985981,0.029794901609420776,-0.09241288900375366
-0.7666174173355103,-0.12229877710342407,-0.46766197681427,-0.028433337807655334,0.07828569412231445,-0.18923616409301758
-0.20823366940021515,0.30005648732185364,-0.21470536291599274,0.02471536584198475,0.07867869734764099,-0.2174338698387146
0.42888936400413513,0.4886459708213806,-0.057037122547626495,0.01811981201171875,0.08275029063224792,-0.05473732948303223
0.6197568774223328,0.001381533918902278,0.049692217260599136,0.015478506684303284,0.04985165596008301,0.09090054035186768
0.360956609249115,-0.35521867871284485,-0.10533852130174637,-0.07147099077701569,0.01812407374382019,0.10650146007537842
-0.08523348718881607,-0.07627128064632416,-0.39385512471199036,-0.13658186793327332,-0.005981743335723877,0.04344165325164795
-0.38225287199020386,0.15994177758693695,-0.6256852149963379,-0.0703255832195282,0.017000466585159302,0.029441356658935547
-0.25646713376045227,0.1735740303993225,-0.4237092137336731,0.02563096582889557,0.05292540788650513,0.01629418134689331
0.05639898031949997,0.16448825597763062,-0.16115929186344147,0.044269755482673645,0.049395203590393066,0.022207200527191162
0.21136829257011414,0.10247442126274109,-0.027758004143834114,0.0047486573457717896,0.006629347801208496,0.062002718448638916
0.13447561860084534,0.0671052485704422,-0.023210570216178894,-0.039730414748191833,-0.02311527729034424,0.07486450672149658
0.10002950578927994,0.10577065497636795,-0.02338939532637596,-0.04359711706638336,-0.037665754556655884,0.03858464956283569
0.11340220272541046,0.162126362323761,-0.008902892470359802,-0.023500680923461914,-0.027047693729400635,0.029473185539245605
0.12099866569042206,0.1337822526693344,0.12952370941638947,0.0280466228723526,-0.03113996982574463,0.011907100677490234
0.18989597260951996,0.12504617869853973,0.22684484720230103,0.02805517613887787,-0.03538614511489868,-0.01497870683670044
0.1664777547121048,0.032087523490190506,0.3020246922969818,0.02271820232272148,-0.03895154595375061,-0.0167006254196167
0.08803193271160126,-0.050973761826753616,0.31031158566474915,-0.006065472960472107,-0.03192591667175293,-0.07106184959411621
0.08215879648923874,0.18157222867012024,0.2860856354236603,0.015976682305336,-0.017045408487319946,-0.12897741794586182
-0.004702378995716572,0.12742801010608673,0.43536052107810974,0.05038119852542877,0.02336561679840088,-0.02254343032836914
-0.2016577124595642,-0.13426899909973145,0.3830007016658783,0.01055404543876648,-0.009090244770050049,-0.053468286991119385
-0.3524935841560364,-0.13133978843688965,0.2677692770957947,0.019008532166481018,0.010230213403701782,-0.11796760559082031
-0.3555697202682495,0.06084815412759781,0.28633424639701843,0.05218760669231415,0.06208735704421997,-0.14108896255493164
-0.06323210895061493,0.29426977038383484,0.4604223966598511,0.09350143373012543,0.08870160579681396,-0.11109024286270142
0.24253137409687042,0.18364661931991577,0.5399776101112366,0.10306480526924133,0.07970806956291199,-0.04129558801651001
0.39859870076179504,0.12717264890670776,0.6098767518997192,0.09776467084884644,0.07149884104728699,0.017795681953430176
0.2587834298610687,0.01274280995130539,0.5334761142730713,0.08699646592140198,0.07119166851043701,0.07669544219970703
-0.0992947593331337,-0.18755291402339935,0.4072858989238739,0.055221736431121826,0.06784263253211975,0.05905270576477051
-0.28090140223503113,-0.050104014575481415,0.2667597532272339,0.041610345244407654,0.09161663055419922,-0.04769366979598999
-0.14399784803390503,0.2201908528804779,0.2848932147026062,0.07885871827602386,0.12400516867637634,-0.0706326961517334
0.038757357746362686,0.2752190828323364,0.45039868354797363,0.10394978523254395,0.131344735622406,0.007356882095336914
0.1838676780462265,0.1990414410829544,0.5309357047080994,0.06788000464439392,0.07784855365753174,0.05427873134613037
0.2382243126630783,0.1811365783214569,0.4066593050956726,0.0276748389005661,0.0381280779838562,0.09159690141677856
0.10758958011865616,0.016122417524456978,0.2692011892795563,0.021393269300460815,0.023331671953201294,0.1131104826927185
-0.0014092340134084225,0.03874848037958145,0.2002149373292923,0.03753490746021271,0.004054546356201172,0.061308443546295166
0.07524979114532471,0.11812605708837509,0.2020760178565979,0.04920010268688202,0.004580706357955933,0.03895151615142822
0.16379113495349884,-0.049087218940258026,0.2325516790151596,0.05615268647670746,-0.02904331684112549,0.016311287879943848
0.18537235260009766,-0.0757773369550705,0.15317991375923157,0.0435672402381897,-0.04566296935081482,-0.023535966873168945
0.09606471657752991,-0.02708691731095314,0.09475776553153992,0.03937444090843201,-0.03498655557632446,-0.035354673862457275
-0.004611717537045479,-0.05369924008846283,0.027466051280498505,0.048161059617996216,-0.032061994075775146,-0.0783987045288086
0.04629078507423401,-0.0030584351625293493,0.05018147826194763,0.05735386908054352,0.0009158551692962646,-0.11540961265563965
0.16185235977172852,0.16777563095092773,0.1687139868736267,0.09076054394245148,0.011265695095062256,-0.1021241545677185
0.1300448775291443,-0.14543533325195312,0.26682764291763306,0.12369437515735626,-0.019944697618484497,0.02489691972732544
-0.23942862451076508,-0.558976411819458,0.09902716428041458,0.009983092546463013,0.004153311252593994,-0.022211790084838867
-0.5104626417160034,-0.17935775220394135,-0.07248210906982422,0.0034629106521606445,0.04591718316078186,-0.17438405752182007
-0.39972123503685,0.41400066018104553,0.14975637197494507,0.07470780611038208,0.12438526749610901,-0.1480494737625122
0.018785422667860985,0.4357708692550659,0.46131566166877747,0.07842039316892624,0.09718582034111023,-0.07350277900695801
0.5363118052482605,0.2938537895679474,0.5036146640777588,0.07130881398916245,0.07174736261367798,0.016241729259490967
0.6554498076438904,0.06687305867671967,0.46856996417045593,0.08305109292268753,0.0566481351852417,0.0963473916053772
0.29025864601135254,-0.11125586181879044,0.4139803946018219,0.07458403706550598,0.035737961530685425,0.1087070107460022
-0.15986625850200653,-0.07409551739692688,0.29940810799598694,0.036809828132390976,0.052910298109054565,0.014681994915008545
-0.3216637969017029,0.2953556180000305,0.20184680819511414,0.029395677149295807,0.06653866171836853,-0.09900987148284912
-0.15758870542049408,0.6296696066856384,0.35290926694869995,0.10635927319526672,0.08139777183532715,-0.08958417177200317
0.07338322699069977,0.527861475944519,0.5860869884490967,0.16059450805187225,0.08558261394500732,0.018621742725372314
0.1088409498333931,0.3320057690143585,0.7407513856887817,0.13349208235740662,0.059724003076553345,0.03838527202606201
0.043878477066755295,0.43363630771636963,0.8094162940979004,0.07700058817863464,0.05808669328689575,0.0074904561042785645
0.013102861121296883,0.617484986782074,0.9128796458244324,0.09528958052396774,0.05488497018814087,0.008696138858795166
-0.014709718525409698,0.6045728325843811,1.0308241844177246,0.11333870887756348,0.050440192222595215,0.04144567251205444
-0.04925417900085449,0.42484214901924133,1.1097965240478516,0.12484871596097946,0.05287671089172363,0.02052837610244751
0.01292093750089407,0.5309461355209351,1.2539594173431396,0.14664483070373535,0.07434582710266113,-0.04633784294128418
0.040180254727602005,0.6759850978851318,1.4659157991409302,0.13724644482135773,0.09600839018821716,-0.029530227184295654
0.004500147886574268,0.5986616611480713,1.5442122220993042,0.08735793828964233,0.05836772918701172,-0.03201848268508911
-0.004178687930107117,0.5960873365402222,1.4644417762756348,0.07944203913211823,0.055704087018966675,-0.08410269021987915
-0.021919554099440575,0.6797769665718079,1.555720329284668,0.10787315666675568,0.10654643177986145,-0.11685186624526978
0.029636576771736145,0.8061203956604004,1.7514790296554565,0.10153932869434357,0.14333215355873108,-0.14213687181472778
0.17032620310783386,0.9325497150421143,1.9200098514556885,0.09439058601856232,0.14714768528938293,-0.1288711428642273
0.16287857294082642,0.742487370967865,1.956154227256775,0.11027847230434418,0.12201285362243652,-0.05879420042037964
-0.023701850324869156,0.49574312567710876,1.9217586517333984,0.09590539336204529,0.13460582494735718,-0.07448673248291016
-0.16380079090595245,0.7568706274032593,1.8512219190597534,0.12178307771682739,0.13968509435653687,-0.15956950187683105
-0.2649623453617096,0.8605429530143738,1.9331958293914795,0.188626229763031,0.17666694521903992,-0.10204249620437622
-0.32329028844833374,0.6636752486228943,2.0429093837738037,0.18982411921024323,0.22747835516929626,-0.06528037786483765
-0.10240327566862106,0.8297048211097717,2.193286418914795,0.2546968460083008,0.1981608271598816,-0.13059771060943604
0.1344868540763855,1.1465239524841309,2.2527904510498047,0.2782965302467346,0.2215682566165924,-0.028787195682525635
0.07243889570236206,0.8899557590484619,2.3858869075775146,0.30884113907814026,0.17923086881637573,0.027621865272521973
0.039185531437397,0.8569139242172241,2.337221622467041,0.26084524393081665,0.19187089800834656,-0.01799076795578003
0.059677790850400925,1.1130578517913818,2.295593023300171,0.2636914849281311,0.1729799509048462,-0.054437994956970215
-0.040928274393081665,1.088727355003357,2.194094657897949,0.260911762714386,0.172944575548172,-0.03168672323226929
-0.12877552211284637,0.9640824198722839,2.152207851409912,0.2778623104095459,0.1964389681816101,-0.05852460861206055
-0.054355867207050323,0.9724041819572449,2.2039496898651123,0.2859645485877991,0.21000796556472778,-0.11810344457626343
0.06327269971370697,1.092695951461792,2.361217498779297,0.27456918358802795,0.23544636368751526,-0.1164366602897644
0.20348115265369415,1.0885059833526611,2.4056038856506348,0.2420484572649002,0.17158716917037964,-0.10804414749145508
0.26219642162323,1.0167676210403442,2.235084295272827,0.20767953991889954,0.14645999670028687,-0.06489700078964233
0.1006142869591713,0.8251297473907471,2.101449728012085,0.22479739785194397,0.1352522373199463,-0.030658721923828125
-0.1397578865289688,0.7754080295562744,2.0963661670684814,0.18482086062431335,0.14053630828857422,-0.08191120624542236
-0.1416749507188797,0.9142307639122009,2.111313581466675,0.15236085653305054,0.1301431953907013,-0.12152695655822754
-0.0286713894456625,0.9765865802764893,2.0559213161468506,0.10861475765705109,0.09017103910446167,-0.09115421772003174
0.011368378065526485,0.9723793268203735,1.929565191268921,0.08815307915210724,0.02987632155418396,-0.048226356506347656
-0.0059824781492352486,0.9975035190582275,1.8097196817398071,0.07827591896057129,0.01217380166053772,0.02237492799758911
0.0012978211743757129,0.9462238550186157,1.7805975675582886,0.05034114420413971,-0.018911033868789673,0.050624310970306396
0.07049393653869629,0.8996142148971558,1.6852856874465942,0.0016776034608483315,-0.053457409143447876,0.0651732087135315
0.14075669646263123,0.6446005702018738,1.5147807598114014,-0.020567819476127625,-0.08909997344017029,0.09141749143600464
0.26200076937675476,0.36655929684638977,1.305421233177185,-0.0395473837852478,-0.11884516477584839,0.055229008197784424
0.31217581033706665,0.24010920524597168,1.0360028743743896,-0.08279044926166534,-0.05437561869621277,0.10197919607162476
-0.06868011504411697,0.021024150773882866,0.7554999589920044,-0.12164448201656342,-0.0479620099067688,0.0699840784072876
