rotation_x,rotation_y,rotation_z,acceleration_x,acceleration_y,acceleration_z
0.30073097348213196,0.4128524959087372,0.3877127766609192,0.16269943118095398,0.00671696662902832,0.17874449491500854
-0.04411974176764488,0.2450425773859024,0.4810692071914673,0.11272770166397095,0.07329201698303223,0.26325321197509766
-0.6426181793212891,-0.026332836598157883,0.557289719581604,0.08694669604301453,0.13244318962097168,0.422704815864563
-1.2407549619674683,-0.08433404564857483,0.5757412910461426,0.0513782799243927,0.021607637405395508,0.4516039490699768
-1.6094602346420288,0.011420777067542076,0.43124282360076904,-0.04077714681625366,-0.04072290658950806,0.3553479313850403
-1.4670319557189941,0.47543737292289734,0.2703949809074402,-0.05989167094230652,-0.07665997743606567,0.11025792360305786
-0.9636514782905579,0.2342127412557602,0.1959448605775833,-0.07616084814071655,-0.049997806549072266,-0.05002105236053467
-0.21927542984485626,-0.07987050712108612,0.15114156901836395,-0.07178288698196411,-0.010589599609375,-0.15983211994171143
0.04363320767879486,-0.0649101585149765,0.10865230858325958,-0.0375557541847229,-0.08543014526367188,-0.13987058401107788
-0.35688716173171997,0.09799330681562424,-0.06001614034175873,-0.011048465967178345,-0.05231821537017822,-0.021085500717163086
-0.8191594481468201,-0.35285696387290955,-0.24480383098125458,0.01567000150680542,0.014007568359375,0.007493555545806885
-0.9255173802375793,-1.090247631072998,-0.19653922319412231,0.11660405993461609,0.07442176342010498,-0.06277316808700562
-0.7008596658706665,-1.7144941091537476,-0.2075650542974472,0.0869365930557251,0.005425453186035156,-0.12370133399963379
-0.5348402261734009,-2.116400957107544,-0.32443034648895264,-0.024437353014945984,0.009492695331573486,-0.12108850479125977
-0.42326971888542175,-2.134629964828491,-0.4817500412464142,-0.12408021092414856,0.01798480749130249,-0.0720260739326477
-0.38528692722320557,-1.6614186763763428,-0.5179551243782043,-0.17292189598083496,0.03089272975921631,-0.07177126407623291
-0.5765910148620605,-1.4198647737503052,-0.30626657605171204,-0.1509147584438324,0.06659811735153198,-0.013101458549499512
-0.7652922868728638,-0.7345564365386963,-0.15809330344200134,-0.11074259877204895,0.05315274000167847,-0.04028445482254028
-0.5742942094802856,0.2739139199256897,0.043953873217105865,-0.0859372615814209,-0.004016280174255371,-0.13663917779922485
-0.6485774517059326,0.6709497570991516,0.017129046842455864,-0.21197019517421722,-0.04432016611099243,-0.040506601333618164
-0.5423744916915894,0.36392727494239807,-0.02686777338385582,-0.22901444137096405,0.06131714582443237,-0.058985114097595215
-0.4302045404911041,0.0993964672088623,-0.03199955075979233,-0.20503394305706024,0.05813342332839966,-0.06592059135437012
-0.25609052181243896,-0.3445594310760498,0.006358491722494364,-0.15131822228431702,0.039108484983444214,-0.09716546535491943
-0.2078894078731537,-0.03121529333293438,-0.008276510052382946,-0.14606398344039917,0.07885098457336426,-0.016645371913909912
-0.309984028339386,0.24810674786567688,-0.15727877616882324,-0.22291453182697296,0.02406427264213562,0.035301148891448975
-0.5360938906669617,0.42015528678894043,-0.36460354924201965,-0.3325284719467163,0.020468860864639282,0.16455119848251343
-0.418987900018692,-0.04345285892486572,-0.579374372959137,-0.3159421682357788,0.0704585611820221,0.12683320045471191
-0.17845624685287476,-0.4791397452354431,-0.8066295981407166,-0.2775488495826721,0.16692811250686646,-0.00814741849899292
-0.38206595182418823,-0.35716283321380615,-1.511547327041626,-0.38703858852386475,0.14509233832359314,0.04946398735046387
-0.5739285349845886,-0.8881469964981079,-2.1113224029541016,-0.3940387964248657,0.06988134980201721,0.10670226812362671
0.13766905665397644,-0.9640456438064575,-1.9972639083862305,-0.329927921295166,0.07136175036430359,0.07321709394454956
1.4787145853042603,-0.9016507863998413,-1.3661547899246216,-0.09728299081325531,0.17164266109466553,-0.06383991241455078
2.078270196914673,-2.4527060985565186,-0.8404465317726135,0.15041697025299072,0.2702392339706421,-0.22645926475524902
1.0823196172714233,-3.6777470111846924,-1.4893267154693604,0.06368911266326904,0.26565057039260864,0.21980279684066772
0.6125555038452148,-2.3197691440582275,-1.866270661354065,-0.13652783632278442,0.17589223384857178,0.22078394889831543
-0.3556410074234009,-1.0871657133102417,-1.7467625141143799,0.041465118527412415,0.12206602096557617,0.188590407371521
-0.9009247422218323,0.028550872579216957,-1.3489835262298584,0.06529730558395386,0.22919058799743652,0.2079622745513916
-0.3671416640281677,0.050786010921001434,-0.8605679273605347,0.08367197215557098,0.3933733105659485,-0.08556687831878662
0.4370552599430084,-1.0412564277648926,-0.6694206595420837,0.042183950543403625,0.4892290234565735,-0.06759953498840332
0.6379689574241638,-2.115748882293701,-0.7310254573822021,-0.006642088294029236,0.45221102237701416,0.1988837718963623
0.5150852799415588,-2.9149880409240723,-0.7182197570800781,0.0417022705078125,0.3739367723464966,0.37573277950286865
-0.1642669439315796,-2.9100303649902344,-0.42326223850250244,0.08969205617904663,0.3775019645690918,0.3010897636413574
-0.9320049285888672,-1.9985864162445068,0.10890377312898636,0.12443828582763672,0.5105565190315247,0.2370821237564087
-1.9199674129486084,0.27178287506103516,0.7371648550033569,0.10994130373001099,0.5798733830451965,0.13731533288955688
-2.016771078109741,-0.3146505653858185,0.940857470035553,0.21876534819602966,0.622104287147522,0.21764379739761353
-1.7233033180236816,-2.6774981021881104,0.8396512269973755,0.18873810768127441,0.5322133302688599,0.43263328075408936
-1.9059231281280518,-4.411161422729492,0.7902039885520935,0.103655606508255,0.5184009671211243,0.5165054798126221
-2.520503282546997,-5.457886219024658,1.0820391178131104,0.07468646764755249,0.6196132898330688,0.44310837984085083
-3.2361032962799072,-5.3950886726379395,1.5079540014266968,0.05406510829925537,0.609227180480957,0.15651744604110718
-3.962683916091919,-3.6833183765411377,1.6275032758712769,-0.23415303230285645,0.5657123923301697,-0.27499353885650635
-4.37716007232666,-1.7979254722595215,1.514055848121643,-0.40138787031173706,0.5167971849441528,-0.5853974223136902
-4.4256911277771,-0.5781313180923462,1.2464687824249268,-0.4223526120185852,0.41013720631599426,-0.6702557802200317
-4.2675018310546875,0.16521517932415009,0.8215073943138123,-0.4119400382041931,0.31792762875556946,-0.7017261981964111
-4.119275093078613,0.8561455607414246,0.24796845018863678,-0.4441593289375305,0.14067089557647705,-0.7156934142112732
-4.030341148376465,1.6000841856002808,-0.20982512831687927,-0.4496193528175354,0.07325829565525055,-0.6856585144996643
-3.7272775173187256,1.8623509407043457,-0.2723948657512665,-0.2671387195587158,0.10490171611309052,-0.6507155299186707
-3.010620594024658,1.1771204471588135,-0.04965577647089958,-0.05925184488296509,0.07697585225105286,-0.5795788168907166
-2.1641111373901367,-0.029648642987012863,0.23741507530212402,0.057025372982025146,0.04037678241729736,-0.4634031057357788
-1.5057986974716187,-0.9910435080528259,0.5764566659927368,0.07568514347076416,0.030650168657302856,-0.38184523582458496
-1.2288663387298584,-1.4743925333023071,0.7819335460662842,0.06283998489379883,-0.01646152138710022,-0.3419848680496216
-1.461525797843933,-1.2448005676269531,0.811237096786499,0.02686452865600586,-0.1234900951385498,-0.2938344478607178
-2.0080623626708984,-0.7608670592308044,0.6357911229133606,-0.04672616720199585,-0.21769848465919495,-0.2463846206665039
-2.474787950515747,-0.3958657681941986,0.3156372904777527,-0.10143512487411499,-0.28276845812797546,-0.24600297212600708
-2.574064254760742,-0.2301388829946518,0.06707030534744263,-0.11366736888885498,-0.287568598985672,-0.3341531753540039
-2.3641598224639893,-0.30043280124664307,-0.14420905709266663,-0.09212875366210938,-0.30277326703071594,-0.4219933748245239
-2.2343640327453613,-0.33611154556274414,-0.17690600454807281,-0.07701283693313599,-0.3187929689884186,-0.4373045563697815
-2.4056882858276367,-0.026097135618329048,-0.005922478623688221,-0.031884968280792236,-0.31209510564804077,-0.39940178394317627
-2.5773656368255615,0.343512624502182,0.19972935318946838,-0.0016267895698547363,-0.33182066679000854,-0.3972996175289154
-2.417233943939209,-0.8366226553916931,0.012226097285747528,-0.06716704368591309,-0.4315851926803589,-0.4357530474662781
-2.195056676864624,-0.7276467084884644,-0.40729933977127075,-0.15622782707214355,-0.5842475295066833,-0.31834810972213745
-2.013871669769287,0.23645047843456268,-0.47094735503196716,-0.31725335121154785,-0.44727176427841187,-0.5988186597824097
-1.7776182889938354,0.7381672263145447,-0.7134465575218201,-0.293327271938324,-0.404676616191864,-0.5418726205825806
-1.2290698289871216,0.9321325421333313,-0.616965651512146,-0.17315441370010376,-0.5015150904655457,-0.5911938548088074
-0.5083892941474915,0.7379322648048401,-0.6603603959083557,-0.19924229383468628,-0.5443543791770935,-0.5733540058135986
0.022737057879567146,0.2786772847175598,-0.6307210326194763,-0.24748969078063965,-0.5849676728248596,-0.40146031975746155
0.23214255273342133,-0.31579357385635376,-0.5349876880645752,-0.25118744373321533,-0.6352234482765198,-0.2234569787979126
0.16112543642520905,-0.8180018067359924,-0.38462066650390625,-0.33729904890060425,-0.6053366661071777,-0.11695930361747742
0.04081311821937561,-0.7162674069404602,-0.11125755310058594,-0.48973047733306885,-0.5255013108253479,-0.17785558104515076
0.07663819938898087,-0.4819621741771698,-0.11350852251052856,-0.5473384857177734,-0.5683735609054565,-0.3108738362789154
0.3851192593574524,-0.1300486922264099,-0.5284718871116638,-0.671317994594574,-0.6478042602539062,-0.4551042318344116
0.8516712188720703,0.21262168884277344,-1.1146332025527954,-0.7502005696296692,-0.7026272416114807,-0.5197066068649292
1.3919676542282104,0.18807373940944672,-1.5631835460662842,-0.6719760894775391,-0.6351140141487122,-0.4448956251144409
1.9131286144256592,-0.2718352675437927,-1.7038509845733643,-0.5521459579467773,-0.46351248025894165,-0.3105529844760895
2.40618634223938,-0.5242291688919067,-1.5531383752822876,-0.4922062158584595,-0.17905235290527344,-0.25528112053871155
2.7255825996398926,-0.49387165904045105,-1.4268537759780884,-0.46371644735336304,0.01945173740386963,-0.2703242897987366
2.8164823055267334,-0.393535852432251,-1.4429481029510498,-0.4426669478416443,0.1292358636856079,-0.20059701800346375
2.8401432037353516,-0.3633749783039093,-1.6254085302352905,-0.4384106397628784,0.195078045129776,-0.12137001752853394
2.989439010620117,-0.4317436218261719,-1.7973382472991943,-0.397724449634552,0.2635710835456848,-0.12490171194076538
3.215883493423462,-0.7081938982009888,-1.813223123550415,-0.2755916714668274,0.35741668939590454,-0.1263916790485382
3.3427276611328125,-1.118180751800537,-1.641620397567749,-0.11832433938980103,0.4363013505935669,-0.06125470995903015
3.3433194160461426,-1.4888571500778198,-1.4190338850021362,-0.000202178955078125,0.4851093590259552,-0.03182029724121094
3.2205352783203125,-1.639570713043213,-1.244629979133606,0.03210103511810303,0.5233069658279419,-0.039726436138153076
3.0576441287994385,-1.6965126991271973,-1.0959162712097168,0.07484060525894165,0.5401561856269836,-0.07007208466529846
2.849977493286133,-1.6388897895812988,-1.0011600255966187,0.11398488283157349,0.5656746625900269,-0.09177595376968384
2.6228017807006836,-1.551302433013916,-1.0054882764816284,0.13074761629104614,0.5639591813087463,-0.11158096790313721
2.2730536460876465,-1.3387030363082886,-0.9430513381958008,0.18343794345855713,0.5740234851837158,-0.10843706130981445
1.8043875694274902,-0.9838446378707886,-0.7833753824234009,0.26435989141464233,0.5978865027427673,-0.08299249410629272
1.3443583250045776,-0.5993067622184753,-0.5651156306266785,0.3349155783653259,0.596368670463562,-0.08153887093067169
0.9737675189971924,-0.3425874412059784,-0.40471214056015015,0.36459511518478394,0.5881449580192566,-0.08694404363632202
0.7870911955833435,-0.30685701966285706,-0.42664727568626404,0.33811473846435547,0.5538127422332764,-0.09476210176944733
0.6470156908035278,-0.3316628932952881,-0.44451001286506653,0.34864938259124756,0.5277354717254639,-0.10721629858016968
0.4464249014854431,-0.22545556724071503,-0.35765907168388367,0.4044830799102783,0.5340604186058044,-0.10419487953186035
0.17737939953804016,-0.036919549107551575,-0.19319748878479004,0.4503190517425537,0.5493261218070984,-0.09011523425579071
-0.15772467851638794,0.15552480518817902,0.007273350842297077,0.4877811074256897,0.5562112927436829,-0.06440340727567673
-0.48703891038894653,0.24098148941993713,0.14711454510688782,0.506665825843811,0.555862307548523,-0.027960538864135742
-0.7585782408714294,0.154426708817482,0.13060559332370758,0.45779407024383545,0.5373272895812988,-0.007894515991210938
-1.1813725233078003,0.14919915795326233,0.23419463634490967,0.4507986903190613,0.5595417022705078,0.02016347646713257
-1.7417064905166626,0.4103507995605469,0.5370578765869141,0.4390377402305603,0.6428868770599365,0.02672792226076126
-2.3001363277435303,0.58451908826828,0.82960045337677,0.3911357522010803,0.7097449898719788,-0.01626698672771454
-2.898052930831909,0.7287324070930481,1.0165282487869263,0.26175832748413086,0.7850270867347717,-0.045078158378601074
-3.554009199142456,1.0511603355407715,1.250477910041809,0.1204214096069336,0.8465149998664856,-0.05739679932594299
-4.18060302734375,1.5274325609207153,1.7367548942565918,0.08261668682098389,0.8955928683280945,-0.04841509461402893
-4.484367847442627,1.6365900039672852,2.382988929748535,0.030935704708099365,0.8994743227958679,-0.06665384769439697
-4.357776641845703,1.2447863817214966,3.11041522026062,-0.10883337259292603,0.8875402808189392,-0.13146862387657166
-3.6873674392700195,0.5776715874671936,3.7585623264312744,-0.322378933429718,0.8271943926811218,-0.25423339009284973
-2.3972008228302,-0.18140363693237305,4.086268424987793,-0.4993799924850464,0.6107593774795532,-0.4498403072357178
-0.7976149320602417,-0.8771889209747314,3.8319222927093506,-0.5721238255500793,0.23245874047279358,-0.5969057083129883
0.4888628125190735,-1.2531781196594238,3.01552152633667,-0.6575198769569397,-0.0993424654006958,-0.5560154318809509
1.098362922668457,-1.007592797279358,2.070556640625,-0.6725900769233704,-0.2454964518547058,-0.4126063883304596
0.9222632050514221,-0.3493311405181885,1.421787142753601,-0.5854785442352295,-0.22194898128509521,-0.21183013916015625
0.16317753493785858,0.39110565185546875,1.170707106590271,-0.4274601340293884,-0.1620182991027832,0.006770327687263489
-0.8131479620933533,1.0544724464416504,1.122767448425293,-0.3157709836959839,-0.12226104736328125,0.13298675417900085
-1.6428544521331787,1.4703128337860107,1.1445332765579224,-0.2269803285598755,-0.12644612789154053,0.14231133460998535
-2.13928484916687,1.5738147497177124,1.0308444499969482,-0.19894081354141235,-0.16554546356201172,0.07766258716583252
-2.2673161029815674,1.3727794885635376,0.658010721206665,-0.24887651205062866,-0.26207709312438965,-0.012240022420883179
-2.3734219074249268,1.1463497877120972,0.41739821434020996,-0.21587586402893066,-0.32721877098083496,-0.058618903160095215
-2.63016676902771,1.046790361404419,0.3881874084472656,-0.11483937501907349,-0.35788464546203613,-0.04870563745498657
-2.8652098178863525,1.0309723615646362,0.39903345704078674,-0.06702876091003418,-0.4106483459472656,-0.08754295110702515
-2.94421124458313,1.0053658485412598,0.3268725872039795,-0.10075050592422485,-0.45630210638046265,-0.1785644143819809
-2.908396005630493,1.0025888681411743,0.1584526151418686,-0.14423298835754395,-0.4967172145843506,-0.2602473497390747
-2.743134021759033,1.0822964906692505,-0.12835292518138885,-0.2204747200012207,-0.5309563875198364,-0.3516674041748047
-2.5053257942199707,1.3491876125335693,-0.34978896379470825,-0.2259010672569275,-0.5381143689155579,-0.43725132942199707
-2.247502088546753,1.6024025678634644,-0.4770882725715637,-0.1961510181427002,-0.5451950430870056,-0.46807175874710083
-1.9881902933120728,1.7532343864440918,-0.5652377605438232,-0.17354458570480347,-0.5451160073280334,-0.4293474555015564
-1.6363874673843384,1.770122766494751,-0.6536083817481995,-0.1884952187538147,-0.5420975089073181,-0.3938741683959961
-1.23919677734375,1.6624687910079956,-0.7661243677139282,-0.21718889474868774,-0.535530149936676,-0.34046024084091187
-0.9300955533981323,1.4419031143188477,-0.892983078956604,-0.24168914556503296,-0.5461733341217041,-0.2644761800765991
-0.7432496547698975,1.2778013944625854,-0.8918638825416565,-0.24017620086669922,-0.5265446901321411,-0.17719900608062744
-0.6244251728057861,1.2558739185333252,-0.7844236493110657,-0.24428653717041016,-0.4737451672554016,-0.14963944256305695
-0.4706712067127228,1.2226991653442383,-0.6980161666870117,-0.3051220178604126,-0.4321691393852234,-0.15133477747440338
-0.3558327555656433,1.1422940492630005,-0.7004038691520691,-0.38235050439834595,-0.4217531681060791,-0.13977156579494476
-0.2869168817996979,0.9046090841293335,-0.8072028756141663,-0.5087264776229858,-0.39222973585128784,-0.10046792030334473
-0.07151004672050476,0.6879839301109314,-0.8341789245605469,-0.6576585173606873,-0.2758824825286865,-0.11936914920806885
0.3382144272327423,0.4897818863391876,-0.7984663844108582,-0.6799961924552917,-0.2399846911430359,-0.1772506833076477
0.740379273891449,0.2529997229576111,-0.9124063849449158,-0.6593950986862183,-0.30259913206100464,-0.19462347030639648
1.054587483406067,0.17222952842712402,-1.1735801696777344,-0.664491593837738,-0.30628305673599243,-0.1621084213256836
1.390761137008667,0.2025924026966095,-1.4519084692001343,-0.6562533378601074,-0.24376937747001648,-0.13885313272476196
1.7451525926589966,0.09522164613008499,-1.6243751049041748,-0.5492498278617859,-0.18172284960746765,-0.09525296092033386
2.047520399093628,-0.21843937039375305,-1.6823710203170776,-0.4245736598968506,-0.10150346159934998,-0.030353188514709473
2.3071706295013428,-0.57679283618927,-1.6469637155532837,-0.3698156476020813,0.026699542999267578,0.003397703170776367
2.5205228328704834,-0.9349600672721863,-1.545454502105713,-0.3097710609436035,0.15839847922325134,-0.00480225682258606
2.6456050872802734,-1.2398570775985718,-1.4258593320846558,-0.2791936993598938,0.2534727454185486,-0.01944008469581604
2.700350522994995,-1.3551251888275146,-1.4076319932937622,-0.30941689014434814,0.331292986869812,-0.04671564698219299
2.61303448677063,-1.4210821390151978,-1.4997291564941406,-0.29771876335144043,0.3474559783935547,-0.03416800498962402
2.413090705871582,-1.466495394706726,-1.6248008012771606,-0.231492817401886,0.3285757899284363,-0.0111122727394104
2.1861250400543213,-1.4569298028945923,-1.7271831035614014,-0.14491790533065796,0.33108195662498474,-0.019088178873062134
1.9743614196777344,-1.4140387773513794,-1.8135277032852173,-0.07563519477844238,0.36180728673934937,-0.040115296840667725
1.772582769393921,-1.3011884689331055,-1.825252890586853,-0.00922328233718872,0.39803630113601685,-0.05716806650161743
1.55888032913208,-1.0488171577453613,-1.7351897954940796,0.059886932373046875,0.45786619186401367,-0.080008864402771
1.2932524681091309,-0.8486829400062561,-1.5898789167404175,0.14597898721694946,0.4884888231754303,-0.08141213655471802
1.0168520212173462,-0.7438310980796814,-1.5260933637619019,0.1820339560508728,0.5036832094192505,-0.07180076837539673
0.8076358437538147,-0.7025500535964966,-1.5630885362625122,0.18923348188400269,0.509108304977417,-0.08534196019172668
0.6664711236953735,-0.6718397736549377,-1.5817900896072388,0.22198814153671265,0.5193891525268555,-0.10980767011642456
0.5249407887458801,-0.5656296610832214,-1.4629766941070557,0.2987227439880371,0.5496828556060791,-0.12327754497528076
0.3746747374534607,-0.3544597029685974,-1.2154432535171509,0.37533116340637207,0.5858906507492065,-0.12355589121580124
0.25318703055381775,-0.20605039596557617,-0.9290074110031128,0.4354551434516907,0.6008259654045105,-0.12349145114421844
0.17297165095806122,-0.11026263236999512,-0.6335381269454956,0.45852112770080566,0.615395188331604,-0.116885706782341
0.10655353963375092,-0.0918969064950943,-0.33463332056999207,0.4712650775909424,0.6219125986099243,-0.11010576039552689
0.013913135975599289,-0.15870849788188934,-0.08691892772912979,0.45732855796813965,0.6284153461456299,-0.08477216958999634
-0.12584790587425232,-0.2139866203069687,0.17077159881591797,0.42756301164627075,0.6288504004478455,-0.06726472079753876
-0.2863849997520447,-0.18566371500492096,0.4941626489162445,0.41985076665878296,0.6390013694763184,-0.06779336929321289
-0.45094290375709534,-0.1594715118408203,0.8298993110656738,0.39891523122787476,0.6387660503387451,-0.07617002725601196
-0.6446839570999146,-0.23557910323143005,1.0474046468734741,0.3266047239303589,0.6433990597724915,-0.08642863482236862
-1.031105637550354,-0.261578232049942,1.2655888795852661,0.1974654197692871,0.7115561962127686,-0.07193678617477417
-1.5210496187210083,-0.05399365350604057,1.664222240447998,0.10818725824356079,0.8154013156890869,-0.07094036042690277
-1.8699871301651,0.3579653799533844,2.2204692363739014,0.09577721357345581,0.832358181476593,-0.1326097846031189
-1.9563571214675903,0.6974061727523804,2.5710110664367676,0.07869386672973633,0.7095584869384766,-0.21244287490844727
-1.9682490825653076,0.9347207546234131,2.592410087585449,-0.02588033676147461,0.5583397746086121,-0.22152914106845856
-2.028221607208252,1.1391304731369019,2.527423858642578,-0.08588677644729614,0.43847668170928955,-0.15647004544734955
-1.9960647821426392,1.2965072393417358,2.6498305797576904,-0.08948278427124023,0.3615378737449646,-0.10325981676578522
-1.7207385301589966,1.2649211883544922,2.8919172286987305,-0.08670878410339355,0.2754306197166443,-0.09456352889537811
-1.2130128145217896,0.9090433120727539,2.9962589740753174,-0.14607757329940796,0.1317984014749527,-0.11582940816879272
-0.6877292394638062,0.26613661646842957,2.813666343688965,-0.25026386976242065,-0.028817832469940186,-0.10929626226425171
-0.3786453604698181,-0.27953651547431946,2.355351209640503,-0.40349090099334717,-0.13903892040252686,-0.07892578840255737
-0.4017769396305084,-0.44548386335372925,1.8982670307159424,-0.5085124373435974,-0.1745918095111847,-0.04096877574920654
-0.7285459041595459,-0.266480952501297,1.5358951091766357,-0.5355854034423828,-0.16980484127998352,-0.011263594031333923
-1.2247110605239868,0.14273452758789062,1.181652545928955,-0.5436629056930542,-0.16552302241325378,-0.009709477424621582
-1.7004426717758179,0.6809158325195312,0.8573060631752014,-0.49526214599609375,-0.16675567626953125,-0.04467737674713135
-2.058166742324829,1.1553049087524414,0.6493534445762634,-0.3853803277015686,-0.18749234080314636,-0.09328775107860565
-2.2548182010650635,1.4323588609695435,0.5279091596603394,-0.27674442529678345,-0.22149604558944702,-0.12146724760532379
-2.2427196502685547,1.45802903175354,0.47630617022514343,-0.18053776025772095,-0.2601626515388489,-0.13955235481262207
-2.0321574211120605,1.2486218214035034,0.48813486099243164,-0.1073230504989624,-0.30799490213394165,-0.16120465099811554
-1.7034742832183838,0.898248016834259,0.5571295022964478,-0.07351422309875488,-0.3371104598045349,-0.18208567798137665
-1.4414587020874023,0.574431836605072,0.6603736877441406,-0.05001002550125122,-0.38431936502456665,-0.1820915937423706
-1.2193264961242676,0.35012274980545044,0.7516104578971863,-0.04961675405502319,-0.42487502098083496,-0.20292149484157562
-0.9059714078903198,0.13638077676296234,0.8148097395896912,-0.08390188217163086,-0.4627379775047302,-0.26236021518707275
-0.5362527370452881,-0.06291241198778152,0.8666185736656189,-0.136574387550354,-0.4885304570198059,-0.31550443172454834
-0.125824436545372,-0.21655066311359406,0.9147907495498657,-0.21254122257232666,-0.49703776836395264,-0.34614264965057373
0.36340659856796265,-0.3984520733356476,0.9094268679618835,-0.2825888395309448,-0.5338804721832275,-0.3759796619415283
0.8252297639846802,-0.5732514262199402,0.7714647054672241,-0.3691481947898865,-0.6005468964576721,-0.37187743186950684
1.1526211500167847,-0.7261984944343567,0.4941675066947937,-0.4216725826263428,-0.6682377457618713,-0.3412226438522339
1.3885314464569092,-0.747687816619873,0.11047017574310303,-0.46696001291275024,-0.6837729215621948,-0.30070245265960693
1.567463994026184,-0.6529361009597778,-0.276211678981781,-0.4853437542915344,-0.6363409161567688,-0.2879068851470947
1.631776213645935,-0.5734978914260864,-0.49194756150245667,-0.42764711380004883,-0.5452090501785278,-0.2436400055885315
1.6451430320739746,-0.5224533081054688,-0.5904848575592041,-0.37227749824523926,-0.45052701234817505,-0.1865321546792984
1.6995344161987305,-0.5984145402908325,-0.625006377696991,-0.32850509881973267,-0.3795825242996216,-0.1882563829421997
1.7626934051513672,-0.7659504413604736,-0.6527475118637085,-0.33713680505752563,-0.29800504446029663,-0.19522343575954437
1.9090337753295898,-0.9505309462547302,-0.6475147604942322,-0.4020113945007324,-0.1747889518737793,-0.23627126216888428
2.218299150466919,-1.0694314241409302,-0.5536285042762756,-0.44342660903930664,-0.06772130727767944,-0.28892332315444946
2.663242816925049,-1.2325705289840698,-0.5745694041252136,-0.4465230703353882,-0.05275017023086548,-0.3379933536052704
3.0110790729522705,-1.5666613578796387,-0.7882143259048462,-0.41403859853744507,-0.11047095060348511,-0.31855398416519165
3.1975858211517334,-1.7854849100112915,-1.0624043941497803,-0.36660927534103394,-0.10295885801315308,-0.2669488489627838
3.292623281478882,-1.8768717050552368,-1.304795503616333,-0.30307668447494507,-0.037205517292022705,-0.23917131125926971
3.2343227863311768,-1.9035844802856445,-1.508155345916748,-0.2501955032348633,0.040482789278030396,-0.19409844279289246
2.9143950939178467,-1.8155142068862915,-1.5714930295944214,-0.20567351579666138,0.15609240531921387,-0.1339321732521057
2.386245012283325,-1.6456704139709473,-1.5380939245224,-0.1602954864501953,0.24164456129074097,-0.08927005529403687
1.7693747282028198,-1.4407998323440552,-1.3976951837539673,-0.10714656114578247,0.2977672219276428,-0.08018600940704346
1.2998477220535278,-1.3065794706344604,-1.25441575050354,-0.047249436378479004,0.2964181900024414,-0.12631188333034515
1.0730773210525513,-1.2281743288040161,-1.1563434600830078,-0.0021179914474487305,0.26284217834472656,-0.2342950701713562
1.0060603618621826,-1.0961806774139404,-1.1046186685562134,0.03938257694244385,0.24384069442749023,-0.32336848974227905
1.0929523706436157,-1.0129603147506714,-1.0917959213256836,0.0812564492225647,0.2303376942873001,-0.39063531160354614
1.2495434284210205,-0.9379504919052124,-1.0791674852371216,0.10261017084121704,0.24879056215286255,-0.43298256397247314
1.2812496423721313,-0.9490114450454712,-1.012977957725525,0.1260073184967041,0.3068622946739197,-0.4200097918510437
1.1959949731826782,-0.9716336727142334,-0.9015247225761414,0.16407400369644165,0.3341553807258606,-0.38476884365081787
1.118376612663269,-0.9491662979125977,-0.7725221514701843,0.20755308866500854,0.3419094681739807,-0.4015868902206421
1.0991671085357666,-0.8996827602386475,-0.6620808243751526,0.2404547929763794,0.33814552426338196,-0.43542802333831787
1.1336495876312256,-0.8568886518478394,-0.5634266138076782,0.2622462511062622,0.336238831281662,-0.47163259983062744
1.1597118377685547,-0.8362733721733093,-0.431640625,0.2911064028739929,0.3399774432182312,-0.4741849899291992
1.1475321054458618,-0.8421247601509094,-0.2746908962726593,0.3163430690765381,0.34511232376098633,-0.4664522409439087
1.0571855306625366,-0.8029945492744446,-0.08242969959974289,0.3264464735984802,0.34918591380119324,-0.44976162910461426
0.915120005607605,-0.7253572940826416,0.10571503639221191,0.3156867027282715,0.34433650970458984,-0.4406619071960449
0.8917135000228882,-0.7311145663261414,0.32818952202796936,0.31011515855789185,0.3289243280887604,-0.4581795930862427
1.0908147096633911,-0.8141675591468811,0.5867950916290283,0.3270893692970276,0.3087579607963562,-0.5210778713226318
1.4098180532455444,-0.8603696227073669,0.8125457763671875,0.34535062313079834,0.27433842420578003,-0.5766690969467163
1.834172248840332,-0.9138585329055786,0.7958378791809082,0.2706705927848816,0.2390768826007843,-0.6082370281219482
2.237475633621216,-0.999669075012207,0.614906370639801,0.1568703055381775,0.22741304337978363,-0.6075906753540039
2.37353777885437,-0.9968026280403137,0.5152698159217834,0.10238373279571533,0.2721952199935913,-0.5398681163787842
2.2643518447875977,-0.8377829194068909,0.5360944271087646,0.07782775163650513,0.31098487973213196,-0.4681762456893921
2.0048182010650635,-0.5327550172805786,0.6285764575004578,0.0576665997505188,0.3340611457824707,-0.4145137071609497
1.6722618341445923,-0.1430898755788803,0.7049885988235474,0.0063457489013671875,0.3337980806827545,-0.3836432695388794
1.2512189149856567,0.28572171926498413,0.7614319920539856,-0.051128089427948,0.35842201113700867,-0.3492755889892578
0.8469702005386353,0.8239148259162903,0.8777693510055542,-0.08012551069259644,0.36345380544662476,-0.3084127902984619
0.6741317510604858,1.4768648147583008,1.0317217111587524,-0.04960578680038452,0.311455100774765,-0.2869281768798828
0.6855973601341248,2.0642595291137695,1.1075773239135742,-0.030236005783081055,0.21684375405311584,-0.24742770195007324
0.6506059765815735,2.5872225761413574,1.0874733924865723,-0.03813987970352173,0.12351563572883606,-0.1275196075439453
0.42124101519584656,3.0108041763305664,1.1082558631896973,-0.02956336736679077,0.06160783767700195,0.04859989881515503
0.1322202831506729,3.147721529006958,1.1860116720199585,0.00580519437789917,0.00912410020828247,0.20210754871368408
0.010037600994110107,2.852550506591797,1.2341219186782837,0.019530117511749268,-0.04430598020553589,0.27615606784820557
0.08032423257827759,2.239187717437744,1.1835519075393677,-0.02046811580657959,-0.10393276810646057,0.2956116497516632
0.21969673037528992,1.4954065084457397,1.100801706314087,-0.05085873603820801,-0.13724219799041748,0.2993341088294983
0.3134036362171173,0.7757802605628967,0.9970371723175049,-0.11205953359603882,-0.12996208667755127,0.30267423391342163
0.1805608570575714,0.1927918791770935,0.9374997019767761,-0.1540127992630005,-0.09620600938796997,0.31464332342147827
-0.11798449605703354,-0.13336968421936035,0.9480741620063782,-0.20632898807525635,-0.05710592865943909,0.29577556252479553
-0.380702942609787,-0.22851431369781494,1.0181888341903687,-0.24525219202041626,-0.03660598397254944,0.21800032258033752
-0.4229986369609833,-0.21378841996192932,1.0724079608917236,-0.2591665983200073,-0.05040886998176575,0.09897580742835999
-0.20400629937648773,-0.26969707012176514,1.0350663661956787,-0.2537475824356079,-0.12500017881393433,-0.010192245244979858
0.21676933765411377,-0.3506616950035095,0.8958253264427185,-0.24305588006973267,-0.19673949480056763,-0.08913253247737885
0.7366357445716858,-0.45243334770202637,0.6940885186195374,-0.2114240527153015,-0.2540329694747925,-0.12727968394756317
1.2437992095947266,-0.5096707940101624,0.5224197506904602,-0.19218802452087402,-0.265705406665802,-0.12843608856201172
1.5587631464004517,-0.560783326625824,0.4425097107887268,-0.15346044301986694,-0.24905449151992798,-0.0686783492565155
1.6402521133422852,-0.6557867527008057,0.3482729494571686,-0.13296669721603394,-0.2524428367614746,0.030111372470855713
1.5128026008605957,-0.7603165507316589,0.22416990995407104,-0.12164080142974854,-0.2599121928215027,0.11575108766555786
1.225943922996521,-0.829967737197876,0.07915813475847244,-0.11489641666412354,-0.2664538621902466,0.1677837371826172
0.8707663416862488,-0.8176244497299194,-0.04775148257613182,-0.1111142635345459,-0.26086294651031494,0.1798318326473236
0.5231859683990479,-0.7406394481658936,-0.17175959050655365,-0.10385531187057495,-0.24464309215545654,0.14822465181350708
0.25224506855010986,-0.6531342267990112,-0.2522714138031006,-0.08378201723098755,-0.23174208402633667,0.09270921349525452
0.04497420787811279,-0.5868493914604187,-0.3411498963832855,-0.060925841331481934,-0.2349579930305481,0.03391242027282715
-0.17783604562282562,-0.5009669661521912,-0.43946346640586853,-0.05765265226364136,-0.2385944128036499,0.008611932396888733
-0.3221057951450348,-0.368760347366333,-0.517789900302887,-0.06629061698913574,-0.20415371656417847,-0.02335725724697113
-0.319439560174942,-0.32815563678741455,-0.5806605815887451,-0.04847252368927002,-0.186283677816391,-0.0860690176486969
-0.13380011916160583,-0.3401694893836975,-0.5957858562469482,-0.03253978490829468,-0.16552597284317017,-0.15970540046691895
0.16762126982212067,-0.30200186371803284,-0.5796342492103577,-0.03542298078536987,-0.12954121828079224,-0.22708956897258759
0.4899101257324219,-0.27545166015625,-0.584128737449646,-0.048287391662597656,-0.10578656196594238,-0.25768816471099854
0.713851273059845,-0.3297773003578186,-0.6201071739196777,-0.04897576570510864,-0.11366695165634155,-0.2315903902053833
0.8654054403305054,-0.3583810031414032,-0.6483693718910217,-0.04381096363067627,-0.09285283088684082,-0.203993558883667
0.9619585275650024,-0.341115802526474,-0.65050208568573,-0.05056154727935791,-0.07743704319000244,-0.1968735307455063
1.0108065605163574,-0.23428454995155334,-0.6315876245498657,-0.05481159687042236,-0.04021236300468445,-0.18459753692150116
1.0783860683441162,-0.11381392180919647,-0.6547854542732239,-0.05725318193435669,-0.01617470383644104,-0.1814141720533371
1.0316346883773804,-0.012209045700728893,-0.6241957545280457,-0.04742717742919922,0.02288639545440674,-0.1595696210861206
0.9139286875724792,0.03388294205069542,-0.5245854258537292,-0.08787351846694946,0.12456512451171875,-0.11635719239711761
0.8679519891738892,0.08216022700071335,-0.3091672360897064,-0.13408231735229492,0.22045084834098816,-0.11183834075927734
0.9269348978996277,0.20079046487808228,-0.019445674493908882,-0.16036272048950195,0.26429277658462524,-0.12113188207149506
1.0284157991409302,0.10385874658823013,0.16318471729755402,-0.18026578426361084,0.22610419988632202,-0.11467140913009644
1.1460832357406616,-0.08814870566129684,0.25663405656814575,-0.19681000709533691,0.1472056806087494,-0.08618158102035522
1.3570890426635742,-0.2858389914035797,0.24744912981987,-0.1973748803138733,0.07174098491668701,-0.08248740434646606
1.6907689571380615,-0.5088931918144226,0.10583135485649109,-0.17394018173217773,-0.03193163871765137,-0.09783095121383667
2.026571273803711,-0.793354332447052,-0.12423494458198547,-0.13302487134933472,-0.11260002851486206,-0.09513220191001892
2.192894458770752,-0.9998858571052551,-0.375582218170166,-0.12040334939956665,-0.08016452193260193,-0.05801078677177429
2.1784090995788574,-1.1631499528884888,-0.5796415209770203,-0.12094920873641968,0.01186332106590271,-0.009899288415908813
2.0106887817382812,-1.3044531345367432,-0.7257619500160217,-0.10870075225830078,0.10778865218162537,0.010919690132141113
1.6349424123764038,-1.2936794757843018,-0.7812814116477966,-0.07759857177734375,0.16853567957878113,0.023021936416625977
1.1032795906066895,-1.0527698993682861,-0.7823877334594727,-0.046791911125183105,0.19589796662330627,0.02170547842979431
0.6178302764892578,-0.690719723701477,-0.8229637145996094,-0.03948068618774414,0.20887455344200134,-0.015805840492248535
0.31414321064949036,-0.3347110450267792,-0.9295199513435364,-0.04620194435119629,0.20812901854515076,-0.07331228256225586
0.18672379851341248,-0.05465412139892578,-1.0055177211761475,-0.022401094436645508,0.2245350033044815,-0.11210383474826813
0.23152707517147064,0.0794425681233406,-1.0379620790481567,0.023119866847991943,0.24604736268520355,-0.13186779618263245
0.3221795856952667,0.029291391372680664,-1.020475149154663,0.07865893840789795,0.2580963373184204,-0.1124543845653534
0.367180198431015,-0.09184325486421585,-0.9999501705169678,0.11710679531097412,0.28112757205963135,-0.0743306577205658
0.39426296949386597,-0.2644628584384918,-0.9591306447982788,0.15205156803131104,0.2875840663909912,-0.05867193639278412
0.38608792424201965,-0.38985374569892883,-0.860889732837677,0.1879265308380127,0.310450941324234,-0.06510335206985474
0.3208707869052887,-0.3677627444267273,-0.7101010680198669,0.20700550079345703,0.3524037003517151,-0.07150982320308685
0.2675616145133972,-0.34419912099838257,-0.5395510792732239,0.23185181617736816,0.3770350515842438,-0.09808802604675293
0.23366881906986237,-0.30593663454055786,-0.39354974031448364,0.22180438041687012,0.39601758122444153,-0.11362956464290619
0.19768713414669037,-0.2331656515598297,-0.22973154485225677,0.21277523040771484,0.41838976740837097,-0.12271925806999207
0.1630202829837799,-0.19971302151679993,-0.11001492291688919,0.20199161767959595,0.41856032609939575,-0.11425954103469849
0.13708768784999847,-0.1348564624786377,-0.025871217250823975,0.18100965023040771,0.41021299362182617,-0.10313701629638672
0.10778985172510147,-0.12510693073272705,0.07918229699134827,0.20942848920822144,0.38176479935646057,-0.09114204347133636
0.06186477467417717,-0.10779938101768494,0.1602081060409546,0.2219538688659668,0.34505516290664673,-0.07105785608291626
-0.0010505914688110352,-0.05375492945313454,0.23011627793312073,0.23524940013885498,0.31361037492752075,-0.055124759674072266
-0.08819648623466492,0.03240196034312248,0.3030836880207062,0.25487011671066284,0.2823702394962311,-0.036634206771850586
-0.20661695301532745,0.10156751424074173,0.36896610260009766,0.2668039798736572,0.25890302658081055,-0.018919944763183594
-0.3726906180381775,0.18239909410476685,0.460488498210907,0.2673826217651367,0.25747644901275635,0.0048743486404418945
-0.5107405185699463,0.2751563787460327,0.5702942609786987,0.2535211443901062,0.2733702063560486,0.016253888607025146
-0.5646529197692871,0.3553689122200012,0.6159308552742004,0.19547677040100098,0.28432583808898926,0.004360005259513855
-0.7546702027320862,0.49162557721138,0.6534332633018494,0.14892613887786865,0.2916792631149292,0.015791893005371094
-1.108616828918457,0.6729438304901123,0.6807291507720947,0.12731337547302246,0.28360915184020996,0.060973599553108215
-1.49114191532135,0.8303459882736206,0.8331050276756287,0.15174084901809692,0.2515559792518616,0.08012022078037262
-1.717617392539978,0.855232298374176,1.1129534244537354,0.20847827196121216,0.22355498373508453,0.06598372757434845
-1.7384226322174072,0.5934163331985474,1.3711177110671997,0.18899857997894287,0.1923392117023468,0.009091019630432129
-1.7060962915420532,0.32838237285614014,1.5686396360397339,0.023790597915649414,0.2527534067630768,-0.03700396418571472
-1.6424518823623657,0.0986049622297287,1.7770328521728516,-0.14328503608703613,0.3264697194099426,-0.08213344216346741
-1.5144423246383667,0.00675776693969965,2.0134451389312744,-0.2597329616546631,0.33486369252204895,-0.1500697135925293
-1.3136869668960571,-0.025775395333766937,2.2135026454925537,-0.2814900279045105,0.2204224169254303,-0.22365246713161469
-1.007448434829712,0.019189514219760895,2.185441732406616,-0.2833091616630554,0.01330915093421936,-0.28483647108078003
-0.588483452796936,0.14466889202594757,1.7854331731796265,-0.348625123500824,-0.18083453178405762,-0.32081472873687744
-0.17714233696460724,0.2718990743160248,1.265665888786316,-0.3760976791381836,-0.3124719262123108,-0.30234479904174805
0.1913539320230484,0.2677735686302185,0.8780257701873779,-0.3143244981765747,-0.37730175256729126,-0.2243555784225464
0.45055145025253296,0.15724018216133118,0.6268490552902222,-0.2071894407272339,-0.3986527919769287,-0.14414668083190918
0.48961392045021057,0.1049470454454422,0.4990070164203644,-0.14696580171585083,-0.3778700828552246,-0.05110335350036621
0.3011166751384735,0.11681659519672394,0.4385063052177429,-0.14925110340118408,-0.3390813171863556,0.03050053119659424
-0.10315730422735214,0.207016259431839,0.4582485854625702,-0.18728268146514893,-0.2679487466812134,0.09590962529182434
-0.6001101732254028,0.23450393974781036,0.512445867061615,-0.24070262908935547,-0.2269172966480255,0.13025698065757751
-0.9562888741493225,0.2772970497608185,0.5078681111335754,-0.2944897413253784,-0.21326065063476562,0.08691269159317017
-1.0673713684082031,0.36093538999557495,0.3669217526912689,-0.34513670206069946,-0.2666926383972168,-0.03638887405395508
-1.0357822179794312,0.5532570481300354,0.15309880673885345,-0.336733877658844,-0.34755194187164307,-0.12781910598278046
-0.9722923040390015,0.7461116909980774,-0.053185462951660156,-0.27350854873657227,-0.42091506719589233,-0.15245100855827332
-0.834698498249054,0.8605239391326904,-0.22056913375854492,-0.20647406578063965,-0.4496535658836365,-0.14510634541511536
-0.5677816271781921,0.802280843257904,-0.3101279139518738,-0.14780956506729126,-0.4388105273246765,-0.1437368094921112
-0.22743859887123108,0.5986402034759521,-0.33809894323349,-0.10948407649993896,-0.41202473640441895,-0.12070703506469727
0.12552183866500854,0.3112727701663971,-0.3471446931362152,-0.08524692058563232,-0.38661909103393555,-0.09677408635616302
0.3176160752773285,0.05247865244746208,-0.3517322540283203,-0.08656203746795654,-0.37212830781936646,-0.0580744743347168
0.33216989040374756,-0.07910730689764023,-0.3130358159542084,-0.08493989706039429,-0.34695690870285034,-0.0036616772413253784
0.32614806294441223,-0.1968487650156021,-0.27013468742370605,-0.10075390338897705,-0.3270112872123718,-0.0058969855308532715
0.4123739004135132,-0.362616628408432,-0.3338254392147064,-0.15898382663726807,-0.3124677836894989,-0.04350636899471283
0.5602920055389404,-0.49918463826179504,-0.49997517466545105,-0.23246407508850098,-0.30497169494628906,-0.08150199055671692
0.7227988243103027,-0.6089044213294983,-0.682880163192749,-0.24989718198776245,-0.29849639534950256,-0.1012716144323349
0.9313831329345703,-0.6733347773551941,-0.931492269039154,-0.2656732201576233,-0.280133992433548,-0.1316545456647873
1.1007555723190308,-0.6306963562965393,-1.0821938514709473,-0.24407893419265747,-0.23899737000465393,-0.1450817734003067
1.2107783555984497,-0.5130929350852966,-1.0218794345855713,-0.1445397138595581,-0.16515079140663147,-0.14670515060424805
1.3054900169372559,-0.5459887385368347,-0.9133332371711731,-0.06450033187866211,-0.11248975992202759,-0.1559230089187622
1.353090524673462,-0.6971736550331116,-0.8031639456748962,-0.050671279430389404,-0.04069465398788452,-0.1687171310186386
1.4769796133041382,-0.7708911895751953,-0.7082238793373108,-0.05504870414733887,0.03939181566238403,-0.22081530094146729
1.8828645944595337,-0.7969146370887756,-0.6269320249557495,-0.043735623359680176,0.11191639304161072,-0.34219837188720703
2.4402828216552734,-0.7958491444587708,-0.5420604944229126,-0.05737590789794922,0.22050702571868896,-0.4356488287448883
2.963514566421509,-0.7317265868186951,-0.3577725291252136,-0.0724983811378479,0.37585413455963135,-0.42390018701553345
3.2913026809692383,-0.7929384708404541,0.010483995079994202,0.008731245994567871,0.44363632798194885,-0.32828596234321594
3.3333210945129395,-0.965023934841156,0.37991878390312195,0.10861176252365112,0.3917417526245117,-0.21255914866924286
3.1442549228668213,-1.1595959663391113,0.5621553063392639,0.1375809907913208,0.32195791602134705,-0.13533471524715424
2.955933094024658,-1.2135981321334839,0.5042074918746948,0.12318605184555054,0.22902819514274597,-0.13131731748580933
2.892106294631958,-1.181563138961792,0.3586893081665039,0.12708932161331177,0.16772526502609253,-0.18739251792430878
2.8544631004333496,-1.0306663513183594,0.2607576251029968,0.17187482118606567,0.14736539125442505,-0.22566577792167664
2.6954240798950195,-0.887162446975708,0.2335183471441269,0.22049903869628906,0.16053777933120728,-0.22077059745788574
2.3723044395446777,-0.6896312832832336,0.25866198539733887,0.24961018562316895,0.1930629312992096,-0.17966419458389282
1.9997406005859375,-0.5660009980201721,0.3088941276073456,0.28968703746795654,0.1869296431541443,-0.16077160835266113
1.7062574625015259,-0.5681459307670593,0.29817283153533936,0.30682575702667236,0.1660168468952179,-0.17649966478347778
1.5192809104919434,-0.6210801601409912,0.24495002627372742,0.3057803511619568,0.14979013800621033,-0.21866023540496826
1.449521541595459,-0.686536431312561,0.17805267870426178,0.2746911644935608,0.1701633334159851,-0.2617496848106384
1.425429344177246,-0.6920305490493774,0.1837264746427536,0.25631046295166016,0.23461607098579407,-0.3041090965270996
1.3855035305023193,-0.6747017502784729,0.23482662439346313,0.248418927192688,0.2767236828804016,-0.3221220374107361
1.3295598030090332,-0.5799463987350464,0.35629427433013916,0.24517416954040527,0.3008255660533905,-0.333135187625885
1.3000093698501587,-0.45939528942108154,0.505646288394928,0.25621795654296875,0.28821271657943726,-0.3450486660003662
1.3218979835510254,-0.3741760551929474,0.6137593984603882,0.24743729829788208,0.2584134340286255,-0.3482258915901184
1.3871498107910156,-0.3827512860298157,0.6757639646530151,0.202936589717865,0.23404505848884583,-0.3263865113258362
1.4751240015029907,-0.4370306730270386,0.8578434586524963,0.1890445351600647,0.2413358986377716,-0.299627423286438
1.6492462158203125,-0.4723871648311615,1.2115520238876343,0.18426191806793213,0.2708245515823364,-0.29891282320022583
1.9690109491348267,-0.6388217806816101,1.598999261856079,0.17855381965637207,0.24516671895980835,-0.311069130897522
2.444488763809204,-0.9484617710113525,1.8259555101394653,0.11556756496429443,0.18042737245559692,-0.31819969415664673
3.008925437927246,-1.3345816135406494,1.8580809831619263,-0.005756378173828125,0.10144102573394775,-0.314270555973053
3.561145305633545,-1.7333332300186157,1.7996348142623901,-0.08103924989700317,0.04630365967750549,-0.2897467613220215
4.035605430603027,-2.0909605026245117,1.6569538116455078,-0.13925647735595703,-0.0003975331783294678,-0.24902234971523285
4.372419357299805,-2.3388571739196777,1.4532214403152466,-0.183180570602417,-0.029868990182876587,-0.20079022645950317
4.5233659744262695,-2.4581899642944336,1.2258836030960083,-0.21317124366760254,-0.046755194664001465,-0.15243470668792725
4.43543004989624,-2.4145560264587402,0.9626910090446472,-0.22942501306533813,-0.07378906011581421,-0.09153509140014648
4.074490547180176,-2.149616003036499,0.71880704164505,-0.22185111045837402,-0.10039275884628296,-0.026743903756141663
3.5250134468078613,-1.73175048828125,0.5118445158004761,-0.20724791288375854,-0.11884260177612305,0.029862642288208008
2.9304513931274414,-1.3274339437484741,0.29685503244400024,-0.19737643003463745,-0.13539999723434448,0.06031423807144165
2.384716510772705,-1.0173754692077637,0.07653091847896576,-0.1917821764945984,-0.1489926278591156,0.07066357135772705
1.8795225620269775,-0.8387444019317627,-0.07874561846256256,-0.15454882383346558,-0.13946843147277832,0.07334084808826447
1.40968656539917,-0.790521502494812,-0.17109285295009613,-0.11996084451675415,-0.13110136985778809,0.06883591413497925
0.9792584180831909,-0.7370091676712036,-0.2704089283943176,-0.12729376554489136,-0.09486940503120422,0.04506026208400726
0.5140438079833984,-0.6829162240028381,-0.38535076379776,-0.14074283838272095,-0.0734691321849823,0.02007056027650833
-0.06437058001756668,-0.5273886322975159,-0.49097031354904175,-0.1277233362197876,-0.048521220684051514,0.005672641098499298
-0.5887362957000732,-0.38490626215934753,-0.6194841861724854,-0.12735968828201294,-0.04091915488243103,-0.03864574432373047
-0.9431742429733276,-0.2528690993785858,-0.7031475901603699,-0.11066776514053345,-0.025485366582870483,-0.11880266666412354
-1.0752192735671997,-0.01892673410475254,-0.8451403975486755,-0.1285860538482666,0.01291164755821228,-0.2333492636680603
-1.0743836164474487,0.19101786613464355,-1.0038975477218628,-0.09725451469421387,0.01323622465133667,-0.3160231113433838
-0.976303219795227,0.4805382192134857,-1.1232417821884155,-0.03832352161407471,0.02638345956802368,-0.3600494861602783
-0.7271918058395386,0.7304109334945679,-1.2429687976837158,0.02399212121963501,0.04286247491836548,-0.39273929595947266
-0.3273603916168213,0.8548057079315186,-1.29743492603302,0.0906304121017456,0.06935057044029236,-0.38993287086486816
0.1441192924976349,0.7985615134239197,-1.27788507938385,0.1441991925239563,0.10627782344818115,-0.33705776929855347
0.5518768429756165,0.6195285320281982,-1.1892895698547363,0.19612360000610352,0.14309148490428925,-0.2485782504081726
0.9044892191886902,0.4306681156158447,-1.024532675743103,0.21411776542663574,0.19865857064723969,-0.17580574750900269
1.1923754215240479,0.16613413393497467,-0.8718759417533875,0.20262223482131958,0.23938921093940735,-0.11152029037475586
1.3660041093826294,-0.09359318763017654,-0.7103058099746704,0.18127357959747314,0.2880874276161194,-0.047121986746788025
1.3911466598510742,-0.2712005376815796,-0.48228514194488525,0.181377112865448,0.33645182847976685,0.006157711148262024
1.338803768157959,-0.3051660656929016,-0.19421875476837158,0.19390028715133667,0.3556874990463257,0.03142845630645752
1.2984929084777832,-0.19000683724880219,0.11413122713565826,0.21763885021209717,0.3419783413410187,0.03885290026664734
1.3268530368804932,-0.023152191191911697,0.3927839696407318,0.23640871047973633,0.299915611743927,0.03463388979434967
1.3975313901901245,0.10947880893945694,0.6070432662963867,0.2565171718597412,0.25204646587371826,0.047949135303497314
1.533310055732727,0.1617618352174759,0.7616695165634155,0.24938368797302246,0.21766923367977142,0.06757849454879761
1.6975376605987549,0.15252026915550232,0.9242039918899536,0.2308853268623352,0.21775099635124207,0.09367042779922485
1.8168264627456665,0.10142983496189117,1.1278425455093384,0.214166522026062,0.22629645466804504,0.13314402103424072
1.8258094787597656,0.049535807222127914,1.3771488666534424,0.19744908809661865,0.22577691078186035,0.18583561480045319
1.6485539674758911,0.021309373900294304,1.6000573635101318,0.16048520803451538,0.19517642259597778,0.24775898456573486
1.245322585105896,0.055724162608385086,1.6881364583969116,0.09430480003356934,0.13705366849899292,0.31663936376571655
0.6629390120506287,0.1692184954881668,1.6673754453659058,0.01639801263809204,0.056219130754470825,0.3801589608192444
0.04545406624674797,0.3227745294570923,1.5309700965881348,-0.06295454502105713,0.00590437650680542,0.3886256814002991
-0.4207088351249695,0.3795262277126312,1.3726332187652588,-0.12277394533157349,-0.04252654314041138,0.33137989044189453
-0.6793421506881714,0.3154943585395813,1.295758605003357,-0.13290828466415405,-0.07375666499137878,0.23743095993995667
-0.735675573348999,0.19539713859558105,1.2341173887252808,-0.14217591285705566,-0.08737069368362427,0.13016802072525024
-0.6262716054916382,-0.012443880550563335,1.1199951171875,-0.16074752807617188,-0.1284816861152649,0.036286309361457825
-0.42249464988708496,-0.24489031732082367,0.9810933470726013,-0.16778457164764404,-0.17695844173431396,-0.03917074203491211
-0.19677303731441498,-0.3673558533191681,0.8414883017539978,-0.17255628108978271,-0.19840171933174133,-0.09216994047164917
0.03832579031586647,-0.3783034086227417,0.7075430750846863,-0.1613127589225769,-0.2157534956932068,-0.1291400045156479
0.2828379273414612,-0.299357146024704,0.5617713928222656,-0.14553415775299072,-0.23856505751609802,-0.16000179946422577
0.4473626911640167,-0.09923243522644043,0.43928417563438416,-0.12886297702789307,-0.25205153226852417,-0.1601029634475708
0.5189884901046753,0.10635138303041458,0.41473153233528137,-0.08243608474731445,-0.25747737288475037,-0.12916527688503265
0.6096208691596985,0.1706756204366684,0.4140656888484955,-0.05236595869064331,-0.2551334500312805,-0.10201820731163025
0.7607364654541016,0.024652088060975075,0.39128053188323975,-0.06958967447280884,-0.2532937526702881,-0.07033157348632812
0.8674083352088928,-0.16738659143447876,0.37710586190223694,-0.1011728048324585,-0.26090848445892334,-0.03985637426376343
0.845636785030365,-0.32382962107658386,0.37213292717933655,-0.13666826486587524,-0.2471126914024353,-0.001847982406616211
0.6954211592674255,-0.4183807969093323,0.30382040143013,-0.18178153038024902,-0.26966023445129395,0.02716958522796631
0.4702221155166626,-0.4900558292865753,0.18504886329174042,-0.23458784818649292,-0.28594881296157837,0.011196494102478027
0.21806637942790985,-0.5383997559547424,0.05129314213991165,-0.32106512784957886,-0.2449411153793335,-0.018809080123901367
0.07934311777353287,-0.5563070774078369,-0.07218512147665024,-0.4032125473022461,-0.17203766107559204,-0.07069632411003113
0.11385298520326614,-0.5864928364753723,-0.22814035415649414,-0.45210176706314087,-0.156588613986969,-0.13816344738006592
0.23248575627803802,-0.6305716633796692,-0.4654894769191742,-0.4698793292045593,-0.17464035749435425,-0.17773693799972534
0.39829203486442566,-0.5420569181442261,-0.7384356260299683,-0.4633972644805908,-0.19033688306808472,-0.190185546875
0.6321706175804138,-0.2992316782474518,-1.0237274169921875,-0.42565858364105225,-0.1772962212562561,-0.20245735347270966
0.8745566606521606,-0.04524462670087814,-1.2377502918243408,-0.3505215048789978,-0.14553838968276978,-0.1896514892578125
1.0894290208816528,-0.011782506480813026,-1.3377139568328857,-0.2370467185974121,-0.12229025363922119,-0.13359272480010986
1.2743924856185913,-0.10636551678180695,-1.375558614730835,-0.17694199085235596,-0.03425171971321106,-0.07492153346538544
1.4550788402557373,-0.30431586503982544,-1.3392934799194336,-0.15166020393371582,0.06749853491783142,-0.04266923666000366
1.5868459939956665,-0.5568082928657532,-1.2171010971069336,-0.11205053329467773,0.14874684810638428,-0.018817409873008728
1.59123957157135,-0.7497485280036926,-1.0686006546020508,-0.07469463348388672,0.19251137971878052,0.00441819429397583
1.4617773294448853,-0.8421626687049866,-0.9262725114822388,-0.04097503423690796,0.20465362071990967,0.033096686005592346
1.2820897102355957,-0.8208655714988708,-0.8635647892951965,-0.033657193183898926,0.20039409399032593,0.04436695575714111
1.1083612442016602,-0.7688158750534058,-0.886087954044342,-0.01987379789352417,0.1684483289718628,0.029473841190338135
0.9492846727371216,-0.6576736569404602,-0.8916208744049072,0.0203092098236084,0.14570167660713196,0.01396191120147705
0.8568658232688904,-0.6055302619934082,-0.9171077013015747,0.06047964096069336,0.13775378465652466,-0.0061626434326171875
0.8378238081932068,-0.6045771241188049,-0.9179950952529907,0.09605157375335693,0.1478845328092575,-0.02500896155834198
0.8125004768371582,-0.6188477277755737,-0.9358175992965698,0.11353027820587158,0.17422311007976532,-0.03377483785152435
0.7459957003593445,-0.6471190452575684,-0.9275291562080383,0.1269521713256836,0.2040116786956787,-0.02475529909133911
0.6372263431549072,-0.6408921480178833,-0.8870413899421692,0.14251405000686646,0.24296171963214874,-0.021013781428337097
0.49798718094825745,-0.6104200482368469,-0.833976686000824,0.16382503509521484,0.26843494176864624,-0.022204577922821045
0.36268752813339233,-0.5737351775169373,-0.7624194622039795,0.1917312741279602,0.28172925114631653,-0.03081303834915161
0.2669065296649933,-0.48955124616622925,-0.7189227938652039,0.19666022062301636,0.2912296950817108,-0.05150746554136276
0.1796363741159439,-0.43431246280670166,-0.6659162044525146,0.2222699522972107,0.2891615927219391,-0.06551290303468704
0.08931637555360794,-0.3469182550907135,-0.5682229995727539,0.25462615489959717,0.297468364238739,-0.06369727849960327
0.04259885102510452,-0.29937949776649475,-0.48734262585639954,0.2682790160179138,0.31171053647994995,-0.07477116584777832
-0.023070165887475014,-0.32526877522468567,-0.38084927201271057,0.27974873781204224,0.3265584707260132,-0.07310747355222702
-0.15227477252483368,-0.3134487271308899,-0.25354984402656555,0.27121758460998535,0.3581832945346832,-0.06500828266143799
-0.33779072761535645,-0.3267439603805542,-0.1139695793390274,0.2576570510864258,0.38730543851852417,-0.05893528461456299
-0.5206805467605591,-0.3333336114883423,-0.04681052267551422,0.2033851146697998,0.40800702571868896,-0.06257617473602295
-0.7717488408088684,-0.4421064257621765,0.003839139360934496,0.14300543069839478,0.443204790353775,-0.08203017711639404
-1.2228143215179443,-0.5028135776519775,0.17653681337833405,0.057558298110961914,0.5836668014526367,-0.0789710283279419
-1.683639645576477,-0.09068663418292999,0.5174484848976135,-0.024453043937683105,0.7416951656341553,-0.11039584875106812
-1.9425666332244873,0.4873102903366089,0.8837518692016602,0.011303186416625977,0.7660815715789795,-0.2118316888809204
-1.9592846632003784,0.8282564282417297,1.1908504962921143,0.11491978168487549,0.5709949135780334,-0.27551597356796265
-1.8032420873641968,1.1054638624191284,1.3339182138442993,0.1349746584892273,0.4346667528152466,-0.28537648916244507
-1.5883002281188965,1.2156050205230713,1.3490829467773438,0.11751949787139893,0.33435457944869995,-0.23468095064163208
-1.3475894927978516,1.1435627937316895,1.4005597829818726,0.129197359085083,0.24395646154880524,-0.15460264682769775
-1.04694402217865,0.9046075344085693,1.5167639255523682,0.1475999355316162,0.16245613992214203,-0.10007618367671967
-0.6768654584884644,0.5497251152992249,1.5349856615066528,0.08535617589950562,0.10620862245559692,-0.07602876424789429
-0.3400742709636688,0.20084905624389648,1.3705646991729736,-0.04132324457168579,0.08877868950366974,-0.0506235808134079
-0.20388074219226837,-0.05109694227576256,1.1244077682495117,-0.13972032070159912,0.09593582153320312,-0.000993773341178894
-0.35969793796539307,-0.048155926167964935,0.9946066737174988,-0.15510839223861694,0.11975476145744324,0.06837880611419678
-0.714778482913971,0.29641640186309814,0.9796803593635559,-0.12945908308029175,0.11626094579696655,0.11650306731462479
-1.261256456375122,0.7249873876571655,0.8979835510253906,-0.09751641750335693,0.07004174590110779,0.15680031478405
-2.0353710651397705,1.0969332456588745,0.7649521231651306,-0.05033993721008301,-0.01027938723564148,0.22300755977630615
-2.8048181533813477,1.4004182815551758,0.7009201049804688,0.019238591194152832,-0.0492989718914032,0.25415003299713135
-3.2714297771453857,1.5329574346542358,0.6889113783836365,0.06671196222305298,-0.06955379247665405,0.17808307707309723
-3.3912124633789062,1.5638796091079712,0.7163196802139282,0.06404703855514526,-0.05513566732406616,0.061758339405059814
-3.2344961166381836,1.466813087463379,0.7725405097007751,0.04324084520339966,-0.05149960517883301,-0.040916383266448975
-2.980029821395874,1.2625945806503296,0.8160028457641602,0.019354939460754395,-0.08652186393737793,-0.10160684585571289
-2.7837257385253906,1.0570107698440552,0.846301257610321,-0.008702397346496582,-0.13446027040481567,-0.1233716607093811
-2.626171350479126,0.8745522499084473,0.8386329412460327,-0.03390312194824219,-0.19079777598381042,-0.14330901205539703
-2.3947436809539795,0.7655885219573975,0.7840854525566101,-0.07196635007858276,-0.2404876947402954,-0.18249261379241943
-2.110150098800659,0.7455382943153381,0.7220880389213562,-0.1073947548866272,-0.2809537649154663,-0.23012113571166992
-1.8962361812591553,0.807522714138031,0.6542623043060303,-0.13282394409179688,-0.30520522594451904,-0.24796313047409058
-1.8353228569030762,0.8455929756164551,0.6118178963661194,-0.13831913471221924,-0.33935415744781494,-0.223984956741333
-1.8252687454223633,0.9446337223052979,0.5222989916801453,-0.18423277139663696,-0.3569016456604004,-0.20911335945129395
-1.7110638618469238,1.0475345849990845,0.4202840328216553,-0.2272571325302124,-0.36170661449432373,-0.23582148551940918
-1.4729363918304443,1.105057716369629,0.36468780040740967,-0.23137450218200684,-0.38121914863586426,-0.2607108950614929
-1.1277951002120972,1.0545876026153564,0.29367539286613464,-0.23967671394348145,-0.4083862900733948,-0.2710891366004944
-0.7736139893531799,0.870552659034729,0.22434887290000916,-0.2475162148475647,-0.42586541175842285,-0.2508854866027832
-0.5094786882400513,0.6655495166778564,0.1856680065393448,-0.27763402462005615,-0.41226083040237427,-0.20363354682922363
-0.27528151869773865,0.49081602692604065,0.19627803564071655,-0.30676090717315674,-0.38047701120376587,-0.18077099323272705
-0.05644286051392555,0.39781805872917175,0.1941942274570465,-0.34006959199905396,-0.3710407614707947,-0.18759483098983765
0.11127260327339172,0.46552714705467224,0.10769456624984741,-0.42912155389785767,-0.3601086139678955,-0.19251620769500732
0.18179255723953247,0.5267446637153625,0.004452995024621487,-0.5089544057846069,-0.31580930948257446,-0.17043644189834595
0.24567851424217224,0.5640214681625366,-0.033851779997348785,-0.5630699396133423,-0.25292545557022095,-0.1279904842376709
0.46508875489234924,0.5076603293418884,-0.09997787326574326,-0.5653006434440613,-0.27538543939590454,-0.13045231997966766
0.7564125061035156,0.3554226756095886,-0.2957781255245209,-0.5373692512512207,-0.3971288204193115,-0.13742923736572266
1.069872498512268,0.18653066456317902,-0.617321252822876,-0.5011919140815735,-0.46502089500427246,-0.11797654628753662
1.4475806951522827,0.09855089336633682,-0.9154942631721497,-0.47090524435043335,-0.4371378421783447,-0.09010100364685059
1.7991446256637573,-0.04691406339406967,-1.129134178161621,-0.3974624276161194,-0.36441612243652344,-0.03488342463970184
1.9982733726501465,-0.32962125539779663,-1.2939913272857666,-0.36220115423202515,-0.282127320766449,0.046857550740242004
2.0364999771118164,-0.644879937171936,-1.3428676128387451,-0.35317665338516235,-0.16291922330856323,0.11394169926643372
1.9285008907318115,-0.9956009387969971,-1.3565806150436401,-0.3633349537849426,-0.05687987804412842,0.14981669187545776
1.6736210584640503,-1.2698925733566284,-1.3882519006729126,-0.39487379789352417,0.030238211154937744,0.16463696956634521
1.4156343936920166,-1.334122657775879,-1.486661434173584,-0.43617838621139526,0.08390504121780396,0.11443936824798584
1.2393313646316528,-1.2666529417037964,-1.664361834526062,-0.46175235509872437,0.1228095293045044,0.030923932790756226
1.119126319885254,-1.1333471536636353,-1.892561674118042,-0.4453986883163452,0.13658246397972107,-0.026945173740386963
1.0275413990020752,-0.9328539371490479,-2.207319974899292,-0.42620813846588135,0.15926462411880493,-0.0572284460067749
0.9636445641517639,-0.7380200624465942,-2.495296001434326,-0.3892137408256531,0.20972278714179993,-0.05641138553619385
0.8718954920768738,-0.6499515175819397,-2.6964333057403564,-0.31329429149627686,0.298024445772171,-0.020393088459968567
0.7457931041717529,-0.6455108523368835,-2.855654716491699,-0.25054991245269775,0.3770027160644531,0.017986878752708435
0.621099591255188,-0.6462951898574829,-2.9381017684936523,-0.18918532133102417,0.4651344418525696,0.03152890503406525
0.5084714889526367,-0.5683374404907227,-2.938624143600464,-0.11275088787078857,0.5551929473876953,0.0274612158536911
0.4216620624065399,-0.5014370679855347,-2.825856924057007,-0.0036264657974243164,0.6069473028182983,0.024339675903320312
0.3762984275817871,-0.40863457322120667,-2.617424249649048,0.09813898801803589,0.6602941751480103,0.010552294552326202
0.3852090537548065,-0.37345612049102783,-2.3335025310516357,0.1935274600982666,0.680683970451355,0.000723131000995636
0.4526735246181488,-0.34163373708724976,-2.008345603942871,0.2755284309387207,0.6935902833938599,-0.004930369555950165
0.5650349855422974,-0.3475000560283661,-1.662207841873169,0.35168570280075073,0.6847842931747437,-0.006177246570587158
0.6808974742889404,-0.38834697008132935,-1.3057360649108887,0.41254085302352905,0.6771925091743469,-0.0006415173411369324
0.755017876625061,-0.4703454077243805,-0.9493087530136108,0.4539679288864136,0.6670027375221252,0.014444589614868164
0.7772859334945679,-0.5823912620544434,-0.6529502868652344,0.46408432722091675,0.6686955690383911,0.030634582042694092
0.7429982423782349,-0.7404818534851074,-0.432515412569046,0.45224785804748535,0.6555129289627075,0.05066467076539993
0.598196268081665,-0.7981886267662048,-0.1585613638162613,0.46748125553131104,0.661697268486023,0.06191205978393555
0.3205919861793518,-0.7353501915931702,0.22203798592090607,0.5081257224082947,0.6598017811775208,0.0715951919555664
-0.06470288336277008,-0.5784592032432556,0.6345945000648499,0.5233632922172546,0.6696847081184387,0.07362699508666992
-0.5460436940193176,-0.39277905225753784,1.0187641382217407,0.5018730163574219,0.6688711643218994,0.0721902847290039
-1.0289844274520874,-0.15252509713172913,1.3256372213363647,0.44014739990234375,0.6797240972518921,0.04959738254547119
-1.4529203176498413,-0.010961929336190224,1.5912457704544067,0.3608800768852234,0.6817322373390198,0.0065221767872571945
-1.9763497114181519,0.06596145778894424,1.9189611673355103,0.2437140941619873,0.7647155523300171,-0.01263713650405407
-2.5638427734375,0.3134196102619171,2.3887078762054443,0.16221296787261963,0.8579648733139038,-0.03243088722229004
-2.9504284858703613,0.6649094223976135,2.903934955596924,0.11850476264953613,0.8562959432601929,-0.11418700218200684
-3.1123180389404297,0.7636048197746277,3.2319931983947754,0.03841042518615723,0.7518995404243469,-0.2026587724685669
-3.3403897285461426,0.7769988775253296,3.348332166671753,-0.12257742881774902,0.6883012056350708,-0.21700197458267212
-3.7337043285369873,0.8001418113708496,3.3996076583862305,-0.2608377933502197,0.6333609819412231,-0.19239532947540283
-4.035738945007324,0.8103361129760742,3.511849880218506,-0.33017462491989136,0.5500670671463013,-0.225727379322052
-3.9354939460754395,0.7739866375923157,3.6880745887756348,-0.3964502811431885,0.4280504584312439,-0.356770396232605
-3.2741506099700928,0.5144100785255432,3.7786612510681152,-0.46791696548461914,0.22896668314933777,-0.5272748470306396
-2.1023201942443848,0.015509514138102531,3.4769437313079834,-0.6292348504066467,-0.020867735147476196,-0.6749109625816345
-0.7796946167945862,-0.3770596981048584,2.5040829181671143,-0.8790107369422913,-0.25848978757858276,-0.7583814859390259
0.20015443861484528,-0.2643854320049286,1.2245956659317017,-0.995991587638855,-0.3604310154914856,-0.7078699469566345
0.5305784940719604,0.17637932300567627,0.4421032965183258,-0.8155863881111145,-0.32608962059020996,-0.5129126906394958
0.33920028805732727,0.5917948484420776,0.27043771743774414,-0.4719259738922119,-0.25324535369873047,-0.28825271129608154
-0.12017832696437836,0.9726990461349487,0.37717902660369873,-0.22584736347198486,-0.2293919324874878,-0.11805987358093262
-0.6322909593582153,1.1326314210891724,0.48311665654182434,-0.0985182523727417,-0.26119768619537354,-0.018333792686462402
-0.9843520522117615,1.149474859237671,0.5416067838668823,-0.03122657537460327,-0.3010076880455017,-0.0008839890360832214
-1.1428332328796387,0.992424488067627,0.4816109538078308,-0.020803391933441162,-0.332916259765625,-0.03131520003080368
-1.2040585279464722,0.7493239045143127,0.31195807456970215,-0.04860067367553711,-0.3598366379737854,-0.046138882637023926
-1.3380476236343384,0.4855189025402069,0.24246104061603546,-0.02116483449935913,-0.37178105115890503,-0.04796541482210159
-1.5188159942626953,0.3631957173347473,0.2973724603652954,0.029001474380493164,-0.3804008960723877,-0.06558698415756226
-1.5955719947814941,0.37563344836235046,0.2907690405845642,-0.004887223243713379,-0.39166224002838135,-0.1430092453956604
-1.5901439189910889,0.48083752393722534,0.22461430728435516,-0.04573369026184082,-0.39510029554367065,-0.22172331809997559
-1.495219349861145,0.702822208404541,0.1332656890153885,-0.07716667652130127,-0.4047343134880066,-0.2821216583251953
-1.3449395895004272,0.9601185321807861,-0.010524692013859749,-0.11972105503082275,-0.39962077140808105,-0.32499057054519653
-1.142682671546936,1.116819143295288,-0.06771347671747208,-0.09916436672210693,-0.4052290916442871,-0.32231605052948
-0.7930557727813721,1.1459273099899292,-0.005249037407338619,-0.08314424753189087,-0.3838157653808594,-0.3085564970970154
-0.3099762797355652,0.948593020439148,0.0358404740691185,-0.10200810432434082,-0.3781889081001282,-0.2872556447982788
0.14471367001533508,0.6482900977134705,0.00577931571751833,-0.15392553806304932,-0.37930405139923096,-0.23632526397705078
0.43937885761260986,0.42420968413352966,-0.033001307398080826,-0.20582163333892822,-0.37086302042007446,-0.17155086994171143
0.6001718044281006,0.26013293862342834,-0.09949138015508652,-0.23802626132965088,-0.36285239458084106,-0.10696953535079956
0.6860224604606628,0.19402115046977997,-0.19764065742492676,-0.28372085094451904,-0.3410763740539551,-0.06387662887573242
0.7258821129798889,0.21644818782806396,-0.33194372057914734,-0.32603615522384644,-0.30936479568481445,-0.039979591965675354
0.7007507085800171,0.3250698447227478,-0.4215143620967865,-0.33653122186660767,-0.2825973629951477,-0.02116692066192627
0.6441691517829895,0.43043988943099976,-0.4975953996181488,-0.31066006422042847,-0.26995617151260376,0.00398688018321991
0.6348505616188049,0.45899567008018494,-0.6164079904556274,-0.2981700897216797,-0.2723066806793213,0.020838096737861633
0.5744256377220154,0.2985089421272278,-0.6758208274841309,-0.30689704418182373,-0.22825366258621216,0.043415844440460205
0.5353825688362122,0.25406980514526367,-0.5789133906364441,-0.3582324981689453,-0.07809996604919434,0.051797881722450256
0.6899524331092834,0.26192957162857056,-0.3407040238380432,-0.34919458627700806,-0.0034919381141662598,-0.004437744617462158
0.9414984583854675,-0.04403748735785484,-0.23986241221427917,-0.29021352529525757,-0.11369466781616211,-0.04981563985347748
1.1397879123687744,-0.3556375205516815,-0.3717733919620514,-0.3257540464401245,-0.2031116485595703,-0.055808886885643005
1.3994585275650024,-0.4470635652542114,-0.6368335485458374,-0.36911630630493164,-0.2176431119441986,-0.0754721462726593
1.680877923965454,-0.5609837770462036,-0.8837616443634033,-0.34111374616622925,-0.2248849868774414,-0.09910482168197632
1.7936614751815796,-0.7660672664642334,-1.0149730443954468,-0.2893284559249878,-0.16802456974983215,-0.0640997588634491
1.80158531665802,-0.8951091766357422,-1.0528706312179565,-0.30732202529907227,-0.04223990440368652,-0.033565640449523926
1.8427191972732544,-1.0712192058563232,-1.1095768213272095,-0.35493940114974976,0.07752823829650879,-0.05039620399475098
1.8748531341552734,-1.3186900615692139,-1.256919026374817,-0.38067251443862915,0.11049968004226685,-0.08375871181488037
1.7897334098815918,-1.4424998760223389,-1.5075931549072266,-0.396256685256958,0.12495467066764832,-0.09249195456504822
1.6178407669067383,-1.3370037078857422,-1.7948071956634521,-0.3938484191894531,0.15235525369644165,-0.09608995914459229
1.2778757810592651,-1.0856910943984985,-2.093595504760742,-0.35495996475219727,0.19760262966156006,-0.08970905840396881
0.7527977824211121,-0.7024044990539551,-2.333423137664795,-0.29129719734191895,0.24739789962768555,-0.04465591907501221
0.22773459553718567,-0.21684741973876953,-2.509058713912964,-0.23314231634140015,0.3266671299934387,-0.030045345425605774
-0.13795451819896698,0.1536777764558792,-2.640282154083252,-0.18004709482192993,0.40343910455703735,-0.033836543560028076
-0.3056224286556244,0.3597433567047119,-2.6913442611694336,-0.09876799583435059,0.46847084164619446,-0.042343154549598694
-0.3258667588233948,0.4619690179824829,-2.646472930908203,-0.01006019115447998,0.5342538952827454,-0.05554623901844025
-0.2588978707790375,0.4272347688674927,-2.5273492336273193,0.07397377490997314,0.5806294083595276,-0.051027700304985046
-0.14337754249572754,0.2963031530380249,-2.3666117191314697,0.14073407649993896,0.6275016665458679,-0.0404244065284729
0.006558695808053017,0.1488754153251648,-2.150282859802246,0.19363123178482056,0.6765546798706055,-0.03244352340698242
0.181303933262825,-0.013403945602476597,-1.8768806457519531,0.25838565826416016,0.7030236124992371,-0.032003358006477356
0.36518773436546326,-0.16825494170188904,-1.5901542901992798,0.31563806533813477,0.7191982269287109,-0.02254869043827057
0.4697346091270447,-0.28926554322242737,-1.3221776485443115,0.346807599067688,0.7181391716003418,-0.0014292001724243164
0.44272851943969727,-0.3391294479370117,-1.033578634262085,0.39330172538757324,0.7191864252090454,0.04177290201187134
0.31859394907951355,-0.36159977316856384,-0.7178244590759277,0.4396592378616333,0.707760214805603,0.0802469253540039
0.11919475346803665,-0.3606836199760437,-0.39950722455978394,0.47915685176849365,0.7037276029586792,0.1031201034784317
-0.17414624989032745,-0.34017932415008545,-0.04686712101101875,0.5064699649810791,0.697438657283783,0.12476271390914917
-0.5446052551269531,-0.27120906114578247,0.3626619577407837,0.5346767902374268,0.7070895433425903,0.13882648944854736
-0.935050368309021,-0.17587721347808838,0.8223865628242493,0.5466600656509399,0.7136135101318359,0.14314080774784088
-1.2687041759490967,-0.11109534651041031,1.3204878568649292,0.5370875000953674,0.7250655889511108,0.12831874191761017
-1.4647185802459717,-0.10444791615009308,1.7989943027496338,0.4889204502105713,0.7227455377578735,0.09271003305912018
-1.5457396507263184,-0.27335336804389954,2.2398829460144043,0.40710121393203735,0.7137081623077393,0.04100668430328369
-1.729903221130371,-0.5214309096336365,2.645817756652832,0.22536098957061768,0.7565513253211975,0.024685636162757874
-2.041471004486084,-0.6755325198173523,3.205134153366089,0.0670630931854248,0.8383433222770691,0.016046851873397827
-2.275057554244995,-0.7869661450386047,3.950457811355591,-0.07963871955871582,0.8541746735572815,-0.05458168685436249
-2.35591197013855,-0.9472905397415161,4.5680928230285645,-0.2286708950996399,0.7715023756027222,-0.16420328617095947
-2.374066114425659,-1.010367512702942,4.595149517059326,-0.49013185501098633,0.6281888484954834,-0.25646859407424927
-2.3834121227264404,-0.6868682503700256,4.018564701080322,-0.7710132002830505,0.46211838722229004,-0.33638352155685425
-2.4434096813201904,0.053736209869384766,3.2354519367218018,-0.9192836284637451,0.30431851744651794,-0.4035019874572754
-2.544773578643799,0.8380817174911499,2.696990489959717,-0.8477715849876404,0.1636882722377777,-0.43677830696105957
-2.5400941371917725,1.4123526811599731,2.402884006500244,-0.700038492679596,0.029370874166488647,-0.44367456436157227
-2.308177947998047,1.627378225326538,2.128546714782715,-0.6086245775222778,-0.09248867630958557,-0.4354429244995117
-1.8168087005615234,1.495814561843872,1.7947959899902344,-0.5454846620559692,-0.22392874956130981,-0.41486692428588867
-1.1522879600524902,1.1078628301620483,1.4126368761062622,-0.5034305453300476,-0.31333762407302856,-0.3918711543083191
-0.5297382473945618,0.6338716149330139,1.022592544555664,-0.45856183767318726,-0.3585866093635559,-0.33405768871307373
-0.16495729982852936,0.17191529273986816,0.7528766989707947,-0.38287514448165894,-0.3823730945587158,-0.2469789981842041
-0.11218824982643127,-0.09618023782968521,0.6392672657966614,-0.2920011878013611,-0.40498632192611694,-0.15366792678833008
-0.2836490869522095,-0.15600024163722992,0.5964596271514893,-0.22455358505249023,-0.4338023066520691,-0.09962081909179688
-0.5562940835952759,-0.03878485783934593,0.4830012619495392,-0.21497642993927002,-0.45676255226135254,-0.07487952709197998
-0.7889630198478699,0.1902959942817688,0.27121469378471375,-0.22344762086868286,-0.4838827848434448,-0.08810782432556152
-0.8855584859848022,0.3982502818107605,0.04085354134440422,-0.22466349601745605,-0.49370521306991577,-0.1263260841369629
-0.8196755051612854,0.47623443603515625,-0.1553424745798111,-0.19987905025482178,-0.4826927185058594,-0.15920943021774292
-0.6874616146087646,0.43962058424949646,-0.30933433771133423,-0.17021995782852173,-0.46817547082901,-0.1751236915588379
-0.48308420181274414,0.35615164041519165,-0.4104780852794647,-0.15425652265548706,-0.4357061982154846,-0.18539589643478394
-0.17440830171108246,0.242255300283432,-0.47969377040863037,-0.15699946880340576,-0.38610780239105225,-0.20631587505340576
0.20100365579128265,0.13571761548519135,-0.5354412794113159,-0.17251676321029663,-0.33932721614837646,-0.22022855281829834
0.5641370415687561,0.043333277106285095,-0.6059024333953857,-0.18368983268737793,-0.30043208599090576,-0.2056964635848999
0.9029488563537598,-0.03429903835058212,-0.706368625164032,-0.19685673713684082,-0.2710305452346802,-0.174957275390625
1.2191414833068848,-0.12789800763130188,-0.814617395401001,-0.18332922458648682,-0.24709349870681763,-0.13313305377960205
1.4861571788787842,-0.18837974965572357,-0.933340847492218,-0.17832928895950317,-0.22160100936889648,-0.0963747501373291
1.567810297012329,-0.31545892357826233,-1.0486582517623901,-0.15606951713562012,-0.18705672025680542,-0.026157617568969727
1.570671796798706,-0.45911017060279846,-1.1264318227767944,-0.1426296830177307,-0.1404668092727661,0.026843659579753876
1.5900999307632446,-0.6214540004730225,-1.2012465000152588,-0.1457148790359497,-0.08137530088424683,0.03625905513763428
1.6111347675323486,-0.7049068212509155,-1.2831815481185913,-0.15847021341323853,-0.017603933811187744,0.031796813011169434
1.5813926458358765,-0.6868954300880432,-1.338955044746399,-0.15313774347305298,0.060702741146087646,0.02360021322965622
1.524166226387024,-0.6357536315917969,-1.3743196725845337,-0.12253397703170776,0.11150074005126953,0.025095582008361816
1.4320907592773438,-0.6016048192977905,-1.4365828037261963,-0.10098123550415039,0.1483423113822937,0.034296341240406036
1.2927749156951904,-0.5534526705741882,-1.480360746383667,-0.06947720050811768,0.18726882338523865,0.046125829219818115
1.132004976272583,-0.47708866000175476,-1.4934351444244385,-0.027410447597503662,0.22578749060630798,0.050568751990795135
0.9692110419273376,-0.3748561143875122,-1.4995806217193604,0.017679810523986816,0.25483036041259766,0.04719221591949463
0.8224973678588867,-0.21142955124378204,-1.4474639892578125,0.06075626611709595,0.3023977279663086,0.03928917646408081
0.7475262880325317,-0.045707229524850845,-1.352002739906311,0.10863745212554932,0.3441987633705139,0.018581025302410126
0.7211878299713135,0.02061593532562256,-1.236164927482605,0.14687013626098633,0.3642575740814209,0.004362352192401886
0.7022494077682495,0.04487704113125801,-1.1365493535995483,0.15924304723739624,0.38548076152801514,0.011870920658111572
0.6628496050834656,0.04535634070634842,-1.0497591495513916,0.16867530345916748,0.39959365129470825,0.0255671888589859
0.5477560758590698,0.07129212468862534,-0.9233818650245667,0.18372708559036255,0.4282880127429962,0.051624901592731476
0.38172081112861633,0.12106908857822418,-0.7352602481842041,0.21930474042892456,0.4539310336112976,0.07609397917985916
0.24345766007900238,0.18955092132091522,-0.5047882795333862,0.25828856229782104,0.4631195664405823,0.08058740198612213
0.19722777605056763,0.24821919202804565,-0.27906543016433716,0.28942596912384033,0.4618459939956665,0.06369024515151978
0.24363388121128082,0.21736763417720795,-0.05907372385263443,0.3088919520378113,0.44320130348205566,0.05383265018463135
0.35373958945274353,0.11883878707885742,0.11080605536699295,0.3002694845199585,0.4258025586605072,0.051996953785419464
0.43626660108566284,0.04128728806972504,0.29457396268844604,0.2903527021408081,0.39797696471214294,0.07030288875102997
0.46331319212913513,0.0291835218667984,0.5573674440383911,0.2994019389152527,0.3757624626159668,0.08814416825771332
0.4880833923816681,0.019557345658540726,0.831207811832428,0.2870049476623535,0.35480788350105286,0.10401463508605957
0.5405932664871216,-0.009994437918066978,1.0732063055038452,0.25370854139328003,0.32623153924942017,0.11259692907333374
0.5663212537765503,-0.04612160101532936,1.2766648530960083,0.21363168954849243,0.2966737747192383,0.1231503039598465
0.5222398638725281,-0.06226760894060135,1.4398715496063232,0.16159284114837646,0.2544383406639099,0.14642776548862457
0.39400365948677063,-0.05093778669834137,1.5715727806091309,0.10041254758834839,0.22663724422454834,0.17044667899608612
0.21579845249652863,-0.022461237385869026,1.7101284265518188,0.05022263526916504,0.1987498700618744,0.1802162081003189
0.05256016552448273,0.032163042575120926,1.7878464460372925,-0.011799275875091553,0.1618138551712036,0.16367794573307037
-0.021386023610830307,0.10331222414970398,1.8243365287780762,-0.07130903005599976,0.11399555206298828,0.12544302642345428
-0.0038950187154114246,0.11783675104379654,1.8345588445663452,-0.10380232334136963,0.06202533841133118,0.08604378998279572
0.12190626561641693,0.07068544626235962,1.8046777248382568,-0.12559151649475098,-0.007003575563430786,0.057308927178382874
0.3071709871292114,-0.020171398296952248,1.7828015089035034,-0.13484203815460205,-0.0628301203250885,0.029225051403045654
0.5317544937133789,-0.16919420659542084,1.750227451324463,-0.1440192461013794,-0.12086564302444458,0.01819188892841339
0.7858244180679321,-0.3495493233203888,1.6804245710372925,-0.16240638494491577,-0.1737547218799591,0.00892724096775055
1.0589869022369385,-0.537395179271698,1.5598982572555542,-0.18706446886062622,-0.22534477710723877,-0.003896370530128479
1.2924714088439941,-0.660767674446106,1.4327552318572998,-0.20532864332199097,-0.2657272219657898,-0.005011066794395447
1.461430311203003,-0.7407970428466797,1.2518057823181152,-0.21769392490386963,-0.3093862533569336,0.00045502185821533203
1.4959564208984375,-0.7897990345954895,1.0413734912872314,-0.2385772466659546,-0.33757030963897705,0.026732608675956726
1.3888648748397827,-0.8024983406066895,0.8935698866844177,-0.24397873878479004,-0.3385944962501526,0.0529341846704483
1.256718397140503,-0.8185738921165466,0.8149766325950623,-0.25239431858062744,-0.31673508882522583,0.0418563038110733
1.215936541557312,-0.8570950627326965,0.7949346303939819,-0.293443500995636,-0.26599639654159546,-0.008288130164146423
1.3330436944961548,-0.985159158706665,0.8027564883232117,-0.3356795907020569,-0.22300958633422852,-0.07001577317714691
1.608466386795044,-1.1950757503509521,0.7953220009803772,-0.3771205544471741,-0.21193236112594604,-0.1351190060377121
1.9516817331314087,-1.4408071041107178,0.746954619884491,-0.41180962324142456,-0.22051000595092773,-0.17793045938014984
2.337085723876953,-1.6580182313919067,0.5678396224975586,-0.44728028774261475,-0.2510795593261719,-0.20042133331298828
2.6683061122894287,-1.8200616836547852,0.2589012682437897,-0.4516805410385132,-0.30964332818984985,-0.20891427993774414
2.809936761856079,-1.9728821516036987,-0.05078330263495445,-0.40298986434936523,-0.3318082094192505,-0.17657746374607086
2.7731611728668213,-2.1376445293426514,-0.1943829506635666,-0.2987622022628784,-0.2924068570137024,-0.14050225913524628
2.7770626544952393,-2.277717351913452,-0.1933145523071289,-0.20713567733764648,-0.2326517105102539,-0.15715764462947845
2.899237632751465,-2.406264066696167,-0.20270651578903198,-0.15634828805923462,-0.18541646003723145,-0.21825383603572845
2.9923901557922363,-2.4076473712921143,-0.2407180815935135,-0.11909878253936768,-0.17498070001602173,-0.26739102602005005
2.8443872928619385,-2.1939265727996826,-0.3369103968143463,-0.1054583191871643,-0.1740376353263855,-0.25849318504333496
2.56099009513855,-1.8322845697402954,-0.5005435943603516,-0.10739678144454956,-0.20200282335281372,-0.22681939601898193
2.374242067337036,-1.5232970714569092,-0.5945044755935669,-0.07661086320877075,-0.2138073444366455,-0.22737592458724976
2.4679317474365234,-1.5423988103866577,-0.5875906348228455,-0.00535506010055542,-0.19546166062355042,-0.2575324773788452
2.7026405334472656,-1.755823016166687,-0.4769288897514343,0.04641139507293701,-0.15830141305923462,-0.29459649324417114
2.780186414718628,-1.9848023653030396,-0.32927465438842773,0.060813844203948975,-0.10208770632743835,-0.2693576216697693
2.65877366065979,-2.1479711532592773,-0.2338469922542572,0.02034282684326172,-0.07553255558013916,-0.21475234627723694
2.39530873298645,-2.1321842670440674,-0.1487620621919632,-0.02313852310180664,-0.07150030136108398,-0.20271837711334229
2.07787823677063,-1.9286710023880005,-0.1448870301246643,-0.07480138540267944,-0.09900712966918945,-0.23507362604141235
1.768094539642334,-1.6225836277008057,-0.27860942482948303,-0.141809344291687,-0.13429972529411316,-0.27631986141204834
1.4240407943725586,-1.2780755758285522,-0.46729910373687744,-0.1836162805557251,-0.14890623092651367,-0.2933642864227295
1.0696877241134644,-0.9773883819580078,-0.684026837348938,-0.19845467805862427,-0.13661262392997742,-0.2906320095062256
0.8165028095245361,-0.8322530388832092,-0.890067458152771,-0.19063568115234375,-0.11226364970207214,-0.2946983575820923
0.6486883163452148,-0.724348783493042,-1.0026925802230835,-0.1592838168144226,-0.06046253442764282,-0.3239940404891968
0.5217845439910889,-0.6104742884635925,-1.0520881414413452,-0.11621594429016113,-0.0009486377239227295,-0.35310280323028564
0.4266667366027832,-0.4719538390636444,-1.0571409463882446,-0.07066792249679565,0.03950148820877075,-0.37753522396087646
0.3838796615600586,-0.3501526713371277,-1.0376046895980835,-0.022229552268981934,0.07072731852531433,-0.4019402265548706
0.38336142897605896,-0.22986707091331482,-0.9869075417518616,0.02436530590057373,0.09720286726951599,-0.41701698303222656
0.449069619178772,-0.13837981224060059,-0.9359259009361267,0.05366712808609009,0.12419202923774719,-0.42897140979766846
0.6094555854797363,-0.10068756341934204,-0.8903970122337341,0.0693780779838562,0.1468774974346161,-0.4362063407897949
0.8243531584739685,-0.09723550081253052,-0.8021983504295349,0.09539204835891724,0.16917523741722107,-0.4396899938583374
1.0449931621551514,-0.1304621398448944,-0.679020345211029,0.12551265954971313,0.19399243593215942,-0.41767728328704834
1.2367244958877563,-0.24263647198677063,-0.5710378289222717,0.14607667922973633,0.19877389073371887,-0.37785589694976807
1.4030193090438843,-0.35266101360321045,-0.5107762813568115,0.14327841997146606,0.2027360200881958,-0.34860849380493164
1.4852955341339111,-0.4698679447174072,-0.5123568773269653,0.13535702228546143,0.19566014409065247,-0.31514036655426025
1.4224075078964233,-0.4771778881549835,-0.47188273072242737,0.14741134643554688,0.1996760070323944,-0.27831125259399414
1.290381908416748,-0.4067525267601013,-0.3987981975078583,0.16964387893676758,0.20382322371006012,-0.26013076305389404
1.2276172637939453,-0.2682678699493408,-0.32496851682662964,0.17248445749282837,0.21174190938472748,-0.2765815258026123
1.3046691417694092,-0.1428755670785904,-0.2294660359621048,0.16864454746246338,0.23421962559223175,-0.30362582206726074
1.4824457168579102,-0.1278507113456726,-0.12888111174106598,0.1857561469078064,0.23637469112873077,-0.30086803436279297
1.6988322734832764,-0.21082939207553864,-0.038095008581876755,0.19057798385620117,0.23595093190670013,-0.2810152769088745
1.7346819639205933,-0.41162556409835815,0.02922644652426243,0.11348998546600342,0.30385905504226685,-0.2292466163635254
1.55397629737854,-0.39715418219566345,0.21123625338077545,0.06574481725692749,0.40638524293899536,-0.16647052764892578
1.3517135381698608,-0.016834767535328865,0.4747481942176819,0.11828571557998657,0.4046390652656555,-0.17540109157562256
0.9835660457611084,0.5500145554542542,0.5273165106773376,0.18333745002746582,0.24551084637641907,-0.17384827136993408
0.42733997106552124,1.3107562065124512,0.43778637051582336,0.1928107738494873,0.16050994396209717,-0.08851051330566406
0.09634996950626373,1.9841861724853516,0.4099459648132324,0.1904926300048828,0.20503249764442444,-0.023119628429412842
0.24489165842533112,2.2675867080688477,0.5798007249832153,0.20965957641601562,0.2744097411632538,-0.021224617958068848
0.7019129991531372,2.0509164333343506,0.9250118136405945,0.18812108039855957,0.3283621370792389,0.007875069975852966
1.1722019910812378,1.4113588333129883,1.3410652875900269,0.13987290859222412,0.34958985447883606,0.09553943574428558
1.4559946060180664,0.6195889115333557,1.6822997331619263,0.03531694412231445,0.3530493974685669,0.20004597306251526
1.5290546417236328,-0.045462802052497864,1.846825361251831,-0.07725644111633301,0.31778767704963684,0.2734675407409668
1.4302455186843872,-0.3435248136520386,1.832057237625122,-0.1641872525215149,0.24826964735984802,0.2981891632080078
1.1748974323272705,-0.27174076437950134,1.710157871246338,-0.19184792041778564,0.14389565587043762,0.296968549489975
0.9258179068565369,0.03724009171128273,1.5688937902450562,-0.20811975002288818,0.08983644843101501,0.27832353115081787
0.8862810134887695,0.24642890691757202,1.3396273851394653,-0.22310733795166016,0.026854515075683594,0.23370736837387085
0.968428909778595,0.21664778888225555,1.079349398612976,-0.2205776572227478,-0.013323664665222168,0.22569841146469116
0.9793758988380432,0.14124466478824615,0.9491840600967407,-0.17899978160858154,-0.015153765678405762,0.26661911606788635
0.8837817907333374,0.06410418450832367,0.9187576770782471,-0.13477224111557007,-0.01870870590209961,0.31633126735687256
0.7471480965614319,-0.013727399520576,0.9124177098274231,-0.11213874816894531,-0.043654799461364746,0.3436036705970764
0.6262332201004028,-0.12394201755523682,0.8737591505050659,-0.1166999340057373,-0.07619649171829224,0.34566426277160645
0.5340865254402161,-0.23285385966300964,0.8456284403800964,-0.1165962815284729,-0.10528421401977539,0.322664350271225
0.47336694598197937,-0.32381588220596313,0.8190082311630249,-0.10772031545639038,-0.12805938720703125,0.2872146666049957
0.4209027588367462,-0.40587571263313293,0.7707395553588867,-0.10890138149261475,-0.14785796403884888,0.25632426142692566
0.37794747948646545,-0.3810400664806366,0.777122974395752,-0.11265552043914795,-0.15315353870391846,0.230972558259964
0.37712207436561584,-0.33898213505744934,0.7920730113983154,-0.11400419473648071,-0.16542452573776245,0.18486371636390686
0.41827040910720825,-0.34118568897247314,0.7915515303611755,-0.12392383813858032,-0.19157856702804565,0.16367030143737793
0.4529561698436737,-0.3982298672199249,0.7421116828918457,-0.13221228122711182,-0.22730237245559692,0.15843668580055237
0.4439902901649475,-0.5023563504219055,0.6547167897224426,-0.13275140523910522,-0.2692360281944275,0.17033246159553528
0.4016198515892029,-0.5635048747062683,0.5426673293113708,-0.14246803522109985,-0.30339592695236206,0.16699817776679993
0.31352606415748596,-0.60848468542099,0.4646272659301758,-0.13153648376464844,-0.31749701499938965,0.15468579530715942
0.2177024781703949,-0.6187859773635864,0.40415510535240173,-0.1311017870903015,-0.3198961019515991,0.13988947868347168
0.1565132439136505,-0.6340422034263611,0.3521617650985718,-0.13788282871246338,-0.31908172369003296,0.09976592659950256
0.12847720086574554,-0.6674084067344666,0.26417550444602966,-0.15781164169311523,-0.33223801851272583,0.07180926203727722
0.10318516194820404,-0.6312954425811768,0.1611037254333496,-0.17856281995773315,-0.3292827010154724,0.0332164466381073
0.052854713052511215,-0.6468477249145508,0.06160202622413635,-0.1783607006072998,-0.3371294140815735,0.006307452917098999
-0.011483896523714066,-0.6455100774765015,-0.05037524178624153,-0.20650184154510498,-0.31667691469192505,-0.014642149209976196
3.3686403185129166e-05,-0.5898162722587585,-0.1378592848777771,-0.2563292980194092,-0.266421377658844,-0.07096794247627258
0.07354409247636795,-0.5380609035491943,-0.22191564738750458,-0.2943153977394104,-0.22862029075622559,-0.12102949619293213
0.17384032905101776,-0.48127055168151855,-0.32898250222206116,-0.3131122589111328,-0.2144142985343933,-0.15446223318576813
0.2519177496433258,-0.5125611424446106,-0.5038654804229736,-0.31048011779785156,-0.22906553745269775,-0.16216133534908295
0.23749198019504547,-0.5371707677841187,-0.7110491394996643,-0.36580395698547363,-0.19153183698654175,-0.15308187901973724
0.18105077743530273,-0.3824252784252167,-0.7660402655601501,-0.3702901005744934,-0.07391643524169922,-0.1522585153579712
0.19789966940879822,-0.21656063199043274,-0.6778333187103271,-0.30573463439941406,-0.04726386070251465,-0.1682140976190567
0.299694687128067,-0.2311851531267166,-0.6714217066764832,-0.24150049686431885,-0.11465895175933838,-0.19560521841049194
0.3813040554523468,-0.2604679465293884,-0.7968968152999878,-0.252704381942749,-0.1727832853794098,-0.1928388476371765
0.4635237753391266,-0.24887855350971222,-1.0456963777542114,-0.2884697914123535,-0.18697792291641235,-0.18868063390254974
0.5392701029777527,-0.2753605842590332,-1.2554774284362793,-0.2844780683517456,-0.16170409321784973,-0.19076840579509735
0.6159416437149048,-0.2413458228111267,-1.389984130859375,-0.25229382514953613,-0.09862369298934937,-0.1927739530801773
0.7436673045158386,-0.19620682299137115,-1.5118451118469238,-0.2117530107498169,-0.0521659255027771,-0.20523887872695923
0.8675373792648315,-0.18349505960941315,-1.594417929649353,-0.17442971467971802,0.004687905311584473,-0.20257437229156494
0.9448256492614746,-0.24480091035366058,-1.6198352575302124,-0.1410212516784668,0.08616998791694641,-0.17471247911453247
1.0081990957260132,-0.35723963379859924,-1.5762481689453125,-0.11429214477539062,0.18300408124923706,-0.1567680835723877
1.0898220539093018,-0.4779660403728485,-1.4776922464370728,-0.08716487884521484,0.25796961784362793,-0.16648481786251068
1.17603600025177,-0.5915781259536743,-1.3193600177764893,-0.04473721981048584,0.29542040824890137,-0.1830015629529953
1.2453925609588623,-0.5882579684257507,-1.2421534061431885,-0.03843975067138672,0.31896525621414185,-0.20749567449092865
1.2753381729125977,-0.487103134393692,-1.235754370689392,-0.032310426235198975,0.2974010705947876,-0.21977156400680542
1.2494603395462036,-0.35689520835876465,-1.2857393026351929,-0.017467200756072998,0.28604093194007874,-0.19934803247451782
1.1738520860671997,-0.2253974825143814,-1.3247321844100952,0.006326019763946533,0.29709720611572266,-0.16264581680297852
1.0861183404922485,-0.15321865677833557,-1.3345221281051636,0.04983222484588623,0.3194509446620941,-0.1172405481338501
1.0337074995040894,-0.14571917057037354,-1.3146249055862427,0.08913671970367432,0.34648579359054565,-0.09354303777217865
1.0190645456314087,-0.1885424554347992,-1.281936764717102,0.12150996923446655,0.38052916526794434,-0.08231455087661743
1.0326813459396362,-0.21339358389377594,-1.2420464754104614,0.13545799255371094,0.4247836768627167,-0.08039242029190063
1.0203475952148438,-0.21952448785305023,-1.1144465208053589,0.18700331449508667,0.4543300271034241,-0.0742204338312149
0.9436895847320557,-0.1959080547094345,-0.9450937509536743,0.23350656032562256,0.4763450622558594,-0.055905699729919434
0.7940068244934082,-0.1604849100112915,-0.7693549394607544,0.2643134593963623,0.4716241657733917,-0.02550363540649414
0.6124343276023865,-0.1238045021891594,-0.6277612447738647,0.27080798149108887,0.46675217151641846,-0.0013513565063476562
0.425876259803772,-0.07978677749633789,-0.5162432193756104,0.26400578022003174,0.46941161155700684,0.0142507404088974
0.258432537317276,-0.00043200619984418154,-0.3885599374771118,0.2727028727531433,0.47744742035865784,0.02244306355714798
0.10584108531475067,0.08215364068746567,-0.23982013761997223,0.2886945605278015,0.47935861349105835,0.032770395278930664
-0.030070338398218155,0.13320423662662506,-0.11504578590393066,0.2840971350669861,0.4785217046737671,0.05448494851589203
-0.19575944542884827,0.0661357194185257,0.024855129420757294,0.27675026655197144,0.47606343030929565,0.07726527750492096
-0.464702844619751,-0.1321696788072586,0.191578671336174,0.24681872129440308,0.4902368187904358,0.11049360036849976
-0.888508677482605,-0.4758243262767792,0.38457655906677246,0.15302586555480957,0.5732458233833313,0.13343220949172974
-1.3569928407669067,-0.551266074180603,0.6748405694961548,0.032985031604766846,0.6986939907073975,0.10664082318544388
-1.6243104934692383,-0.36479461193084717,0.9554941058158875,-0.03788578510284424,0.7427496314048767,-0.0006767287850379944
-1.6175967454910278,-0.10354170203208923,1.0752317905426025,-0.05231422185897827,0.6530643701553345,-0.11938714981079102
-1.5382593870162964,0.14749598503112793,1.0069600343704224,-0.029250800609588623,0.4971563220024109,-0.16227442026138306
-1.5973783731460571,0.49955469369888306,0.7793654799461365,-0.014610886573791504,0.38923415541648865,-0.11555592715740204
-1.7617096900939941,0.8442366719245911,0.6520125865936279,0.050387799739837646,0.3284101188182831,-0.02503102272748947
-1.892330527305603,1.0037970542907715,0.7173856496810913,0.17708587646484375,0.2944566607475281,0.04529780149459839
-1.822351336479187,0.8976752161979675,0.8697361350059509,0.2469419240951538,0.273563951253891,0.060134828090667725
-1.625213384628296,0.5683024525642395,1.0266835689544678,0.255004346370697,0.2614355683326721,0.05875012278556824
-1.413332223892212,0.20188641548156738,1.1233205795288086,0.20439815521240234,0.2579216957092285,0.06782747805118561
-1.4352138042449951,-0.17567963898181915,1.182892084121704,0.1447961926460266,0.2590242326259613,0.0985373854637146
-1.8275682926177979,-0.4003186523914337,1.3137686252593994,0.10255849361419678,0.275668203830719,0.15421664714813232
-2.3856139183044434,-0.3623345196247101,1.508269190788269,0.04751908779144287,0.3128000795841217,0.13105928897857666
-2.8522560596466064,-0.10678750276565552,1.7076916694641113,-0.02549058198928833,0.33700042963027954,0.02030801773071289
-3.1584227085113525,0.21664826571941376,1.8633064031600952,-0.08862942457199097,0.33140140771865845,-0.10923546552658081
-3.295111656188965,0.5277248024940491,1.921807885169983,-0.14914202690124512,0.2849549651145935,-0.211061492562294
-3.307081699371338,0.7849271297454834,1.8943772315979004,-0.19666296243667603,0.20900312066078186,-0.28649479150772095
-3.2377946376800537,0.9495775103569031,1.8673608303070068,-0.21703815460205078,0.11051556468009949,-0.3244096040725708
-3.078505277633667,0.985382080078125,1.832473635673523,-0.22005975246429443,0.016747772693634033,-0.338578462600708
-2.77813720703125,0.8691525459289551,1.7518032789230347,-0.24661469459533691,-0.06458619236946106,-0.36805158853530884
-2.3443288803100586,0.6542860269546509,1.6359286308288574,-0.2860180139541626,-0.14093029499053955,-0.40298569202423096
-1.8592236042022705,0.41245540976524353,1.5132253170013428,-0.3188275694847107,-0.2042694091796875,-0.431751012802124
-1.4121437072753906,0.18121406435966492,1.4207442998886108,-0.3300963044166565,-0.2707087993621826,-0.4360933303833008
-1.059626579284668,0.03200855106115341,1.3402739763259888,-0.337414026260376,-0.3287894129753113,-0.4211033582687378
-0.784338116645813,-0.019791830331087112,1.2426507472991943,-0.351146936416626,-0.3871474862098694,-0.4038398265838623
-0.590187668800354,0.039005346596241,1.1335258483886719,-0.35854530334472656,-0.4385376572608948,-0.39009785652160645
-0.46995091438293457,0.12373720854520798,0.9510778784751892,-0.3663709759712219,-0.4960116744041443,-0.3701198101043701
-0.4152527153491974,0.23789992928504944,0.758721649646759,-0.3619765043258667,-0.5426300168037415,-0.34117674827575684
-0.3376578986644745,0.29898935556411743,0.6125578880310059,-0.340587317943573,-0.5691472887992859,-0.3211395740509033
-0.17973583936691284,0.2684745788574219,0.4854641258716583,-0.31528401374816895,-0.5882986783981323,-0.313440203666687
0.0333157442510128,0.18424752354621887,0.3440760374069214,-0.31776654720306396,-0.5987477898597717,-0.3074357509613037
0.24400979280471802,0.05245078727602959,0.22317060828208923,-0.30315256118774414,-0.6104198098182678,-0.29290974140167236
0.4221042990684509,-0.06917229294776917,0.11503881961107254,-0.29307854175567627,-0.6167376637458801,-0.27909398078918457
0.5839964747428894,-0.1375311017036438,-0.01714378595352173,-0.3056268095970154,-0.6084523797035217,-0.27948975563049316
0.7364165782928467,-0.15429025888442993,-0.16730593144893646,-0.346588671207428,-0.5748459100723267,-0.29120874404907227
0.8613076210021973,-0.14941473305225372,-0.30588531494140625,-0.3784869909286499,-0.5376718640327454,-0.2863791584968567
0.9770901799201965,-0.14198772609233856,-0.4431494176387787,-0.3915495276451111,-0.502027153968811,-0.2790052890777588
1.1218960285186768,-0.13731610774993896,-0.5909050107002258,-0.4066515564918518,-0.46846431493759155,-0.2781006097793579
