rotation_x,rotation_y,rotation_z,acceleration_x,acceleration_y,acceleration_z
-0.17081905901432037,0.9703068733215332,1.3356115818023682,-0.022907420992851257,0.04692810773849487,0.14979344606399536
-0.13127179443836212,0.9203498363494873,1.0928162336349487,-0.0489252507686615,0.034218281507492065,0.0530928373336792
0.08635850995779037,0.6428689360618591,1.032698631286621,-0.006503269076347351,0.027330905199050903,-0.01671689748764038
0.1772659868001938,0.36687731742858887,1.0416709184646606,0.010447248816490173,-0.006585955619812012,-0.0016336441040039062
0.11843854933977127,0.29626917839050293,1.0623916387557983,0.010736405849456787,-0.03885623812675476,0.042867839336395264
0.015156369656324387,0.39139100909233093,1.0692567825317383,0.012778624892234802,-0.04702270030975342,0.06044924259185791
-0.04414983093738556,0.5330492854118347,1.0065627098083496,0.00884343683719635,-0.033592551946640015,0.02043527364730835
-0.02119787223637104,0.5087318420410156,0.8757323622703552,0.015587866306304932,-0.010790020227432251,-0.03206831216812134
0.026538792997598648,0.44802695512771606,0.7978331446647644,0.0229245126247406,-0.008664637804031372,-0.04778391122817993
-0.03108835779130459,0.5102515816688538,0.8180308938026428,0.03522917628288269,-0.03483566641807556,-0.03373849391937256
-0.1959218680858612,0.7545092105865479,0.919033408164978,0.03471050411462784,-0.0883602499961853,-0.04144775867462158
-0.41570720076560974,1.236775279045105,1.0845768451690674,0.0633249282836914,-0.08228600025177002,-0.12188619375228882
-0.4713709056377411,1.411751627922058,1.2157938480377197,0.1023109182715416,-0.026073336601257324,-0.26154083013534546
-0.30987095832824707,1.1951814889907837,1.3114466667175293,0.1076178252696991,0.03784918785095215,-0.3757511377334595
-0.04909834265708923,0.7427035570144653,1.283534049987793,0.08960950374603271,0.09707808494567871,-0.37637805938720703
0.19325298070907593,0.2122645378112793,1.1122326850891113,0.07473483681678772,0.12597811222076416,-0.2711455821990967
0.32196566462516785,0.023487800732254982,0.9280322790145874,0.07543312013149261,0.11208847165107727,-0.10179203748703003
0.31607314944267273,0.4012700915336609,0.8683091402053833,0.07848142087459564,0.06877470016479492,0.03602069616317749
0.2421644628047943,0.9410488605499268,0.9739990830421448,0.10549002140760422,0.025536537170410156,0.08348548412322998
0.1663566529750824,1.183092713356018,1.175903558731079,0.10935338586568832,0.007840216159820557,0.07397878170013428
0.08717770129442215,1.049975037574768,1.3633580207824707,0.09035072475671768,0.03127819299697876,0.05093979835510254
0.007231468800455332,0.6308024525642395,1.41092848777771,0.04850222170352936,0.07751944661140442,0.042306482791900635
-0.05073709413409233,0.17783746123313904,1.2907572984695435,-0.005897648632526398,0.09500932693481445,0.05829286575317383
-0.028897304087877274,-0.05816930904984474,1.1302920579910278,-0.04344151169061661,0.08396652340888977,0.08627432584762573
0.05746680870652199,-0.022840803489089012,1.0113617181777954,-0.05644851177930832,0.06010553240776062,0.11895805597305298
0.11317820847034454,0.1416679471731186,0.9585683941841125,-0.04814029484987259,0.028790533542633057,0.14434748888015747
0.1178581491112709,0.2267012894153595,0.9525465965270996,-0.022867612540721893,0.009717494249343872,0.15285056829452515
0.06558103114366531,0.12746356427669525,0.9681578874588013,0.0036988593637943268,0.012147724628448486,0.1535363793373108
-0.04680440574884415,-0.01647065579891205,0.9478402733802795,0.0021616965532302856,0.008036434650421143,0.16476786136627197
-0.1584976464509964,-0.10140162706375122,0.876765251159668,-0.003401331603527069,-0.013875067234039307,0.16774344444274902
-0.19091254472732544,-0.1738961637020111,0.7996429204940796,0.00908968597650528,-0.03078615665435791,0.14708322286605835
-0.13972164690494537,-0.1801852136850357,0.7194650769233704,0.011659219861030579,-0.05168813467025757,0.12731027603149414
-0.03852679952979088,-0.1446988433599472,0.6534774899482727,0.008001551032066345,-0.08006700873374939,0.10572183132171631
-0.026382453739643097,-0.11728226393461227,0.6094422936439514,0.0183730348944664,-0.0962877869606018,0.11262458562850952
-0.08494110405445099,-0.0398285873234272,0.537956953048706,-0.01121203601360321,-0.11816367506980896,0.10026133060455322
-0.1299668252468109,-0.03701210394501686,0.39760079979896545,-0.04175405949354172,-0.10589903593063354,0.046990931034088135
-0.10560576617717743,-0.12319543957710266,0.2181236743927002,-0.06332659721374512,-0.0863519012928009,-0.024034500122070312
-0.0030555541161447763,-0.2145291268825531,0.04725059121847153,-0.07568053901195526,-0.07188770174980164,-0.0883370041847229
0.11063811928033829,-0.261547714471817,-0.10290973633527756,-0.06909658759832382,-0.0654766857624054,-0.11715048551559448
0.16580364108085632,-0.2666439414024353,-0.23731201887130737,-0.05709799379110336,-0.06299325823783875,-0.10954737663269043
0.13786837458610535,-0.17947986721992493,-0.3183313012123108,-0.0508989542722702,-0.06650403141975403,-0.09218543767929077
0.012092173099517822,-0.067037433385849,-0.32902976870536804,-0.032179057598114014,-0.0629727840423584,-0.10257863998413086
-0.1273316591978073,-0.03986654430627823,-0.27950695157051086,-0.022785574197769165,-0.07298621535301208,-0.14337342977523804
-0.18278208374977112,-0.08207900822162628,-0.14896731078624725,-0.025121353566646576,-0.08301588892936707,-0.1885555386543274
-0.23930871486663818,-0.12435593456029892,-0.004784107208251953,-0.027619488537311554,-0.07353898882865906,-0.19066566228866577
-0.3521467447280884,-0.12793001532554626,0.045198798179626465,-0.044910937547683716,-0.04113799333572388,-0.14967286586761475
-0.35577690601348877,-0.20465600490570068,0.003893477376550436,-0.06010036915540695,0.004259765148162842,-0.1094290018081665
-0.19792777299880981,-0.422776460647583,-0.10871827602386475,-0.07523317635059357,0.057308539748191833,-0.058976590633392334
-0.01804179511964321,-0.5590047240257263,-0.261983722448349,-0.08738628774881363,0.09444722533226013,0.019356966018676758
0.042745355516672134,-0.38055747747421265,-0.4578760862350464,-0.12323632836341858,0.0844653844833374,0.10206133127212524
-0.00866527110338211,-0.007481896318495274,-0.6594136953353882,-0.14102718234062195,0.0546475350856781,0.14253628253936768
-0.0060781799256801605,0.3617461323738098,-0.796920657157898,-0.12691423296928406,0.03262077271938324,0.10256028175354004
0.07595440745353699,0.5364548563957214,-0.7930587530136108,-0.06326676905155182,0.03939616680145264,0.021396875381469727
0.1582658290863037,0.560461699962616,-0.7112768888473511,-0.01313859224319458,0.04840084910392761,-0.04749941825866699
0.2398398518562317,0.37664395570755005,-0.6343867182731628,-0.001707419753074646,0.05894157290458679,-0.08294349908828735
0.32592231035232544,0.1901056468486786,-0.5841894149780273,-0.027185671031475067,0.06569713354110718,-0.0802491307258606
0.41069871187210083,-0.05744173377752304,-0.5307364463806152,-0.0475909486413002,0.05644732713699341,-0.04627501964569092
0.3984971046447754,-0.21892163157463074,-0.5439623594284058,-0.054938435554504395,0.05657833814620972,0.027410686016082764
0.3863300383090973,-0.2673351764678955,-0.6105260848999023,-0.06471804529428482,0.049256086349487305,0.08814430236816406
0.39576175808906555,-0.1592055708169937,-0.6480573415756226,-0.06197875738143921,0.044452160596847534,0.13500839471817017
0.38797932863235474,0.09399622678756714,-0.6646566987037659,-0.0707397311925888,0.021188706159591675,0.15835577249526978
0.3587818443775177,0.32141342759132385,-0.6268070936203003,-0.07155370712280273,0.005200743675231934,0.1474294662475586
0.3195575773715973,0.3540381193161011,-0.5445231795310974,-0.05652129650115967,0.013757944107055664,0.11332976818084717
0.25749605894088745,0.1882859766483307,-0.4882371127605438,-0.0436929389834404,0.03206658363342285,0.08182752132415771
0.21059264242649078,-0.0346614308655262,-0.4943244457244873,-0.058121152222156525,0.038618654012680054,0.057812511920928955
0.2185375988483429,-0.1634068489074707,-0.5278472304344177,-0.0716707855463028,0.041097283363342285,0.051499247550964355
0.24099209904670715,-0.17698922753334045,-0.5719695091247559,-0.07484044879674911,0.03850150108337402,0.05756688117980957
0.23238475620746613,-0.07665574550628662,-0.594693660736084,-0.068837471306324,0.02656117081642151,0.06255793571472168
0.21011310815811157,0.02885015308856964,-0.5225973725318909,-0.04873275011777878,0.005000472068786621,0.056917786598205566
0.1236792504787445,0.08159936964511871,-0.3559710383415222,-0.025718092918395996,-0.014075279235839844,0.05180788040161133
-0.10066433250904083,0.08109819144010544,-0.16590464115142822,-0.009465500712394714,-0.019055843353271484,0.06157273054122925
-0.4006517231464386,0.11017526686191559,-0.015383146703243256,-0.012897565960884094,-0.020450681447982788,0.045033812522888184
-0.5861796140670776,0.10322640091180801,0.04745066538453102,-0.0485682487487793,-0.042483389377593994,-0.02465355396270752
-0.6839767694473267,0.2722967863082886,0.05632957071065903,-0.0691525936126709,-0.05277174711227417,-0.12256425619125366
-0.8115747570991516,0.4275239109992981,0.10150190442800522,-0.005060315132141113,-0.017144083976745605,-0.2268974781036377
-0.7805572748184204,0.3515806794166565,0.14431512355804443,0.04294867068529129,-0.0009220242500305176,-0.3460962772369385
-0.4353645443916321,0.03279548138380051,0.17412661015987396,0.05091657489538193,0.01404660940170288,-0.4178468585014343
0.10655855387449265,-0.36879003047943115,0.13175781071186066,0.050089359283447266,0.0475369393825531,-0.36610978841781616
0.5655168294906616,-0.683716356754303,0.010444320738315582,0.047045134007930756,0.08418026566505432,-0.18114006519317627
0.6993376016616821,-0.6434775590896606,-0.0951274111866951,0.025841183960437775,0.08445709943771362,0.038381099700927734
0.49117612838745117,-0.24593234062194824,-0.1417788714170456,0.003512561321258545,0.05773824453353882,0.1975664496421814
0.1353147029876709,0.26370033621788025,-0.15889817476272583,-0.009378977119922638,0.01645532250404358,0.23957836627960205
-0.09440174698829651,0.587569534778595,-0.15621787309646606,-0.0166371688246727,0.00013488531112670898,0.1463748812675476
-0.1367262899875641,0.5084598064422607,-0.15244551002979279,0.009672902524471283,0.03646588325500488,0.017817437648773193
-0.02573264203965664,0.12782682478427887,-0.22720196843147278,0.01242135465145111,0.071107417345047,-0.06144529581069946
0.16249792277812958,-0.3052617609500885,-0.3543657064437866,-0.008487716317176819,0.07949158549308777,-0.053639113903045654
0.3264029026031494,-0.5542439222335815,-0.4554603099822998,-0.037572458386421204,0.06115323305130005,0.04322713613510132
0.33525538444519043,-0.5180923938751221,-0.5438041090965271,-0.05685687065124512,0.03568342328071594,0.17009347677230835
0.232634499669075,-0.3472079038619995,-0.5861395001411438,-0.06954216957092285,-0.0031845271587371826,0.2562570571899414
0.05639161914587021,-0.15909737348556519,-0.5336129665374756,-0.050850749015808105,-0.03077685832977295,0.28366994857788086
-0.16194017231464386,0.031124934554100037,-0.43899568915367126,-0.03143615275621414,-0.0477752685546875,0.26298415660858154
-0.2785029411315918,0.11608480662107468,-0.3711567521095276,-0.027403784915804863,-0.055119335651397705,0.1893068552017212
-0.2609724998474121,0.10586915910243988,-0.32773226499557495,-0.03162422031164169,-0.04067257046699524,0.09824609756469727
-0.17952606081962585,0.02848447486758232,-0.35902804136276245,-0.05177883803844452,-0.02777940034866333,0.036027729511260986
-0.09103787690401077,-0.16473963856697083,-0.46155083179473877,-0.0585554838180542,-0.01841294765472412,-3.5881996154785156e-05
-0.009679473005235195,-0.38371047377586365,-0.6073868870735168,-0.06554145365953445,-0.008270084857940674,-0.018700242042541504
0.04394926875829697,-0.5316162705421448,-0.702759325504303,-0.06541133671998978,-0.021987348794937134,-0.009804964065551758
0.06938455998897552,-0.5580054521560669,-0.7159652709960938,-0.05690602958202362,-0.043156206607818604,0.004949450492858887
0.10026627033948898,-0.471556156873703,-0.6802667379379272,-0.04775778949260712,-0.05474916100502014,0.010644137859344482
0.12271814793348312,-0.36935266852378845,-0.6593984961509705,-0.04625198245048523,-0.045791298151016235,0.008202612400054932
0.1212472915649414,-0.28087276220321655,-0.7112928032875061,-0.06656523793935776,-0.04055911302566528,-0.0100058913230896
0.10808923840522766,-0.32583725452423096,-0.770020604133606,-0.07889187335968018,-0.03986996412277222,-0.03747665882110596
-0.001807668013498187,-0.3734959363937378,-0.7985820770263672,-0.0866902768611908,-0.04684340953826904,-0.05223613977432251
-0.226579487323761,-0.33966153860092163,-0.750225305557251,-0.0594354048371315,-0.04054301977157593,-0.08180654048919678
-0.3883002698421478,-0.38548657298088074,-0.6586630344390869,-0.030846543610095978,-0.029852181673049927,-0.16031181812286377
-0.40042901039123535,-0.517047107219696,-0.5475842356681824,-0.03569445013999939,-0.03204306960105896,-0.2313186526298523
-0.3823891282081604,-0.668099582195282,-0.46851953864097595,-0.05273020640015602,-0.0006503462791442871,-0.23346370458602905
-0.4276238679885864,-0.8063164353370667,-0.5174786448478699,-0.0796227753162384,0.044117629528045654,-0.17341065406799316
-0.3927367031574249,-0.9696112871170044,-0.6830631494522095,-0.10595609247684479,0.07859489321708679,-0.10490530729293823
-0.2824050784111023,-1.0364837646484375,-0.8119481801986694,-0.10416649281978607,0.10189804434776306,-0.009644687175750732
-0.2166142463684082,-0.8939349055290222,-0.8819233179092407,-0.10259848833084106,0.0959639847278595,0.09056633710861206
-0.26205307245254517,-0.4835948348045349,-0.9369751811027527,-0.10828426480293274,0.08261272311210632,0.16309338808059692
-0.35977330803871155,-0.04475611820816994,-1.0128531455993652,-0.10994245857000351,0.07817119359970093,0.16804414987564087
-0.360818088054657,0.18439136445522308,-1.1120797395706177,-0.10827963054180145,0.0899491012096405,0.08748489618301392
-0.24333028495311737,0.17620137333869934,-1.1801176071166992,-0.09320730715990067,0.10043549537658691,-0.0035077333450317383
-0.09296990185976028,0.05467963218688965,-1.1814988851547241,-0.06006668508052826,0.10878381133079529,-0.05661213397979736
0.013191690668463707,-0.10952400416135788,-1.098801851272583,-0.016435034573078156,0.10608047246932983,-0.05674856901168823
0.07296474277973175,-0.2998388707637787,-0.9571887850761414,0.009853623807430267,0.08921915292739868,-0.026475071907043457
0.08970987051725388,-0.43330496549606323,-0.781621515750885,0.009316764771938324,0.06103429198265076,0.03462177515029907
0.036049265414476395,-0.42856961488723755,-0.6261090636253357,-0.01387331634759903,0.043967604637145996,0.11091876029968262
-0.03918839618563652,-0.3167840242385864,-0.4981025457382202,-0.03401920199394226,0.026408761739730835,0.15877801179885864
-0.11023760586977005,-0.13624383509159088,-0.38931477069854736,-0.045972228050231934,0.024000614881515503,0.16347336769104004
-0.10819176584482193,-0.06675151735544205,-0.34084099531173706,-0.06877541542053223,0.022293180227279663,0.1133962869644165
-0.07115750759840012,-0.1427506059408188,-0.32024651765823364,-0.06789778172969818,0.022391945123672485,0.0654381513595581
-0.05287301540374756,-0.21329064667224884,-0.3316386640071869,-0.0696241483092308,0.02488565444946289,0.05128324031829834
-0.06435366719961166,-0.1355372667312622,-0.32127586007118225,-0.06554369628429413,0.015199393033981323,0.06181079149246216
-0.05540814623236656,0.005190751515328884,-0.2874029576778412,-0.058645956218242645,-0.004140287637710571,0.05096644163131714
-0.013692224398255348,0.12557671964168549,-0.2401321530342102,-0.05083596706390381,-0.013480126857757568,0.016900062561035156
0.05133800953626633,0.19677604734897614,-0.2026238739490509,-0.03848692774772644,-0.009386003017425537,-0.026099205017089844
0.11882328242063522,0.26638656854629517,-0.21117456257343292,-0.04095953702926636,0.00026366114616394043,-0.05534720420837402
0.209642693400383,0.24686111509799957,-0.21572792530059814,-0.026531562209129333,0.0162886381149292,-0.08131074905395508
0.2802385985851288,0.061880890280008316,-0.12716150283813477,0.022996827960014343,0.02751392126083374,-0.062165915966033936
0.21033573150634766,-0.11474952846765518,0.019540101289749146,0.03429916501045227,0.025669187307357788,0.024740219116210938
-0.021529672667384148,-0.04909027740359306,0.15833207964897156,0.003147013485431671,-0.004989713430404663,0.11782330274581909
-0.2866708040237427,0.26198455691337585,0.25245746970176697,-0.03530602902173996,-0.05116164684295654,0.13437384366989136
-0.4445348083972931,0.6890087723731995,0.33222082257270813,-0.059059690684080124,-0.09253197908401489,0.055527687072753906
-0.5981576442718506,1.0562000274658203,0.5245176553726196,0.031096775084733963,-0.02745276689529419,-0.1072656512260437
-0.6162738800048828,0.8855001330375671,0.7272430658340454,0.11742313206195831,0.017629384994506836,-0.3181471824645996
-0.39391759037971497,0.31018367409706116,0.8721354603767395,0.13978569209575653,0.04784169793128967,-0.44151800870895386
-0.08299800008535385,-0.2260117530822754,0.9046735763549805,0.11250081658363342,0.0890980064868927,-0.40633028745651245
0.17427575588226318,-0.7055690288543701,0.7535870671272278,0.09569196403026581,0.1243879497051239,-0.23446691036224365
0.35679158568382263,-0.9319330453872681,0.55210942029953,0.08622895181179047,0.1120513379573822,-0.027725696563720703
0.3963160812854767,-0.7427334785461426,0.4657461643218994,0.10941723734140396,0.0818663239479065,0.15446734428405762
0.24435311555862427,-0.15602679550647736,0.5229818224906921,0.12396597117185593,0.028900206089019775,0.2632373571395874
-0.030680982396006584,0.5407825708389282,0.690748929977417,0.13268965482711792,-0.016776323318481445,0.2697935700416565
-0.2904362082481384,0.8709672689437866,0.8818466663360596,0.1460239738225937,-0.01255345344543457,0.16459304094314575
-0.41569268703460693,0.7049123644828796,0.9933622479438782,0.15877887606620789,0.03948506712913513,0.028036534786224365
-0.35304296016693115,0.22675231099128723,0.8843234181404114,0.1052100658416748,0.07807528972625732,-0.06837266683578491
-0.15713489055633545,-0.29057613015174866,0.5646929144859314,0.03322966396808624,0.08536098897457123,-0.0836559534072876
0.05089476704597473,-0.5317550301551819,0.25330212712287903,-0.0068892911076545715,0.047382667660713196,-0.02253139019012451
0.13955634832382202,-0.4424208104610443,0.10044380277395248,0.011067628860473633,0.001950278878211975,0.074684739112854
0.10268182307481766,-0.1768375039100647,0.16376136243343353,0.052736178040504456,-0.04929503798484802,0.1478632092475891
0.029826156795024872,0.2146543711423874,0.3269100487232208,0.06573662161827087,-0.0826752781867981,0.17753338813781738
0.014971279539167881,0.5138437747955322,0.4562852382659912,0.04570307582616806,-0.08472520112991333,0.15290439128875732
0.030471542850136757,0.5374224185943604,0.46456384658813477,0.03139406442642212,-0.0419062077999115,0.1061704158782959
0.010681758634746075,0.40032634139060974,0.3847624361515045,0.012968629598617554,-0.013681069016456604,0.07829350233078003
-0.06367476284503937,0.1982775330543518,0.29520857334136963,0.030594438314437866,-0.005638539791107178,0.05974447727203369
-0.09665504842996597,-0.013281678780913353,0.31576934456825256,0.07193209230899811,-0.02811659872531891,0.030161798000335693
-0.031042981892824173,-0.1226862370967865,0.4854583442211151,0.10167025774717331,-0.06306765973567963,0.012520134449005127
0.03476595878601074,-0.14257511496543884,0.6561347842216492,0.08780273050069809,-0.08222994208335876,0.033720970153808594
0.06281766295433044,-0.1733383685350418,0.6918025016784668,0.037496984004974365,-0.08069972693920135,0.06317645311355591
0.02005622163414955,-0.21143952012062073,0.6477212309837341,0.011631026864051819,-0.06162920594215393,0.0855974555015564
-0.05694059655070305,-0.27019941806793213,0.5973085165023804,0.007891535758972168,-0.06669248640537262,0.08784180879592896
-0.10615846514701843,-0.2739349603652954,0.592024028301239,0.021332234144210815,-0.09362666308879852,0.055973052978515625
-0.10517609864473343,-0.21096689999103546,0.6284646987915039,0.04704849421977997,-0.09817783534526825,0.019053339958190918
-0.12136838585138321,-0.12250974029302597,0.6101346611976624,0.06634364277124405,-0.059424176812171936,-0.010011494159698486
-0.15503837168216705,-0.14260117709636688,0.5478616952896118,0.08029334247112274,-0.019237592816352844,-0.039978861808776855
-0.2486044317483902,-0.12720869481563568,0.548277735710144,0.0768234133720398,-0.029828429222106934,-0.05818122625350952
-0.42570799589157104,-0.04840710759162903,0.6725310683250427,0.09682893753051758,-0.04252389073371887,-0.07490354776382446
-0.5809040665626526,0.04862869158387184,0.8387618064880371,0.11209931969642639,-0.04909661412239075,-0.12280577421188354
-0.5453426241874695,0.08941416442394257,0.9524556398391724,0.10975021123886108,-0.04088123142719269,-0.2055729627609253
-0.35493165254592896,0.07386104017496109,1.0104217529296875,0.11410872638225555,-0.002143755555152893,-0.24737101793289185
-0.13093222677707672,0.006042096763849258,0.9525737762451172,0.09298770129680634,0.04217737913131714,-0.21824169158935547
0.038891591131687164,-0.08642363548278809,0.7956145405769348,0.08024726808071136,0.08126558363437653,-0.14322394132614136
0.07670954614877701,0.030920138582587242,0.6430764198303223,0.07575841248035431,0.09608961641788483,-0.06046396493911743
0.04849814996123314,0.329378217458725,0.5665590167045593,0.08242960274219513,0.06860339641571045,-0.028834104537963867
0.11023019254207611,0.4321337044239044,0.6009090542793274,0.1230584979057312,0.051829248666763306,-0.06715083122253418
0.21010635793209076,0.3691056966781616,0.7059175968170166,0.15199631452560425,0.05804477632045746,-0.0947943925857544
0.2382945418357849,0.22528843581676483,0.7745822072029114,0.14879557490348816,0.07424263656139374,-0.0687708854675293
0.22274568676948547,0.10734070092439651,0.796929121017456,0.13325569033622742,0.08366997539997101,-0.01484668254852295
0.1569794863462448,0.11033288389444351,0.811695396900177,0.12218727171421051,0.08171509206295013,0.047261178493499756
0.10750377923250198,0.17913341522216797,0.8306708335876465,0.10848996043205261,0.05441275238990784,0.0843667984008789
0.1374952346086502,0.2741733193397522,0.8917426466941833,0.11233238875865936,0.03407365083694458,0.08827358484268188
0.2147730141878128,0.3431297540664673,0.9763165712356567,0.10317933559417725,0.021245211362838745,0.08682984113693237
0.2029891163110733,0.3549090027809143,1.05038583278656,0.09769569337368011,0.023461133241653442,0.10763382911682129
0.10202126204967499,0.30651241540908813,1.0639076232910156,0.08023607730865479,0.026545017957687378,0.12966424226760864
0.00325601315125823,0.2534908652305603,1.0498443841934204,0.06066695600748062,0.02406942844390869,0.13370686769485474
-0.03971223160624504,0.23899222910404205,1.018251895904541,0.033937230706214905,0.012655764818191528,0.12504810094833374
-0.02916545420885086,0.23563514649868011,0.9838769435882568,0.012298829853534698,-0.00563928484916687,0.11063265800476074
0.018239278346300125,0.226698637008667,0.947691023349762,-0.01451098918914795,-0.02380584180355072,0.10557883977890015
0.041721999645233154,0.26415687799453735,0.9012805223464966,-0.03656196594238281,-0.031209513545036316,0.11484980583190918
0.016951575875282288,0.3127203583717346,0.8241662383079529,-0.0599762499332428,-0.03793458640575409,0.11507683992385864
-0.0413777157664299,0.3925471603870392,0.7327709794044495,-0.08313888311386108,-0.04487508535385132,0.09217524528503418
-0.08805966377258301,0.47408661246299744,0.6369778513908386,-0.1010129526257515,-0.056855425238609314,0.032263994216918945
-0.08057324588298798,0.530407726764679,0.6291529536247253,-0.06534238904714584,-0.0584401935338974,-0.046713411808013916
-0.0386727936565876,0.4291071891784668,0.65430748462677,-0.015493452548980713,-0.032457709312438965,-0.10407578945159912
-0.027154769748449326,0.31298932433128357,0.6500797867774963,-0.01341036707162857,-0.013307183980941772,-0.10760319232940674
-0.10259626060724258,0.2790570557117462,0.6169857978820801,-0.03414361923933029,-0.01360444724559784,-0.07951706647872925
-0.18824705481529236,0.22022204101085663,0.5734040141105652,-0.037570804357528687,-0.019969984889030457,-0.09060508012771606
-0.28744053840637207,0.252947598695755,0.6173995137214661,0.0019592568278312683,-0.02192169427871704,-0.12618225812911987
-0.4386434853076935,0.2977161705493927,0.8852687478065491,0.11669708788394928,0.032017119228839874,-0.19181102514266968
-0.5342998504638672,0.14458820223808289,1.2516436576843262,0.18210090696811676,0.04668803513050079,-0.25753533840179443
-0.4808046519756317,-0.03648290038108826,1.5371315479278564,0.14625199139118195,0.053710728883743286,-0.2867187261581421
-0.20011062920093536,-0.2137780487537384,1.5384355783462524,0.05056309700012207,0.07253521680831909,-0.27318018674850464
0.16757114231586456,-0.33840054273605347,1.315698504447937,-0.002670072019100189,0.11262901872396469,-0.19267332553863525
0.37671661376953125,-0.2502616345882416,0.9661655426025391,-0.02018391340970993,0.11802686750888824,-0.06497639417648315
0.31997495889663696,0.10463586449623108,0.6704172492027283,0.003033742308616638,0.06757576018571854,0.04891735315322876
0.22300463914871216,0.36747053265571594,0.6176016926765442,0.07914629578590393,0.012078963220119476,0.06838244199752808
0.20875243842601776,0.3571285009384155,0.7286370396614075,0.11586116999387741,-0.03859521448612213,0.05027037858963013
0.2396809607744217,0.19199219346046448,0.8423656821250916,0.08878903090953827,-0.07356613129377365,0.051918864250183105
0.24532824754714966,0.030341066420078278,0.8790512084960938,0.04311230033636093,-0.06838665157556534,0.09853178262710571
0.2183247208595276,-0.036282602697610855,0.8198258876800537,-0.0021238625049591064,-0.04699178785085678,0.16396194696426392
0.17419269680976868,0.006833553779870272,0.7324408888816833,-0.029978297650814056,-0.03490539640188217,0.2085205316543579
0.153440460562706,0.07720984518527985,0.6579421758651733,-0.033630117774009705,-0.04263678193092346,0.21655482053756714
0.15176312625408173,0.14186540246009827,0.6305875182151794,-0.028331175446510315,-0.0518374890089035,0.19994962215423584
0.11973141878843307,0.19582131505012512,0.626505434513092,-0.03398069739341736,-0.05364867299795151,0.1773950457572937
0.06656802445650101,0.16451923549175262,0.5722131133079529,-0.0536174550652504,-0.04205123335123062,0.14854145050048828
0.0010193483904004097,0.12534046173095703,0.5465757846832275,-0.05748213827610016,-0.027199693024158478,0.12421488761901855
-0.0803711861371994,0.11027321219444275,0.5317643880844116,-0.06406161934137344,-0.021709412336349487,0.11270797252655029
-0.1186932623386383,0.11939343065023422,0.49200984835624695,-0.08285562694072723,-0.027614735066890717,0.09340900182723999
-0.08683183789253235,0.09920763969421387,0.40101462602615356,-0.10926607251167297,-0.028250612318515778,0.057343244552612305
0.0001837797462940216,0.089133121073246,0.23128986358642578,-0.14846588671207428,-0.02535346895456314,0.00940924882888794
0.09311971068382263,0.06331174820661545,0.012798648327589035,-0.15474125742912292,-0.023175977170467377,0.004484236240386963
0.1318504959344864,-0.017006825655698776,-0.21383102238178253,-0.14231878519058228,-0.03411777317523956,-0.007998228073120117
0.1713760495185852,-0.1044454425573349,-0.3665463626384735,-0.11040931940078735,-0.06579411029815674,-0.003659069538116455
0.1582212895154953,-0.07761769741773605,-0.3882417380809784,-0.08133965730667114,-0.0927165299654007,0.0018482208251953125
0.08760503679513931,0.03468301147222519,-0.33616673946380615,-0.05904620140790939,-0.10458770394325256,-0.025727510452270508
0.021583523601293564,0.0194871723651886,-0.24387158453464508,-0.0339522659778595,-0.09236720204353333,-0.09523868560791016
0.008416078984737396,-0.21655027568340302,-0.10465210676193237,-0.040428176522254944,-0.08478736877441406,-0.14398932456970215
-0.06766504049301147,-0.4054059088230133,-0.01117015816271305,-0.08643695712089539,-0.06598709523677826,-0.13454806804656982
-0.21682876348495483,-0.4192029535770416,-0.02186618372797966,-0.111984983086586,-0.02283899486064911,-0.13847845792770386
-0.2785803973674774,-0.4567388594150543,-0.12962469458580017,-0.13708549737930298,0.009463019669055939,-0.1554064154624939
-0.2155197262763977,-0.489925742149353,-0.2984718978404999,-0.15312016010284424,0.01789582520723343,-0.13895893096923828
-0.18858294188976288,-0.4051065444946289,-0.43813616037368774,-0.13567769527435303,0.026451796293258667,-0.08176833391189575
-0.22782665491104126,-0.2831995487213135,-0.564551830291748,-0.11094482243061066,0.04518298804759979,-0.0544356107711792
-0.17321230471134186,-0.2831362187862396,-0.6858412027359009,-0.09872283041477203,0.06505425274372101,-0.053612351417541504
-0.053325850516557693,-0.2750592529773712,-0.8257200121879578,-0.10861438512802124,0.07703375816345215,-0.02493804693222046
-0.0010983922984451056,-0.1108298972249031,-1.0256335735321045,-0.11671580374240875,0.08553200960159302,0.0016353130340576172
0.020183756947517395,0.10738468915224075,-1.2678908109664917,-0.07513962686061859,0.10309021919965744,-0.011282026767730713
0.05009538680315018,0.26736560463905334,-1.4077519178390503,0.0018211081624031067,0.11742367595434189,-0.05129396915435791
0.09396297484636307,0.3210735619068146,-1.3876540660858154,0.05369870364665985,0.10457595437765121,-0.08525323867797852
0.18763922154903412,0.21458764374256134,-1.2839196920394897,0.050739020109176636,0.08870162069797516,-0.09586590528488159
0.33019834756851196,-0.006479863543063402,-1.189473032951355,0.016740359365940094,0.09560924768447876,-0.0477181077003479
0.404574990272522,-0.15161606669425964,-1.1900856494903564,0.007087528705596924,0.12034797668457031,0.03740799427032471
0.390907347202301,-0.25531041622161865,-1.2523128986358643,0.025591939687728882,0.1345408409833908,0.12431049346923828
0.32649797201156616,-0.2588602900505066,-1.2390815019607544,0.04583752900362015,0.11046355962753296,0.18892592191696167
0.280540406703949,-0.22277574241161346,-1.124839425086975,0.05982722342014313,0.07039117813110352,0.22690117359161377
0.21811790764331818,-0.11507425457239151,-0.9388710856437683,0.05843658745288849,0.0371086448431015,0.24771952629089355
0.1269613355398178,0.06360125541687012,-0.7298372983932495,0.05660231411457062,0.023779287934303284,0.23953884840011597
0.014367649331688881,0.15359537303447723,-0.5759889483451843,0.04165737330913544,0.0317196249961853,0.19765520095825195
-0.05168769881129265,0.12709583342075348,-0.498542845249176,0.018357351422309875,0.039189234375953674,0.14172619581222534
-0.05691905692219734,0.04132400453090668,-0.46827423572540283,-0.001983053982257843,0.03544704616069794,0.10181999206542969
-0.032150693237781525,0.007160718087106943,-0.4536268711090088,-0.02066250890493393,0.013796955347061157,0.08544963598251343
-0.010500620119273663,0.08752545714378357,-0.41868460178375244,-0.013059213757514954,-0.005035325884819031,0.06759577989578247
-0.037156619131565094,0.23494628071784973,-0.3284665048122406,0.01650935411453247,-0.0012734532356262207,0.021365106105804443
-0.07101363688707352,0.36510929465293884,-0.2271241545677185,0.04481636732816696,0.021742284297943115,-0.07691717147827148
-0.0424441434442997,0.3637603521347046,-0.09944608062505722,0.07029598951339722,0.04539068043231964,-0.1704246997833252
0.011255275458097458,0.13644453883171082,0.04662102833390236,0.05949687957763672,0.046986550092697144,-0.2033987045288086
0.04822675883769989,-0.1175517737865448,0.16668714582920074,0.013908177614212036,0.04040423035621643,-0.18048638105392456
-0.014246491715312004,-0.13866804540157318,0.21510657668113708,-0.021150946617126465,0.010690957307815552,-0.14006710052490234
-0.21108929812908173,0.15913772583007812,0.29731497168540955,-0.01095038652420044,0.0002466142177581787,-0.13095396757125854
-0.3799409866333008,0.4212475121021271,0.43796002864837646,0.030989404767751694,0.0020160675048828125,-0.20363909006118774
-0.3845023512840271,0.3761950433254242,0.6141417026519775,0.07175517827272415,0.04362115263938904,-0.2706913948059082
-0.3013380467891693,0.11396250128746033,0.7820433974266052,0.056896060705184937,0.08268563449382782,-0.2677018642425537
-0.10188855230808258,-0.3011114299297333,0.766050398349762,-0.008769772946834564,0.09973669052124023,-0.1865229606628418
0.18867389857769012,-0.6600978374481201,0.55166095495224,-0.05852962285280228,0.09985972940921783,-0.0395084023475647
0.4109368324279785,-0.6809441447257996,0.27419111132621765,-0.06623271852731705,0.07144010066986084,0.11600494384765625
0.40017786622047424,-0.1995662897825241,-0.0499916672706604,-0.03888288885354996,0.03905917704105377,0.2014530897140503
0.25696513056755066,0.41992276906967163,-0.31182998418807983,0.04699898511171341,0.022696807980537415,0.17039573192596436
0.14827340841293335,0.8045057058334351,-0.3727210760116577,0.1286381036043167,0.012870222330093384,0.07704043388366699
0.10751035809516907,0.7373961210250854,-0.27551892399787903,0.16367138922214508,0.003089040517807007,-0.017975568771362305
0.16726374626159668,0.2729349136352539,-0.10942859947681427,0.14514850080013275,-0.009097814559936523,-0.030413925647735596
0.2256731241941452,-0.19743359088897705,0.0814293771982193,0.05895660072565079,-0.024965554475784302,0.07732850313186646
0.14929430186748505,-0.3953556716442108,0.1623697578907013,-0.015563879162073135,-0.019379600882530212,0.20711785554885864
-0.03528083860874176,-0.33780649304389954,0.1372365653514862,-0.06863194704055786,-0.020931079983711243,0.2724872827529907
-0.18266542255878448,-0.14944025874137878,0.0402524434030056,-0.11271680891513824,-0.0221615731716156,0.261352002620697
-0.20392031967639923,0.07959774136543274,-0.10994724184274673,-0.1416473686695099,-0.013188302516937256,0.20796185731887817
-0.17053093016147614,0.23611769080162048,-0.2765125036239624,-0.13767506182193756,-0.008304998278617859,0.16005980968475342
-0.14504936337471008,0.2817733585834503,-0.41865476965904236,-0.12055878341197968,-0.005716964602470398,0.12610214948654175
-0.1451481431722641,0.22882859408855438,-0.48436737060546875,-0.10035042464733124,-0.0073981136083602905,0.10223251581192017
-0.16139931976795197,0.11225210875272751,-0.49590668082237244,-0.09997636079788208,-0.0060145556926727295,0.07657897472381592
-0.18116344511508942,-0.03832845389842987,-0.49298095703125,-0.11076295375823975,-0.010880574584007263,0.05611628293991089
-0.19153209030628204,-0.1911362260580063,-0.5075212717056274,-0.1237320825457573,-0.02855677902698517,0.020640909671783447
-0.10369781404733658,-0.22965584695339203,-0.563464343547821,-0.1274823397397995,-0.04531903564929962,-0.02222466468811035
0.04925931990146637,-0.28205570578575134,-0.6069306135177612,-0.1050661951303482,-0.047043055295944214,-0.049388766288757324
0.17475192248821259,-0.262693852186203,-0.655223548412323,-0.06658691167831421,-0.04012173414230347,-0.043603360652923584
0.14524410665035248,-0.1454363763332367,-0.6399185657501221,-0.016939666122198105,-0.04414510726928711,-0.045844197273254395
-0.012717006728053093,-0.04131448268890381,-0.5464423298835754,0.025380313396453857,-0.04659029841423035,-0.10045206546783447
-0.09623195976018906,-0.1749611496925354,-0.45583364367485046,0.032211530953645706,-0.05193065106868744,-0.19291400909423828
0.02444937452673912,-0.5930368304252625,-0.45837289094924927,0.012158345431089401,-0.07015050947666168,-0.22053217887878418
0.12259642779827118,-0.8560967445373535,-0.48621630668640137,-0.01508069783449173,-0.09314505755901337,-0.13634783029556274
-0.008971061557531357,-0.757550835609436,-0.5470526814460754,-0.036594681441783905,-0.10888375341892242,-0.06877994537353516
-0.20254816114902496,-0.5812785625457764,-0.5754488706588745,-0.019828900694847107,-0.09774556756019592,-0.07388412952423096
-0.355356901884079,-0.44592955708503723,-0.5095887184143066,-0.01768011599779129,-0.07743866741657257,-0.10556501150131226
-0.39463096857070923,-0.38903671503067017,-0.42981287837028503,-0.05094154179096222,-0.048717185854911804,-0.13501965999603271
-0.3226813077926636,-0.4132762849330902,-0.36403515934944153,-0.08998829871416092,0.0032423287630081177,-0.12760406732559204
-0.24018198251724243,-0.5735757350921631,-0.3925953507423401,-0.13237088918685913,0.06629824638366699,-0.06619131565093994
-0.16049109399318695,-0.7274972796440125,-0.582951545715332,-0.16764308512210846,0.11368489265441895,0.01015406847000122
-0.06689365208148956,-0.6845457553863525,-0.8066133856773376,-0.1881692111492157,0.13712845742702484,0.0872911810874939
-0.06904381513595581,-0.3217124342918396,-1.0843044519424438,-0.1967434585094452,0.11853788793087006,0.1302567720413208
-0.13790442049503326,0.09831560403108597,-1.365425705909729,-0.15143071115016937,0.12493878602981567,0.0965735912322998
-0.13536782562732697,0.41371288895606995,-1.5269341468811035,-0.0448160320520401,0.15898385643959045,0.0071419477462768555
-0.12764109671115875,0.5608324408531189,-1.5196071863174438,0.0429585725069046,0.17338170111179352,-0.07319879531860352
-0.10018917918205261,0.4198389947414398,-1.4089343547821045,0.08876892179250717,0.16085699200630188,-0.12966138124465942
0.043159641325473785,0.007897136732935905,-1.2407546043395996,0.08442725986242294,0.14566674828529358,-0.11683672666549683
0.23487047851085663,-0.35619810223579407,-1.1103752851486206,0.03716561198234558,0.1274838149547577,0.008893847465515137
0.2530168294906616,-0.4138214886188507,-1.056599736213684,0.012251518666744232,0.11369268596172333,0.16942936182022095
0.14284777641296387,-0.2632853388786316,-1.0326738357543945,0.014467902481555939,0.08748078346252441,0.2554771304130554
0.03663097694516182,-0.07116878032684326,-0.9348341822624207,0.02078920602798462,0.061485663056373596,0.26854509115219116
-0.04352739453315735,0.08569029718637466,-0.7775789499282837,0.011904962360858917,0.04180687665939331,0.23627769947052002
-0.14202642440795898,0.10550884157419205,-0.6065559983253479,-0.0011243298649787903,0.03594863414764404,0.18483364582061768
-0.2323792278766632,0.003211907111108303,-0.47345757484436035,-0.03534834831953049,0.033279404044151306,0.13617658615112305
-0.2599615752696991,-0.07670864462852478,-0.41353511810302734,-0.07863930612802505,0.024169921875,0.08806437253952026
-0.1927400827407837,-0.11411237716674805,-0.42370086908340454,-0.10152976959943771,0.025567248463630676,0.049737513065338135
-0.11709104478359222,-0.11804637312889099,-0.47854921221733093,-0.10744842886924744,0.032424211502075195,0.02889913320541382
-0.06134401634335518,-0.07102356851100922,-0.5682320594787598,-0.097153440117836,0.029801294207572937,-0.0017497539520263672
0.014072404243052006,0.008812339045107365,-0.6057872772216797,-0.07833492755889893,0.012947872281074524,-0.03714364767074585
0.07864423096179962,0.15684489905834198,-0.5836200714111328,-0.054279305040836334,0.00795067846775055,-0.06872862577438354
0.1000717356801033,0.23651820421218872,-0.5478198528289795,-0.014309331774711609,0.02589741349220276,-0.08902257680892944
0.07953283935785294,0.21673792600631714,-0.43993377685546875,0.024919062852859497,0.03501687943935394,-0.0851433277130127
-0.004863630514591932,0.18923307955265045,-0.26952293515205383,0.016762904822826385,0.0005082190036773682,-0.05599099397659302
-0.2128610610961914,0.3780728280544281,-0.09871799498796463,0.001288585364818573,-0.03738027811050415,-0.059232473373413086
-0.46125051379203796,0.7467961311340332,0.053707607090473175,0.04190065339207649,-0.02797187864780426,-0.1773148775100708
-0.4403195381164551,0.7240422368049622,0.16695620119571686,0.09371165931224823,0.005237758159637451,-0.33635568618774414
-0.09672937542200089,0.3913213610649109,0.29037100076675415,0.09929047524929047,0.04330131411552429,-0.3847825527191162
0.21618328988552094,0.09733309596776962,0.3308284878730774,0.05598774552345276,0.07601438462734222,-0.2963845729827881
0.2948908805847168,-0.10335671156644821,0.20511415600776672,0.031545888632535934,0.07712087035179138,-0.16726523637771606
0.3220044672489166,-0.28989285230636597,0.05191224440932274,0.0539034940302372,0.0812469869852066,-0.07067078351974487
0.4632613956928253,-0.396502286195755,-0.022059373557567596,0.0926615446805954,0.07444712519645691,0.009383201599121094
0.6182106137275696,-0.2653876543045044,0.004126626532524824,0.13312086462974548,0.06913577020168304,0.0876389741897583
0.5873144865036011,0.11445338279008865,0.0801895335316658,0.1607818901538849,0.07131491601467133,0.1421753168106079
0.4007079601287842,0.48514607548713684,0.1876676380634308,0.1780214160680771,0.08005015552043915,0.12530356645584106
0.1820920705795288,0.5115894079208374,0.30584296584129333,0.1520773023366928,0.091279536485672,0.060435593128204346
0.06600181013345718,0.1849936693906784,0.34032195806503296,0.08298997581005096,0.08725516498088837,0.03652101755142212
0.04208526387810707,-0.22877593338489532,0.25332969427108765,0.002311963587999344,0.07880909740924835,0.06360453367233276
0.08969131112098694,-0.5259361267089844,0.07847719639539719,-0.027666710317134857,0.05558185279369354,0.14601290225982666
0.13398154079914093,-0.48439595103263855,-0.09642378985881805,-0.02734537422657013,0.031743124127388,0.22104358673095703
0.13379926979541779,-0.29217058420181274,-0.1957986056804657,-0.014177635312080383,-0.0043907612562179565,0.2797625660896301
0.034679919481277466,-0.04093162715435028,-0.15726523101329803,-0.026823174208402634,-0.05376024544239044,0.3013061285018921
-0.11891741305589676,0.19492773711681366,-0.045792900025844574,-0.04111171141266823,-0.086702361702919,0.2693023085594177
-0.2808515727519989,0.2903195321559906,0.09741955250501633,-0.05000310391187668,-0.07649421691894531,0.20796120166778564
-0.4029947817325592,0.21050459146499634,0.13859522342681885,-0.07141513377428055,-0.04028777778148651,0.13193154335021973
-0.46277445554733276,0.0722876712679863,0.04619801789522171,-0.09949062019586563,-0.037924423813819885,0.05501151084899902
-0.4324776828289032,-0.11469277739524841,-0.13373860716819763,-0.08051496744155884,-0.04837864637374878,-0.013571500778198242
-0.3408464789390564,-0.35785365104675293,-0.23967352509498596,-0.0367385596036911,-0.0721185952425003,-0.040217041969299316
-0.24344825744628906,-0.4837210476398468,-0.238589346408844,-0.02277015894651413,-0.10987375676631927,-0.03506094217300415
-0.13141435384750366,-0.44054803252220154,-0.23404955863952637,-0.015496466308832169,-0.13032105565071106,-0.029458343982696533
0.0075448849238455296,-0.25637882947921753,-0.2729378044605255,0.0023674890398979187,-0.11307905614376068,-0.043412208557128906
0.15520092844963074,-0.06259243190288544,-0.3772926330566406,0.029534466564655304,-0.09586077928543091,-0.0786852240562439
0.29179757833480835,0.016329370439052582,-0.4499897360801697,0.07341382652521133,-0.07882572710514069,-0.10086458921432495
0.395550936460495,-0.008555985055863857,-0.4563807547092438,0.1150701493024826,-0.0696905106306076,-0.09926599264144897
0.4834490120410919,-0.13195113837718964,-0.442640483379364,0.1332603394985199,-0.0665978193283081,-0.08659666776657104
0.5480344295501709,-0.24662628769874573,-0.4225960969924927,0.11781676858663559,-0.08563205599784851,-0.05203390121459961
0.5331524610519409,-0.26376160979270935,-0.3550902009010315,0.0885496437549591,-0.1121130883693695,-0.02067863941192627
0.37343963980674744,-0.13304007053375244,-0.19694586098194122,0.07600364834070206,-0.10320013761520386,-0.02437305450439453
0.14381147921085358,0.010176151990890503,-0.006111649796366692,0.06853494793176651,-0.05832099914550781,-0.0939820408821106
-0.09545694291591644,0.008771202526986599,0.17368184030056,0.05606767535209656,0.011380791664123535,-0.17901140451431274
-0.18693241477012634,-0.1723329871892929,0.20871476829051971,0.0004394054412841797,0.047611355781555176,-0.24850976467132568
-0.08500847965478897,-0.43802905082702637,0.11547839641571045,-0.0323551669716835,0.0843532383441925,-0.2440975308418274
0.0540807768702507,-0.5977758169174194,-0.0001909341663122177,-0.043642207980155945,0.10717602074146271,-0.16010433435440063
0.12063965946435928,-0.5744033455848694,-0.12281349301338196,-0.03120226413011551,0.10872508585453033,-0.06088221073150635
0.1292954534292221,-0.4162341058254242,-0.22188343107700348,-0.00911065936088562,0.11499716341495514,0.00107574462890625
0.17015136778354645,-0.19265802204608917,-0.2998189330101013,0.023015618324279785,0.12408074736595154,0.01956731081008911
0.251403272151947,0.012679391540586948,-0.3163051903247833,0.07613758742809296,0.1381184160709381,0.01082223653793335
0.2874659299850464,0.150550976395607,-0.25435712933540344,0.12376219779253006,0.15557637810707092,0.0032819509506225586
0.25569915771484375,0.20252782106399536,-0.17173904180526733,0.1557985246181488,0.16127341985702515,-0.02698647975921631
0.2154039740562439,0.16568854451179504,-0.027101684361696243,0.20087747275829315,0.18346557021141052,-0.04378700256347656
0.16234277188777924,0.06251811236143112,0.1743597388267517,0.22099940478801727,0.1929398477077484,-0.05179661512374878
0.17541199922561646,-0.06401655077934265,0.3652655780315399,0.21164436638355255,0.1874220073223114,-0.03283268213272095
0.22559507191181183,-0.09802690893411636,0.5479703545570374,0.1903463900089264,0.1830419898033142,0.018043220043182373
0.2386471927165985,-0.05271216109395027,0.6954465508460999,0.16972757875919342,0.17571404576301575,0.07570785284042358
0.26427701115608215,0.05235223472118378,0.7904990315437317,0.15799807012081146,0.16962113976478577,0.09455335140228271
0.30950865149497986,0.09817751497030258,0.910576343536377,0.15385602414608002,0.16129708290100098,0.12826168537139893
0.2484898567199707,0.19230149686336517,1.0501095056533813,0.13211359083652496,0.14329949021339417,0.15540087223052979
0.09672268480062485,0.3021199107170105,1.2074953317642212,0.11584526300430298,0.12903276085853577,0.14859795570373535
-0.09764730930328369,0.357230007648468,1.3834270238876343,0.10146215558052063,0.1255033016204834,0.10650211572647095
-0.284991055727005,0.2855546474456787,1.5623770952224731,0.07123129069805145,0.11150011420249939,0.052367448806762695
-0.4192056655883789,0.12186001986265182,1.6939942836761475,0.030834883451461792,0.10520815849304199,-0.006955206394195557
-0.3651273548603058,0.026170628145337105,1.719854712486267,0.0044303834438323975,0.11614814400672913,-0.07110702991485596
-0.07855597883462906,0.10809578001499176,1.665956735610962,-0.003007560968399048,0.12143649160861969,-0.10441631078720093
0.2826923429965973,0.3595763146877289,1.630860686302185,0.012751445174217224,0.11545829474925995,-0.08164888620376587
0.4860013425350189,0.728520929813385,1.6479192972183228,0.01398436725139618,0.09921689331531525,-0.04465746879577637
0.4762285351753235,0.9922916889190674,1.7507003545761108,0.02523207664489746,0.09370161592960358,-0.05483365058898926
0.34623637795448303,0.9321668148040771,1.9098117351531982,0.04904848337173462,0.09913431107997894,-0.10550194978713989
0.23553992807865143,0.6957414150238037,2.0928754806518555,0.06803862750530243,0.129777193069458,-0.14279240369796753
0.204605370759964,0.4268011450767517,2.2463595867156982,0.06453599035739899,0.16295351088047028,-0.1335970163345337
0.274817556142807,0.24116963148117065,2.3381216526031494,0.027434051036834717,0.1801176816225052,-0.07812952995300293
0.39898058772087097,0.17989671230316162,2.336088180541992,-0.024555951356887817,0.1648896336555481,-0.000902712345123291
0.47483307123184204,0.4348042607307434,2.2793357372283936,-0.03796811401844025,0.14481648802757263,0.04495805501937866
0.4992027282714844,0.8069974780082703,2.242361307144165,-0.008265390992164612,0.13239404559135437,0.020842015743255615
0.48844242095947266,1.0650726556777954,2.3003203868865967,0.05426928400993347,0.1652524471282959,-0.028072595596313477
0.43134805560112,1.1565227508544922,2.404963970184326,0.09107941389083862,0.19481158256530762,-0.06875187158584595
0.35809093713760376,1.2802681922912598,2.506722927093506,0.0986396074295044,0.20925405621528625,-0.12312066555023193
0.3224294185638428,1.3711981773376465,2.5607686042785645,0.0967101901769638,0.20923662185668945,-0.19464343786239624
0.3795594274997711,1.2663092613220215,2.5671164989471436,0.1036449447274208,0.21993014216423035,-0.23535889387130737
0.3905620574951172,1.0256229639053345,2.5722720623016357,0.11761512607336044,0.221559077501297,-0.21758896112442017
0.2840472161769867,0.687239944934845,2.6118929386138916,0.15067720413208008,0.2128426730632782,-0.18316292762756348
0.1262672394514084,0.33778494596481323,2.7320961952209473,0.19397978484630585,0.21513712406158447,-0.14523613452911377
0.07774797081947327,0.19622695446014404,2.860621452331543,0.19423019886016846,0.21226269006729126,-0.12054842710494995
0.19005286693572998,0.278207004070282,2.9007785320281982,0.1837068796157837,0.21147075295448303,-0.10395199060440063
0.354175329208374,0.48638203740119934,2.834294319152832,0.14057646691799164,0.2181675136089325,-0.06064045429229736
0.44342485070228577,0.6423429846763611,2.729088306427002,0.11635323613882065,0.22122856974601746,-0.00426030158996582
0.412941575050354,0.6729230880737305,2.6517655849456787,0.11162775009870529,0.2048666775226593,0.047378599643707275
0.291512131690979,0.6228984594345093,2.6354966163635254,0.11909496039152145,0.1731908917427063,0.07548946142196655
0.19765052199363708,0.5116177201271057,2.632779359817505,0.13667838275432587,0.13676586747169495,0.06870895624160767
0.1959826946258545,0.48352789878845215,2.6452431678771973,0.15436404943466187,0.12665876746177673,0.06312167644500732
0.2413172870874405,0.5892429947853088,2.628382921218872,0.15099114179611206,0.12596386671066284,0.0578194260597229
0.2564080059528351,0.776902437210083,2.5949604511260986,0.14610567688941956,0.12008669972419739,0.056153059005737305
0.2703683376312256,1.0219945907592773,2.5770885944366455,0.14049212634563446,0.12263354659080505,0.03448528051376343
0.3059418797492981,1.2191731929779053,2.571392774581909,0.13336113095283508,0.1293703317642212,-0.00651472806930542
0.3474803864955902,1.25969398021698,2.5847079753875732,0.13102096319198608,0.13799084722995758,-0.05366462469100952
0.3742789328098297,1.1526167392730713,2.6187503337860107,0.131117582321167,0.14798589050769806,-0.0859447717666626
0.36676985025405884,1.0008808374404907,2.659335136413574,0.1145789846777916,0.1515599489212036,-0.08332419395446777
0.2755989730358124,0.893635630607605,2.6992416381835938,0.09339611232280731,0.15196532011032104,-0.045754194259643555
0.1505909413099289,0.859762966632843,2.7040793895721436,0.06227746605873108,0.1366385519504547,-0.015154540538787842
0.09914973378181458,0.8959733843803406,2.7070980072021484,0.029841743409633636,0.11903604865074158,-0.01197880506515503
0.08501020073890686,0.916000485420227,2.725245475769043,0.007801957428455353,0.11188900470733643,-0.021347522735595703
0.051944196224212646,0.9184905290603638,2.7328295707702637,-0.014515995979309082,0.10344268381595612,-0.029493272304534912
-0.002487285528331995,0.8688021898269653,2.7249069213867188,-0.03363983333110809,0.10898801684379578,-0.028643131256103516
-0.04481133446097374,0.7895984053611755,2.6668360233306885,-0.06984073668718338,0.10165834426879883,-0.030189692974090576
-0.046368394047021866,0.7064229846000671,2.5886847972869873,-0.09567278623580933,0.09588861465454102,-0.024877607822418213
-0.05465470254421234,0.6551565527915955,2.495532274246216,-0.11076875030994415,0.08637730777263641,-0.006161868572235107
-0.09711434692144394,0.6367617845535278,2.3820765018463135,-0.1266563981771469,0.06986339390277863,0.015969514846801758
-0.12460147589445114,0.6182740330696106,2.247102737426758,-0.14172431826591492,0.043301403522491455,0.02759486436843872
-0.11670226603746414,0.507093608379364,2.1229355335235596,-0.13941968977451324,0.026303857564926147,0.033462703227996826
-0.1384756863117218,0.4109612703323364,2.0197761058807373,-0.14060088992118835,0.007269635796546936,0.06654900312423706
-0.24633505940437317,0.38078007102012634,1.9237160682678223,-0.1491139829158783,-0.0170174241065979,0.11078411340713501
-0.37010765075683594,0.35903340578079224,1.8187894821166992,-0.1530769169330597,-0.04100652039051056,0.11540108919143677
-0.3782128691673279,0.3287491202354431,1.6924340724945068,-0.16107548773288727,-0.05141083896160126,0.07828634977340698
-0.31390538811683655,0.2955571711063385,1.5519380569458008,-0.16389021277427673,-0.058378905057907104,0.053401052951812744
-0.2299424409866333,0.25763261318206787,1.4112217426300049,-0.1647488921880722,-0.06812354922294617,0.03921949863433838
-0.21309718489646912,0.24581368267536163,1.313950777053833,-0.14753425121307373,-0.07923121750354767,0.05245471000671387
-0.23002120852470398,0.24417182803153992,1.2354145050048828,-0.13703212141990662,-0.09461894631385803,0.05642026662826538
-0.22895824909210205,0.23213393986225128,1.1594352722167969,-0.11389544606208801,-0.08583194017410278,0.029390275478363037
-0.20310811698436737,0.18957307934761047,1.0807770490646362,-0.08968453109264374,-0.07226613163948059,0.0016672611236572266
-0.13329462707042694,0.1334448754787445,0.9997017979621887,-0.08271737396717072,-0.0670800656080246,-0.032299578189849854
-0.060966264456510544,0.09431714564561844,0.9728293418884277,-0.08099232614040375,-0.061928585171699524,-0.0467488169670105
-0.034853123128414154,0.10530301183462143,0.9579674601554871,-0.0819866806268692,-0.044858112931251526,-0.0482250452041626
-0.0533280223608017,0.11209982633590698,0.9077877998352051,-0.08116995543241501,-0.01981113851070404,-0.06568318605422974
-0.05577203631401062,0.05599904805421829,0.8758564591407776,-0.07065184414386749,-0.002335458993911743,-0.09169787168502808
-0.01087042037397623,-0.09907643496990204,0.855198860168457,-0.07001827657222748,0.0053386390209198,-0.11111772060394287
0.05248766019940376,-0.22755566239356995,0.8277232050895691,-0.0727677121758461,0.007602900266647339,-0.0964847207069397
0.0961243286728859,-0.2530399560928345,0.8017420768737793,-0.06468679010868073,0.01160120964050293,-0.05368673801422119
0.13584357500076294,-0.25218328833580017,0.7835488319396973,-0.0417628213763237,0.022914797067642212,-0.020997047424316406
0.17216147482395172,-0.20449157059192657,0.7886448502540588,-0.035601064562797546,0.02458721399307251,0.0074541568756103516
0.16847369074821472,-0.11563583463430405,0.7889628410339355,-0.05234433710575104,0.018986091017723083,0.03318333625793457
0.12359197437763214,-0.008381166495382786,0.7571932077407837,-0.060455597937107086,0.02415713667869568,0.03351658582687378
0.10082867741584778,0.03324352577328682,0.7184892296791077,-0.045176759362220764,0.03764083981513977,-0.0041168928146362305
0.12156075984239578,0.03982062265276909,0.7235600352287292,-0.023456767201423645,0.0482860803604126,-0.04560345411300659
0.10691388696432114,-0.016133436933159828,0.7376924157142639,-0.0035086944699287415,0.060703977942466736,-0.06494539976119995
0.09461774677038193,-0.12465209513902664,0.7136488556861877,-0.01075085997581482,0.05816778540611267,-0.07834482192993164
0.10591714084148407,-0.1923220306634903,0.6559533476829529,-0.02930484712123871,0.06288731098175049,-0.07545506954193115
0.13103841245174408,-0.19716835021972656,0.5645075440406799,-0.05212242901325226,0.05606876313686371,-0.058053016662597656
0.1539776623249054,-0.19487102329730988,0.4760821759700775,-0.04093487560749054,0.06079375743865967,-0.03578925132751465
0.18812492489814758,-0.19888938963413239,0.4160909056663513,-0.022514455020427704,0.06693807244300842,-0.01604074239730835
0.20340509712696075,-0.21500591933727264,0.40607529878616333,-0.004305198788642883,0.05995407700538635,0.02107912302017212
0.16461794078350067,-0.1634114533662796,0.4347200095653534,-0.0017232000827789307,0.043291106820106506,0.06406140327453613
0.11198007315397263,-0.08749503642320633,0.4532106816768646,-0.006024971604347229,0.030825287103652954,0.08281058073043823
0.059002455323934555,-0.00486904988065362,0.4442303478717804,-0.012921959161758423,0.03196448087692261,0.08334940671920776
0.044786982238292694,0.06831043213605881,0.4190356731414795,-0.02770864963531494,0.019074320793151855,0.06302493810653687
0.06465277075767517,0.11909513920545578,0.40180376172065735,-0.03063523769378662,0.009373560547828674,0.04041570425033569
0.053751010447740555,0.11191543191671371,0.3839484751224518,-0.02522478997707367,0.0042276531457901,0.04006063938140869
-0.003151562297716737,0.11147435754537582,0.34685343503952026,-0.030004173517227173,-0.0009940266609191895,0.04944050312042236
-0.016026781871914864,0.16184590756893158,0.2772674560546875,-0.04915216565132141,-0.01275809109210968,0.04247099161148071
0.08228037506341934,0.2037229984998703,0.18491420149803162,-0.05355915427207947,-0.01097196340560913,0.012794971466064453
0.19908499717712402,0.2163524031639099,0.1286258101463318,-0.04337276518344879,-0.026477545499801636,0.00079345703125
0.26726555824279785,0.24563467502593994,0.09710459411144257,-0.039436936378479004,-0.042230501770973206,0.008251845836639404
0.2678734362125397,0.22462664544582367,0.10044015198945999,-0.028276748955249786,-0.04395736753940582,0.03007364273071289
0.16345857083797455,0.15639571845531464,0.1381746381521225,-0.014219895005226135,-0.038471952080726624,0.06370699405670166
0.041698306798934937,0.09214110672473907,0.16807207465171814,-0.011517956852912903,-0.040865734219551086,0.07763296365737915
-0.022007513791322708,0.03943153843283653,0.18754670023918152,-0.021469861268997192,-0.041804611682891846,0.07048565149307251
-0.039014291018247604,0.040504276752471924,0.16381017863750458,-0.04583831876516342,-0.04410658776760101,0.06562358140945435
-0.0009487837087363005,0.13193489611148834,0.09721112996339798,-0.06489717960357666,-0.05084763467311859,0.06418108940124512
0.0796232521533966,0.24999450147151947,0.033513735979795456,-0.06347527354955673,-0.04971820116043091,0.05433851480484009
0.11916375160217285,0.3501308262348175,0.008916785940527916,-0.0415053591132164,-0.04715830087661743,0.04809153079986572
0.06882814317941666,0.3423871099948883,0.02442365512251854,-0.015844106674194336,-0.046399712562561035,0.051042377948760986
-0.016039425507187843,0.315774530172348,0.051899198442697525,-0.011492438614368439,-0.050795793533325195,0.038681745529174805
-0.04291790351271629,0.2734377086162567,0.06685665249824524,-0.019165202975273132,-0.058678582310676575,0.013790726661682129
-0.042994096875190735,0.29943951964378357,0.045839421451091766,-0.025323010981082916,-0.057626157999038696,-0.0019748806953430176
-0.0603858083486557,0.3436810374259949,-0.0010759537108242512,-0.020302101969718933,-0.05452929437160492,-0.006154537200927734
-0.1027860939502716,0.3752499222755432,-0.025832010433077812,-0.006902843713760376,-0.0548669695854187,-0.013929426670074463
-0.13660584390163422,0.3934820592403412,-0.023801889270544052,0.012465618550777435,-0.05549547076225281,-0.039765000343322754
-0.12499355524778366,0.37079736590385437,-0.0024064690805971622,0.03330139070749283,-0.057562604546546936,-0.06971293687820435
-0.0709880143404007,0.29109880328178406,0.05360117182135582,0.04798766225576401,-0.05450662970542908,-0.08239006996154785
-0.12396786361932755,0.42258796095848083,0.12511585652828217,0.046217180788517,-0.05697442591190338,-0.07358366250991821
-0.24345296621322632,0.6628840565681458,0.1663043051958084,0.039593130350112915,-0.04632200300693512,-0.10471022129058838
-0.2485692799091339,0.6005569100379944,0.2450890839099884,0.049646634608507156,-0.03259874880313873,-0.16342979669570923
-0.25700390338897705,0.5026636719703674,0.3145442008972168,0.03720597177743912,0.001218840479850769,-0.17487835884094238
-0.30503761768341064,0.34806084632873535,0.23876728117465973,0.008953869342803955,0.007730603218078613,-0.15413320064544678
-0.20657585561275482,0.10402173548936844,0.07022963464260101,0.005294565111398697,0.007256224751472473,-0.1466960310935974
0.1741677075624466,-0.07448016852140427,-0.06661994010210037,0.015523005276918411,-0.006421372294425964,-0.10958164930343628
0.5931668877601624,-0.04400284215807915,-0.07326851040124893,0.02187446877360344,-0.009477853775024414,0.010255038738250732
0.704575777053833,0.3122638761997223,-0.038694240152835846,-0.008502990007400513,-0.0059111714363098145,0.16159796714782715
0.43784552812576294,0.8420088887214661,0.004646205808967352,-0.04365350306034088,-0.018248960375785828,0.2430984377861023
0.105056531727314,1.0891087055206299,0.06062846630811691,-0.048468586057424545,-0.019826456904411316,0.168626606464386
-0.0177739467471838,0.8802685737609863,0.18861287832260132,-0.012614943087100983,0.016442671418190002,0.002133667469024658
0.06410252302885056,0.37428051233291626,0.3307374119758606,-0.011579595506191254,0.042745158076286316,-0.10835158824920654
0.17926427721977234,-0.19976134598255157,0.4022246301174164,-0.04865100979804993,0.05693112313747406,-0.09627866744995117
0.17343513667583466,-0.4617603123188019,0.34407398104667664,-0.1278831958770752,0.04945814609527588,0.00515216588973999
0.10625376552343369,-0.43580472469329834,0.20886395871639252,-0.16972506046295166,0.03413014113903046,0.09254831075668335
0.10001031309366226,-0.2978241741657257,0.0898817628622055,-0.17305487394332886,0.029750242829322815,0.12962746620178223
0.13474169373512268,-0.1397901177406311,-0.005679015070199966,-0.16465473175048828,0.029866516590118408,0.13534784317016602
0.1519995778799057,-0.0991411879658699,-0.09194711595773697,-0.15240001678466797,0.030114978551864624,0.13843053579330444
0.0838078185915947,-0.1429268717765808,-0.1762591302394867,-0.14645573496818542,0.03426849842071533,0.14689558744430542
-0.07450635731220245,-0.1613374501466751,-0.24427030980587006,-0.14690592885017395,0.020300835371017456,0.16508305072784424
-0.252216100692749,-0.1255706250667572,-0.30082690715789795,-0.1359805464744568,0.006005153059959412,0.15435558557510376
-0.32573452591896057,-0.08788357675075531,-0.3502935469150543,-0.1266571432352066,-0.006822481751441956,0.10506188869476318
-0.28254836797714233,-0.08814813941717148,-0.40270400047302246,-0.11535636335611343,-0.010063260793685913,0.04447031021118164
-0.21808455884456635,-0.11354636400938034,-0.4627755582332611,-0.11566932499408722,-0.01502189040184021,0.00953298807144165
-0.17970962822437286,-0.18228058516979218,-0.5527629256248474,-0.126426100730896,-0.024669378995895386,-0.012236535549163818
-0.12308600544929504,-0.25036686658859253,-0.7114214897155762,-0.13875365257263184,-0.024532824754714966,-0.029889404773712158
-0.003855672897771001,-0.28865528106689453,-0.8912564516067505,-0.1394001841545105,-0.021022692322731018,-0.04016214609146118
0.09682013094425201,-0.27946797013282776,-1.0017331838607788,-0.10557112097740173,-0.028248324990272522,-0.028472423553466797
0.1499544382095337,-0.2320462018251419,-1.0224602222442627,-0.06729121506214142,-0.04726420342922211,-0.011857092380523682
0.17662498354911804,-0.1944480836391449,-0.9625084400177002,-0.02916605770587921,-0.05574549734592438,-0.016217947006225586
0.2081226110458374,-0.21938690543174744,-0.9037215709686279,-0.009398359805345535,-0.05267232656478882,-0.04427039623260498
0.2768184244632721,-0.32495787739753723,-0.8680948615074158,-0.0029151029884815216,-0.034891799092292786,-0.07940953969955444
0.3634148836135864,-0.485182523727417,-0.8339988589286804,0.01132921501994133,-0.008953481912612915,-0.09008103609085083
0.44924110174179077,-0.6826624274253845,-0.7939864993095398,0.0221550390124321,0.015369415283203125,-0.06866216659545898
0.4747241139411926,-0.8175228238105774,-0.7408831715583801,0.014633290469646454,0.018429458141326904,0.0015105009078979492
0.32940471172332764,-0.6618075966835022,-0.6905969977378845,-0.012068234384059906,0.01213100552558899,0.08502191305160522
0.09615714102983475,-0.42733725905418396,-0.6385166049003601,-0.02149926871061325,0.0076272934675216675,0.09900575876235962
-0.04846871271729469,-0.3357239067554474,-0.5539309978485107,-0.004525478929281235,0.014157414436340332,0.02650552988052368
-0.12830610573291779,-0.3441632091999054,-0.42928972840309143,0.01084577664732933,0.0385279655456543,-0.06320154666900635
-0.21612770855426788,-0.44550415873527527,-0.3257432281970978,0.0029289834201335907,0.04973490536212921,-0.13391613960266113
-0.19237135350704193,-0.5434678792953491,-0.3224684000015259,-0.041228827089071274,0.05612301826477051,-0.19658803939819336
-0.011457735672593117,-0.6775140166282654,-0.4112544357776642,-0.07190878689289093,0.08556029200553894,-0.22477281093597412
0.14876161515712738,-0.7935866117477417,-0.5653725266456604,-0.08606749027967453,0.11630046367645264,-0.1731494665145874
0.18214286863803864,-0.7670131921768188,-0.7189757823944092,-0.07958599925041199,0.12508249282836914,-0.07130831480026245
0.19181784987449646,-0.6849238872528076,-0.8088298439979553,-0.05264914035797119,0.12049111723899841,0.00031620264053344727
0.24152007699012756,-0.5895837545394897,-0.8136788606643677,-0.02293425053358078,0.11414340138435364,0.03833198547363281
0.23880405724048615,-0.3934585452079773,-0.7522510886192322,-0.008149638772010803,0.11208087205886841,0.07385116815567017
0.1635013222694397,-0.12177391350269318,-0.7121888399124146,-0.017460137605667114,0.1144697368144989,0.08094614744186401
0.06916902959346771,0.052035462111234665,-0.6920645236968994,-0.0187506303191185,0.12929435074329376,0.04999583959579468
-0.011736835353076458,0.10180913656949997,-0.6120878458023071,0.009861484169960022,0.13975632190704346,-0.013956010341644287
-0.04973221197724342,0.008293653838336468,-0.4979816973209381,0.03571067005395889,0.13239207863807678,-0.07954561710357666
-0.011392406187951565,-0.15429945290088654,-0.361742228269577,0.041263990104198456,0.1197981983423233,-0.1201171875
0.05732523649930954,-0.3695295453071594,-0.22745941579341888,0.04856591671705246,0.11960357427597046,-0.11082446575164795
0.08211419731378555,-0.47992029786109924,-0.1292131096124649,0.04852844029664993,0.12030068039894104,-0.03779202699661255
0.08115488290786743,-0.47081077098846436,-0.07293449342250824,0.039053916931152344,0.10805994272232056,0.0412440299987793
0.10403641313314438,-0.37009358406066895,-0.02301551029086113,0.027469635009765625,0.09530666470527649,0.09982609748840332
0.08269236981868744,-0.20737425982952118,0.04022012650966644,0.029180705547332764,0.096137136220932,0.14894068241119385
0.0010691555216908455,-0.07890511304140091,0.12060926109552383,0.037507250905036926,0.08928439021110535,0.1758977770805359
-0.07257799059152603,0.03156311437487602,0.2117776721715927,0.03463798761367798,0.07750892639160156,0.16530996561050415
-0.12674149870872498,0.07989312708377838,0.29059547185897827,0.027729392051696777,0.07633444666862488,0.1456933617591858
-0.16803918778896332,0.0289008766412735,0.3557857275009155,0.023757383227348328,0.06639912724494934,0.12338930368423462
-0.228276789188385,-0.06324413418769836,0.43227556347846985,0.017934143543243408,0.049040988087654114,0.10781484842300415
-0.3826918601989746,-0.20092125236988068,0.5612219572067261,0.03310979902744293,0.037947699427604675,0.09477251768112183
-0.588441789150238,-0.4540287256240845,0.7132236957550049,0.05459567904472351,0.0289972722530365,0.07279020547866821
