rotation_x,rotation_y,rotation_z,acceleration_x,acceleration_y,acceleration_z
0.04798287898302078,-0.09257108718156815,-0.3158228397369385,-0.08791540563106537,-0.014121592044830322,0.010543286800384521
-0.034427668899297714,-0.1589321345090866,-0.41049855947494507,-0.10889898240566254,-0.020993828773498535,0.035672545433044434
-0.10722815990447998,-0.2175757884979248,-0.42664945125579834,-0.10838019847869873,-0.012997984886169434,0.03036677837371826
-0.0872667208313942,-0.2634390890598297,-0.46047577261924744,-0.11515568196773529,-0.015402734279632568,-0.009478986263275146
-0.014492841437458992,-0.30116596817970276,-0.5867119431495667,-0.14541086554527283,-0.0040302276611328125,-0.026484429836273193
0.08299882709980011,-0.36956340074539185,-0.7589404582977295,-0.16629908978939056,-0.028965532779693604,-0.03125959634780884
0.14209455251693726,-0.42221009731292725,-0.8835437297821045,-0.16624008119106293,-0.044674038887023926,-0.028981506824493408
0.21234764158725739,-0.3759936988353729,-0.9331498146057129,-0.1802109181880951,-0.04307514429092407,-0.030765891075134277
0.3215303122997284,-0.2675386071205139,-0.8865407705307007,-0.2105027735233307,-0.02647930383682251,-0.02815115451812744
0.4339609444141388,-0.15596097707748413,-0.652177095413208,-0.13634425401687622,-0.08674871921539307,-0.036585330963134766
0.4134112596511841,-0.2171865850687027,-0.6030402779579163,-0.11350142955780029,-0.05273127555847168,-0.006779909133911133
0.2940452992916107,-0.3001796007156372,-0.5816648602485657,-0.1165187656879425,-0.038523316383361816,0.0247194766998291
0.1544984132051468,-0.48209863901138306,-0.5775040984153748,-0.10441482812166214,-0.04771828651428223,0.05487370491027832
0.021049927920103073,-0.6536857485771179,-0.6599411368370056,-0.12444745004177094,-0.0011110901832580566,0.08332020044326782
-0.18026241660118103,-0.3474818468093872,-0.9770085215568542,-0.1844421625137329,0.05201345682144165,0.16012531518936157
-0.45704689621925354,-0.42061731219291687,-1.2282193899154663,-0.16944804787635803,0.0015930533409118652,0.23025602102279663
-0.9921922087669373,-0.6663398146629333,-1.9117058515548706,-0.21751008927822113,0.06865251064300537,0.33566683530807495
-1.1664055585861206,-1.0409069061279297,-1.6597391366958618,-0.221164733171463,0.05027705430984497,0.32963621616363525
-0.8578242659568787,-1.56636381149292,-1.2340126037597656,0.08244544267654419,0.017575442790985107,0.281694233417511
-0.4565814733505249,-1.4775720834732056,-1.136654019355774,0.07919257879257202,0.10162699222564697,0.20081639289855957
-0.32118889689445496,-0.7273743748664856,-1.1812224388122559,0.011115506291389465,0.09765523672103882,0.39963245391845703
-0.579583466053009,-0.23470592498779297,-1.2359402179718018,-0.08538151532411575,0.07279476523399353,0.4640185832977295
-0.6331598162651062,0.058145903050899506,-1.5011569261550903,-0.09636792540550232,0.14159268140792847,0.4758131504058838
-0.38276955485343933,0.41253918409347534,-1.7599270343780518,-0.11701499670743942,0.2309107780456543,0.4063107967376709
-0.17064596712589264,0.9434344172477722,-1.6928045749664307,-0.03362010419368744,0.2460727095603943,0.4020199179649353
-0.3011985421180725,1.5902451276779175,-1.5554704666137695,0.018902719020843506,0.23874038457870483,0.46405184268951416
-0.4247056841850281,2.4712889194488525,-1.653734564781189,8.568167686462402e-05,0.2822974920272827,0.44771623611450195
-0.26740872859954834,3.1180453300476074,-1.9459463357925415,-0.05428561568260193,0.3156752586364746,0.2981795072555542
0.05694521963596344,3.337667465209961,-2.4781196117401123,-0.04443731904029846,0.40605399012565613,0.15838181972503662
0.15817894041538239,3.19883394241333,-3.006615400314331,-0.07869470119476318,0.4492999017238617,0.13613146543502808
-0.08963796496391296,2.955214262008667,-3.287648916244507,0.004308462142944336,0.49233582615852356,0.23174327611923218
-0.628219723701477,2.771791696548462,-3.3288564682006836,0.09969276189804077,0.4934605658054352,0.3593538999557495
-1.1125731468200684,2.798582077026367,-3.3102071285247803,0.15803426504135132,0.5253381133079529,0.3942887783050537
-1.5644515752792358,3.03063702583313,-3.3479347229003906,0.17770880460739136,0.524571418762207,0.37107163667678833
-1.506088137626648,3.465683937072754,-3.4622535705566406,0.2356206774711609,0.6144468188285828,0.2661086916923523
-0.8473985195159912,3.944124460220337,-3.5486042499542236,0.3153785467147827,0.6554852724075317,0.03160583972930908
-0.10707569122314453,4.253459453582764,-3.6366755962371826,0.35152214765548706,0.6821643710136414,-0.07996243238449097
0.14097540080547333,4.202357292175293,-3.905099868774414,0.33997398614883423,0.7000142335891724,-0.055329084396362305
-0.153743177652359,3.989919424057007,-4.020441055297852,0.41373908519744873,0.7115170955657959,0.050309330224990845
-0.05219697952270508,4.148965358734131,-3.8623719215393066,0.6228967905044556,0.6871268153190613,-0.023981302976608276
0.6099104285240173,4.532870769500732,-3.63411808013916,0.7616822123527527,0.5965718030929565,-0.21254464983940125
1.5640764236450195,4.507401466369629,-3.611556053161621,0.8042653203010559,0.46282896399497986,-0.37338221073150635
2.2815170288085938,3.8503940105438232,-3.7995681762695312,0.7844487428665161,0.3564140200614929,-0.43824732303619385
2.354712724685669,2.594496011734009,-3.6696653366088867,0.8032163977622986,0.15858569741249084,-0.3664126992225647
1.8048770427703857,1.0562297105789185,-3.0995328426361084,0.912928581237793,-0.06837481260299683,-0.16645294427871704
1.2434873580932617,-0.27360472083091736,-2.4848716259002686,0.9826874732971191,-0.2584294080734253,-0.05833619460463524
0.8633139729499817,-1.2101008892059326,-1.9894474744796753,0.9246669411659241,-0.3650963306427002,0.003472335636615753
0.6150461435317993,-1.618917465209961,-1.6266554594039917,0.8216281533241272,-0.4120054244995117,0.06232411414384842
0.3858049213886261,-1.5934005975723267,-1.3268945217132568,0.6759145259857178,-0.45088326930999756,0.14560675621032715
0.19534419476985931,-1.3194929361343384,-1.083739161491394,0.5468186140060425,-0.48402535915374756,0.21176719665527344
0.08532160520553589,-0.9089043140411377,-0.8963894844055176,0.44302845001220703,-0.5004807114601135,0.22798258066177368
0.14996923506259918,-0.5725832581520081,-0.7428039312362671,0.3787105679512024,-0.5162602066993713,0.19957101345062256
0.30141347646713257,-0.3248575031757355,-0.698941171169281,0.3195798993110657,-0.5333988666534424,0.1729300618171692
0.44582638144493103,-0.16791771352291107,-0.7759397625923157,0.2744668126106262,-0.5426861047744751,0.17427058517932892
0.48673489689826965,0.05615410953760147,-0.8449873328208923,0.25606316328048706,-0.5634765028953552,0.23312534391880035
0.5098844170570374,0.3097088634967804,-0.8146049380302429,0.2987874150276184,-0.6047354936599731,0.2622961103916168
0.5747105479240417,0.559019923210144,-0.6615170240402222,0.38819068670272827,-0.630825400352478,0.24506300687789917
0.6001327037811279,0.7354519367218018,-0.4217860996723175,0.48306405544281006,-0.6527965068817139,0.22292357683181763
0.47030654549598694,0.8622034788131714,-0.17021463811397552,0.5718368291854858,-0.6484885811805725,0.22749574482440948
0.3385467529296875,0.9380719065666199,0.049583494663238525,0.6858507990837097,-0.5819694995880127,0.1856648325920105
0.4336012303829193,0.9819446206092834,0.2755020558834076,0.7961251735687256,-0.48735523223876953,0.08474084734916687
0.6292758584022522,1.2105071544647217,0.6158838868141174,0.8214877247810364,-0.4835774898529053,-0.009410560131072998
0.8027967810630798,1.4444018602371216,1.0730881690979004,0.7931230664253235,-0.49643927812576294,-0.04695786535739899
0.9470433592796326,1.5556344985961914,1.5233358144760132,0.7221429347991943,-0.4591941833496094,-0.08421342074871063
1.0251120328903198,1.608314037322998,1.8832950592041016,0.6000089645385742,-0.390560507774353,-0.10167787969112396
1.055475115776062,1.6247262954711914,2.0963540077209473,0.47663092613220215,-0.28642547130584717,-0.11856001615524292
1.1220059394836426,1.6507351398468018,2.15740704536438,0.38594722747802734,-0.14410215616226196,-0.14508908987045288
1.2717211246490479,1.7264806032180786,2.0477845668792725,0.3384084105491638,0.017345309257507324,-0.17884021997451782
1.4660435914993286,1.9848482608795166,1.8409680128097534,0.3317057490348816,0.14188098907470703,-0.20725995302200317
1.5697944164276123,2.326753854751587,1.6636148691177368,0.39727115631103516,0.2208724021911621,-0.22636717557907104
1.5230342149734497,2.6605286598205566,1.6381609439849854,0.47558319568634033,0.22561365365982056,-0.2472447156906128
1.282692790031433,2.7816059589385986,1.784276008605957,0.5071235299110413,0.1671425998210907,-0.2880977392196655
0.8623248934745789,2.5326244831085205,2.045811176300049,0.5004011392593384,0.13065028190612793,-0.3276256322860718
0.39393430948257446,1.9557174444198608,2.3792688846588135,0.48417991399765015,0.1547223925590515,-0.37268733978271484
-0.016033003106713295,1.2250531911849976,2.7133853435516357,0.44680333137512207,0.23096159100532532,-0.41550445556640625
-0.24769766628742218,0.5327224731445312,2.923064947128296,0.36301374435424805,0.34113892912864685,-0.4592609405517578
-0.30244147777557373,-0.032148852944374084,2.941195487976074,0.2211005687713623,0.451619416475296,-0.47777748107910156
-0.1821012794971466,-0.32788679003715515,2.756366014480591,0.06939619779586792,0.5344622135162354,-0.47611522674560547
0.16012032330036163,-0.3381058871746063,2.4876012802124023,-0.09622561931610107,0.5660825371742249,-0.4782889187335968
0.5673238039016724,-0.14307941496372223,2.2102622985839844,-0.19850724935531616,0.5872039198875427,-0.47882771492004395
0.9598630666732788,0.054127223789691925,1.9539499282836914,-0.247475266456604,0.6021945476531982,-0.4580526351928711
1.1835757493972778,0.23148269951343536,1.716811180114746,-0.30313318967819214,0.6041423082351685,-0.4091559648513794
1.2717078924179077,0.342645525932312,1.5130945444107056,-0.3425101637840271,0.598976194858551,-0.3582801818847656
1.288148045539856,0.3392060399055481,1.3679137229919434,-0.3705472946166992,0.5814990997314453,-0.3236565589904785
1.2058403491973877,0.2526017427444458,1.189263939857483,-0.4037070870399475,0.5647567510604858,-0.2852821350097656
1.0260660648345947,0.0878572016954422,0.9532644152641296,-0.4650700092315674,0.558364748954773,-0.24356985092163086
0.8554961681365967,-0.08090003579854965,0.6990516185760498,-0.5167533159255981,0.5403140187263489,-0.2177102416753769
0.6986140608787537,-0.19344238936901093,0.4573272168636322,-0.5432535409927368,0.5305564403533936,-0.1964857578277588
0.5224215388298035,-0.2553517520427704,0.22802972793579102,-0.5716837048530579,0.5185214877128601,-0.15958474576473236
0.34094154834747314,-0.33649519085884094,-0.02082384191453457,-0.586952805519104,0.5205448269844055,-0.12873400747776031
0.18528299033641815,-0.4197714328765869,-0.3957979679107666,-0.6131048202514648,0.5265478491783142,-0.12020041048526764
0.0806671604514122,-0.5795195698738098,-0.8998235464096069,-0.6389508247375488,0.5539025068283081,-0.11560129374265671
0.1655406355857849,-0.6950898766517639,-1.3616340160369873,-0.6038779616355896,0.5673888921737671,-0.14226007461547852
0.2642200291156769,-0.6990673542022705,-1.7513755559921265,-0.5241649150848389,0.5720268487930298,-0.1315300464630127
0.17379130423069,-0.6465259790420532,-2.1586263179779053,-0.45118796825408936,0.6066368222236633,-0.060686223208904266
-0.04975864291191101,-0.5022574663162231,-2.6071226596832275,-0.38255763053894043,0.6202391386032104,-0.000542759895324707
-0.23375976085662842,-0.4345860779285431,-3.0074515342712402,-0.27102917432785034,0.6215978860855103,0.004211781546473503
-0.29298293590545654,-0.5769072771072388,-3.300476312637329,-0.11043411493301392,0.6159711480140686,-0.0567317008972168
-0.41232985258102417,-0.8441181182861328,-3.515861749649048,0.039467811584472656,0.5941002368927002,-0.07770752906799316
-0.6473730802536011,-1.103659749031067,-3.539513349533081,0.16784697771072388,0.522423267364502,-0.04660689830780029
-0.9825277924537659,-1.342956304550171,-3.429276466369629,0.2643709182739258,0.3993760943412781,-0.0037932395935058594
-1.317718744277954,-1.6143414974212646,-3.297625780105591,0.346790611743927,0.305886447429657,0.027129534631967545
-1.6593005657196045,-1.8569635152816772,-3.0621399879455566,0.44642746448516846,0.21901437640190125,0.04268694669008255
-2.1316733360290527,-1.9439729452133179,-2.6619186401367188,0.5045550465583801,0.0662689208984375,0.06667304784059525
-2.49003529548645,-1.8753634691238403,-2.104300022125244,0.5679419040679932,-0.07393556833267212,0.048773765563964844
-2.3729019165039062,-1.782501220703125,-1.5299543142318726,0.6670188307762146,-0.10726124048233032,-0.07889746874570847
-1.9322340488433838,-1.5437804460525513,-1.0321323871612549,0.7245844602584839,-0.10225921869277954,-0.1911908984184265
-1.4765095710754395,-1.2499715089797974,-0.5644333362579346,0.6903021931648254,-0.11330074071884155,-0.22063110768795013
-1.1802266836166382,-1.1476606130599976,-0.17169058322906494,0.6106613874435425,-0.11947011947631836,-0.18362796306610107
-1.142384648323059,-1.1308999061584473,0.06685927510261536,0.46780896186828613,-0.12887108325958252,-0.09613382071256638
-1.2680234909057617,-1.1315970420837402,0.1317611038684845,0.2932790517807007,-0.1456887125968933,-0.013535276055335999
-1.3320857286453247,-1.1286159753799438,0.11990106105804443,0.1459915041923523,-0.16887390613555908,-0.002234816551208496
-1.2757130861282349,-1.090584397315979,0.09716938436031342,0.040528297424316406,-0.19482964277267456,-0.027419015765190125
-1.1726597547531128,-1.0225719213485718,0.08325543254613876,-0.0035329461097717285,-0.20981842279434204,-0.042445480823516846
-1.2402963638305664,-0.8932986259460449,0.03609359264373779,-0.05412167310714722,-0.22061961889266968,0.005005545914173126
-1.4362809658050537,-0.7520060539245605,-0.01956002600491047,-0.07301920652389526,-0.21702533960342407,0.05193425714969635
-1.611101508140564,-0.5952649712562561,-0.12138792127370834,-0.056456148624420166,-0.19961553812026978,0.058998048305511475
-1.6756210327148438,-0.48993703722953796,-0.25980252027511597,-0.028533756732940674,-0.18865996599197388,0.002917639911174774
-1.6401934623718262,-0.5244060754776001,-0.30750772356987,0.019808053970336914,-0.19559943675994873,-0.06867056339979172
-1.6154975891113281,-0.6542403697967529,-0.24528275430202484,0.07773864269256592,-0.21215778589248657,-0.11778395622968674
-1.6165826320648193,-0.8524078130722046,-0.12851180136203766,0.1400766372680664,-0.23466449975967407,-0.1407298445701599
-1.6850441694259644,-0.9598844647407532,-0.026464611291885376,0.153936505317688,-0.2410253882408142,-0.10788410902023315
-1.6429287195205688,-1.093802571296692,0.13453194499015808,0.2029929757118225,-0.23349809646606445,-0.09276700019836426
-1.578911304473877,-1.2360928058624268,0.2933468222618103,0.22735339403152466,-0.2505972981452942,-0.0906754732131958
-1.5687729120254517,-1.3611292839050293,0.3705405294895172,0.21774011850357056,-0.223990797996521,-0.05449938774108887
-1.5424948930740356,-1.4568599462509155,0.46722033619880676,0.20843958854675293,-0.2200770378112793,-0.03622996807098389
-1.3411986827850342,-1.4292516708374023,0.545653760433197,0.21656900644302368,-0.18621671199798584,-0.04464906454086304
-0.973020076751709,-1.2814265489578247,0.5634050965309143,0.21700865030288696,-0.15445232391357422,-0.06566101312637329
-0.6020093560218811,-0.9867806434631348,0.5422723293304443,0.19106656312942505,-0.130759596824646,-0.037161409854888916
-0.2925291955471039,-0.6802889704704285,0.5416584610939026,0.19932329654693604,-0.12195354700088501,0.00522715225815773
-0.03978000208735466,-0.4414704442024231,0.5468351244926453,0.205380380153656,-0.11670774221420288,0.03371887654066086
0.10393673926591873,-0.30458495020866394,0.5744703412055969,0.21983176469802856,-0.10647451877593994,0.07347137480974197
0.14863227307796478,-0.236912339925766,0.6038579344749451,0.2493065595626831,-0.07014864683151245,0.09919589757919312
0.19347408413887024,-0.2538413405418396,0.5038380026817322,0.28355228900909424,0.01927316188812256,0.12240653485059738
0.20100151002407074,-0.28628718852996826,0.4477667212486267,0.2815238833427429,0.005966007709503174,0.1361103057861328
0.08291608840227127,-0.2840997278690338,0.579676628112793,0.2716377377510071,-0.06641519069671631,0.17716896533966064
-0.1113852933049202,-0.2943701148033142,0.8148367404937744,0.2843928337097168,-0.113217294216156,0.19887292385101318
-0.22210608422756195,-0.2939754128456116,0.9876468777656555,0.2384575605392456,-0.0910155177116394,0.18714386224746704
-0.2063465714454651,-0.24158091843128204,1.113905429840088,0.20219236612319946,-0.05963146686553955,0.1471395492553711
-0.07028288394212723,-0.1847439706325531,1.1117119789123535,0.15681427717208862,-0.008477449417114258,0.09955370426177979
0.14992490410804749,-0.05915990471839905,1.0915130376815796,0.10787045955657959,0.010836780071258545,0.06296664476394653
0.3727189898490906,0.13165390491485596,1.1326230764389038,0.08843749761581421,0.020751267671585083,0.07243764400482178
0.49121326208114624,0.33294230699539185,1.2340648174285889,0.09115588665008545,0.03270620107650757,0.09694863855838776
0.464616596698761,0.5270056128501892,1.3332622051239014,0.08550417423248291,0.07842117547988892,0.13962697982788086
0.45079711079597473,0.7071294784545898,1.345471978187561,0.059884727001190186,0.13872241973876953,0.13000982999801636
0.5337098240852356,0.881386935710907,1.2502282857894897,0.02729666233062744,0.2152339220046997,0.08125418424606323
0.7161298394203186,1.1098393201828003,1.071409821510315,-0.023713767528533936,0.28420907258987427,0.017836086452007294
0.9746474027633667,1.259033203125,0.8569740056991577,-0.0639963150024414,0.3219074308872223,-0.040163930505514145
1.2131186723709106,1.2890255451202393,0.6961461305618286,-0.0861782431602478,0.3065296709537506,-0.06490826606750488
1.2420477867126465,1.291283369064331,0.6056597828865051,-0.10116791725158691,0.2666515111923218,-0.015369296073913574
1.0568658113479614,1.1885555982589722,0.5748778581619263,-0.11825895309448242,0.22209736704826355,0.05763208866119385
0.7268828749656677,1.0517420768737793,0.543667733669281,-0.12128466367721558,0.20341074466705322,0.09750354290008545
0.35367491841316223,0.8717862963676453,0.543886661529541,-0.13660335540771484,0.19413608312606812,0.12357783317565918
0.00781207624822855,0.6390931010246277,0.5616788864135742,-0.13604646921157837,0.21119534969329834,0.09883320331573486
-0.29923713207244873,0.35184386372566223,0.5547987818717957,-0.155423104763031,0.23294773697853088,0.05930137261748314
-0.555468738079071,0.061611685901880264,0.5071873068809509,-0.18536591529846191,0.25202107429504395,0.027031786739826202
-0.7520239949226379,-0.18209831416606903,0.47345295548439026,-0.2079153060913086,0.2718484103679657,0.004274241626262665
-0.8838555812835693,-0.2960529923439026,0.4363875091075897,-0.22130006551742554,0.2824978828430176,0.0010080263018608093
-0.9814988374710083,-0.360929936170578,0.3259982168674469,-0.2535629868507385,0.29463839530944824,-0.007997162640094757
-1.006920576095581,-0.3807263970375061,0.1817721426486969,-0.3002849817276001,0.299902081489563,-0.02434324473142624
-0.9957662224769592,-0.35136690735816956,0.07687687873840332,-0.3130075931549072,0.2947142720222473,-0.039576295763254166
-0.9830109477043152,-0.313485711812973,0.01371223758906126,-0.31323421001434326,0.284790575504303,-0.04496002197265625
-1.0078104734420776,-0.2867339849472046,-0.03400496020913124,-0.3092718720436096,0.28372740745544434,-0.04152809828519821
-1.0477750301361084,-0.30512845516204834,-0.16699936985969543,-0.3327828645706177,0.28192806243896484,-0.03343582898378372
-1.0836963653564453,-0.36184045672416687,-0.3764219582080841,-0.354698121547699,0.30392229557037354,-0.03575993329286575
-1.0866787433624268,-0.3740268349647522,-0.601823091506958,-0.3583958148956299,0.3154779374599457,-0.047448400408029556
-1.1003305912017822,-0.3167141377925873,-0.8610544800758362,-0.3440708518028259,0.3332267999649048,-0.04618190601468086
-1.072641134262085,-0.22957241535186768,-1.0541837215423584,-0.32114988565444946,0.3257579505443573,-0.06481074541807175
-1.0446069240570068,-0.15541867911815643,-1.2230043411254883,-0.2715482711791992,0.3121502101421356,-0.09062183648347855
-0.9914559125900269,-0.14897634088993073,-1.3720499277114868,-0.2198302149772644,0.3206377327442169,-0.12102210521697998
-0.9250220060348511,-0.24674764275550842,-1.5699278116226196,-0.16418057680130005,0.3251803517341614,-0.1398221254348755
-0.9702888131141663,-0.38428035378456116,-1.745808720588684,-0.11213445663452148,0.32352933287620544,-0.11651133745908737
-1.1808242797851562,-0.5345842838287354,-1.823634386062622,-0.03283512592315674,0.29730719327926636,-0.06873583793640137
-1.5213454961776733,-0.6101565957069397,-1.7687426805496216,0.051136016845703125,0.2776396572589874,-0.0423353910446167
-1.8588578701019287,-0.7074043154716492,-1.794370174407959,0.1448965072631836,0.3262452483177185,-0.05494547635316849
-2.0208988189697266,-0.833060622215271,-1.8911118507385254,0.15905636548995972,0.3302696645259857,-0.14780117571353912
-2.026740312576294,-0.9928281903266907,-1.9398695230484009,0.18508905172348022,0.25814908742904663,-0.24071848392486572
-1.95945405960083,-1.1847929954528809,-1.8750165700912476,0.18084585666656494,0.14780890941619873,-0.3121063709259033
-1.758383870124817,-1.3260406255722046,-1.631076455116272,0.20570427179336548,0.04517251253128052,-0.3606044054031372
-1.4616515636444092,-1.3141952753067017,-1.3489301204681396,0.2157576084136963,-0.030384480953216553,-0.3746356964111328
-1.1610486507415771,-1.1340317726135254,-1.200473427772522,0.18648803234100342,-0.04295194149017334,-0.3454861640930176
-0.8742738366127014,-0.8342224359512329,-1.2143112421035767,0.14844000339508057,-0.03387486934661865,-0.31547772884368896
-0.639593243598938,-0.513936460018158,-1.2093966007232666,0.1408442258834839,-0.054042041301727295,-0.29021966457366943
-0.546411395072937,-0.3632912337779999,-1.1072297096252441,0.17727309465408325,-0.0831560492515564,-0.2664757966995239
-0.6063392758369446,-0.43136289715766907,-0.9034620523452759,0.22632408142089844,-0.1210012435913086,-0.24303841590881348
-0.8025134205818176,-0.7018238306045532,-0.705786943435669,0.26181793212890625,-0.1481652855873108,-0.21427905559539795
-1.060970664024353,-1.078469157218933,-0.5524718165397644,0.24829769134521484,-0.18642181158065796,-0.19114792346954346
-1.3860468864440918,-1.448906421661377,-0.39132019877433777,0.22279667854309082,-0.22783493995666504,-0.158880352973938
-1.6972688436508179,-1.7626750469207764,-0.18760192394256592,0.1959148645401001,-0.2559202313423157,-0.1272066831588745
-1.9244986772537231,-2.0136783123016357,-0.022701984271407127,0.1825968623161316,-0.24804824590682983,-0.12320077419281006
-2.080883026123047,-2.244772434234619,0.10072202235460281,0.15857762098312378,-0.22207987308502197,-0.12405359745025635
-2.2439751625061035,-2.443030595779419,0.19746901094913483,0.13682174682617188,-0.19141024351119995,-0.10333503037691116
-2.3615047931671143,-2.5457589626312256,0.26497986912727356,0.09729349613189697,-0.17018669843673706,-0.08606100082397461
-2.3152434825897217,-2.551692485809326,0.2674602270126343,0.041017115116119385,-0.1471797227859497,-0.10345101356506348
-2.137289524078369,-2.417832612991333,0.20909909904003143,-0.005849301815032959,-0.1219891905784607,-0.11355710029602051
-1.878556489944458,-2.1997592449188232,0.12594202160835266,-0.04452335834503174,-0.1085081696510315,-0.10722661018371582
-1.648205280303955,-1.9290566444396973,0.03311960771679878,-0.08074069023132324,-0.11698240041732788,-0.07124435901641846
-1.3983101844787598,-1.6847602128982544,-0.07597871869802475,-0.07735657691955566,-0.1194162368774414,-0.05488443374633789
-1.1678438186645508,-1.444801688194275,-0.20059379935264587,-0.06906181573867798,-0.11919921636581421,-0.03277301788330078
-0.9562093019485474,-1.2896878719329834,-0.3001658320426941,-0.022146880626678467,-0.11775809526443481,-0.017876625061035156
-0.8305307626724243,-1.2291020154953003,-0.3591972291469574,0.03659224510192871,-0.13504338264465332,0.015726447105407715
-0.8638066649436951,-1.2422922849655151,-0.40477725863456726,0.08906620740890503,-0.1469731330871582,0.0734143853187561
-0.9561973214149475,-1.3031816482543945,-0.3966882824897766,0.14669305086135864,-0.16734719276428223,0.11203742027282715
-1.0404680967330933,-1.3435869216918945,-0.32661351561546326,0.19596564769744873,-0.19149327278137207,0.1213158369064331
-1.0506960153579712,-1.3496348857879639,-0.23204627633094788,0.22612512111663818,-0.20862460136413574,0.11871862411499023
-0.983443558216095,-1.3150229454040527,-0.13343627750873566,0.2539525032043457,-0.21639412641525269,0.10778814554214478
-0.895950973033905,-1.2692220211029053,-0.04043903201818466,0.27300405502319336,-0.22371184825897217,0.1043199896812439
-0.8419751524925232,-1.2066744565963745,0.04961330443620682,0.27909016609191895,-0.21963036060333252,0.12387073785066605
-0.795051097869873,-1.175498127937317,0.1187010332942009,0.293213427066803,-0.21398824453353882,0.12848037481307983
-0.7691110372543335,-1.1590338945388794,0.18231283128261566,0.2917606234550476,-0.20426416397094727,0.15630173683166504
-0.7623281478881836,-1.1204460859298706,0.2873891294002533,0.28761523962020874,-0.21401429176330566,0.1691412329673767
-0.7284216284751892,-1.0366995334625244,0.41972777247428894,0.30202579498291016,-0.19796615839004517,0.18339228630065918
-0.6708251237869263,-0.8960755467414856,0.4191465377807617,0.30840152502059937,-0.1266087293624878,0.19595158100128174
-0.5742879509925842,-0.7397885322570801,0.3164462447166443,0.30581390857696533,-0.07181799411773682,0.199637770652771
-0.4934084713459015,-0.6184663772583008,0.2487100213766098,0.3144381046295166,-0.07828360795974731,0.19965362548828125
-0.5201079845428467,-0.591330885887146,0.37712791562080383,0.35214102268218994,-0.14100974798202515,0.2101747989654541
-0.6273561120033264,-0.5992450714111328,0.6536471843719482,0.38300859928131104,-0.20224124193191528,0.22523200511932373
-0.6852190494537354,-0.6757749915122986,0.9508926272392273,0.39690208435058594,-0.2128353714942932,0.21135997772216797
-0.6686157584190369,-0.7367991805076599,1.131462812423706,0.3474528193473816,-0.18555313348770142,0.1992325782775879
-0.5789613723754883,-0.7160237431526184,1.2131134271621704,0.26341021060943604,-0.14566254615783691,0.19872170686721802
-0.4557638466358185,-0.5680397748947144,1.3196077346801758,0.19793009757995605,-0.14944815635681152,0.2051079273223877
-0.4158339500427246,-0.31186410784721375,1.455826997756958,0.15149855613708496,-0.1360785961151123,0.23878031969070435
-0.4431292414665222,-0.05682535097002983,1.5802626609802246,0.14448463916778564,-0.07501685619354248,0.23786461353302002
-0.5137054920196533,0.07930172234773636,1.6171058416366577,0.15042191743850708,0.03095632791519165,0.2073984146118164
-0.561444103717804,0.10742887854576111,1.5917143821716309,0.18089956045150757,0.14198338985443115,0.1437091827392578
-0.5779722332954407,0.03397506847977638,1.5729833841323853,0.20587867498397827,0.20608508586883545,0.07992244511842728
-0.5753213167190552,-0.07158336788415909,1.6143534183502197,0.21583575010299683,0.2298421859741211,0.0389711931347847
-0.5725081562995911,-0.11618782579898834,1.7528595924377441,0.2195400595664978,0.23683825135231018,0.02664172649383545
-0.6102531552314758,-0.08058880269527435,1.9034702777862549,0.1817418336868286,0.22828614711761475,0.03348696231842041
-0.681487500667572,-0.03832053020596504,2.018153190612793,0.10944294929504395,0.23697569966316223,0.05787396430969238
-0.6797574758529663,-0.012829550541937351,2.051896333694458,0.049904465675354004,0.2771419584751129,0.04558313637971878
-0.6037079691886902,0.07343219965696335,1.9644629955291748,-0.019919514656066895,0.31714266538619995,0.018378615379333496
-0.5199580788612366,0.172176793217659,1.8498094081878662,-0.06219625473022461,0.34760618209838867,-0.0017606019973754883
-0.5266790390014648,0.24966469407081604,1.7412819862365723,-0.1090230941772461,0.3544052243232727,0.012119058519601822
-0.5941289067268372,0.2911156117916107,1.6338638067245483,-0.15155160427093506,0.35045045614242554,0.029596570879220963
-0.6744731664657593,0.3331141471862793,1.495410442352295,-0.2136749029159546,0.3346559405326843,0.04966378211975098
-0.7187456488609314,0.3489494323730469,1.2858006954193115,-0.2576463222503662,0.3531297445297241,0.04471707344055176
-0.6677281856536865,0.32972410321235657,1.0658061504364014,-0.314328670501709,0.3467330038547516,0.011230885982513428
-0.6579901576042175,0.30577006936073303,0.8496732115745544,-0.34233856201171875,0.3493993580341339,0.005849361419677734
-0.7221227288246155,0.24097256362438202,0.6728885173797607,-0.3693605661392212,0.34436148405075073,0.015248537063598633
-0.8391404747962952,0.14182016253471375,0.5219114422798157,-0.3723011612892151,0.3501071333885193,0.018664954230189323
-0.9596815705299377,0.028347238898277283,0.34463995695114136,-0.3927549719810486,0.3587900698184967,0.015805719420313835
-1.049468755722046,-0.05769847333431244,0.1022004783153534,-0.41728347539901733,0.38403016328811646,0.009980794042348862
-1.0584526062011719,-0.11289442330598831,-0.25185641646385193,-0.4528757333755493,0.40790340304374695,-0.013717174530029297
-0.9620767831802368,-0.10708798468112946,-0.6087161302566528,-0.4782980680465698,0.4119148850440979,-0.058307528495788574
-0.8429304361343384,-0.060128942131996155,-0.9319129586219788,-0.45901942253112793,0.4137561619281769,-0.07971417903900146
-0.7275420427322388,-0.013340078294277191,-1.269557237625122,-0.4391133189201355,0.4271869361400604,-0.0951308012008667
-0.6112276911735535,0.06857529282569885,-1.6214470863342285,-0.4167935252189636,0.44690173864364624,-0.11702620983123779
-0.45558473467826843,0.16813413798809052,-1.9051339626312256,-0.3556186556816101,0.465795636177063,-0.14446210861206055
-0.18999670445919037,0.27655524015426636,-2.05649471282959,-0.2644723653793335,0.43882569670677185,-0.19481432437896729
0.07379695773124695,0.3390035927295685,-2.1330437660217285,-0.16095441579818726,0.44509410858154297,-0.19298887252807617
0.1656142622232437,0.3396705985069275,-2.324779748916626,-0.05818122625350952,0.507776141166687,-0.12893080711364746
0.03451857715845108,0.3069958984851837,-2.5753173828125,-0.015613317489624023,0.5049096345901489,-0.06474720686674118
-0.19649939239025116,0.1825229376554489,-2.6432271003723145,0.05444556474685669,0.42172351479530334,-0.04353261739015579
-0.44920986890792847,-0.11402139812707901,-2.549351453781128,0.14869791269302368,0.33525580167770386,-0.07460953295230865
-0.656457781791687,-0.5102607607841492,-2.4246320724487305,0.18100345134735107,0.23788559436798096,-0.11568128317594528
-0.8027933835983276,-0.8907325863838196,-2.2622015476226807,0.16634929180145264,0.11303681135177612,-0.13367938995361328
-0.9643563628196716,-1.1458930969238281,-2.0731618404388428,0.14625310897827148,0.01851862668991089,-0.11250615119934082
-1.1095153093338013,-1.3104296922683716,-1.8449735641479492,0.1844150424003601,0.0021538734436035156,-0.09117448329925537
-1.2656306028366089,-1.413549542427063,-1.644619107246399,0.24418962001800537,0.035086750984191895,-0.07105231285095215
-1.4720101356506348,-1.4963340759277344,-1.511305570602417,0.28504693508148193,0.07581168413162231,-0.058985233306884766
-1.6998976469039917,-1.5809171199798584,-1.4243254661560059,0.290014386177063,0.06253302097320557,-0.05916905403137207
-1.8741490840911865,-1.6860405206680298,-1.3020426034927368,0.2726987600326538,0.005796313285827637,-0.08876633644104004
-1.9903264045715332,-1.7983675003051758,-1.082805871963501,0.2611926794052124,-0.07882559299468994,-0.1278383731842041
-2.053607225418091,-1.8859412670135498,-0.8327038884162903,0.24229395389556885,-0.14533299207687378,-0.1574094295501709
-2.057861566543579,-1.9273041486740112,-0.65982985496521,0.21167999505996704,-0.16460180282592773,-0.1743314266204834
-2.0085716247558594,-1.915716290473938,-0.635235071182251,0.15441399812698364,-0.170748770236969,-0.1849132776260376
-1.919131875038147,-1.804771065711975,-0.6354303956031799,0.11041510105133057,-0.17266130447387695,-0.1815115213394165
-1.7737674713134766,-1.6873462200164795,-0.5623089671134949,0.12665045261383057,-0.19409126043319702,-0.18300879001617432
-1.8229076862335205,-1.6067759990692139,-0.48237302899360657,0.16089189052581787,-0.1956658959388733,-0.1476525068283081
-1.9724276065826416,-1.6814507246017456,-0.3956995904445648,0.17962616682052612,-0.19454342126846313,-0.11957895755767822
-2.0837953090667725,-1.8621829748153687,-0.3214758634567261,0.18190997838974,-0.21445679664611816,-0.13818323612213135
-2.1877377033233643,-2.0642333030700684,-0.2804039418697357,0.1566683053970337,-0.24092572927474976,-0.1464475393295288
-2.228586435317993,-2.163491725921631,-0.26348450779914856,0.12647652626037598,-0.24121451377868652,-0.1592017561197281
-2.085664749145508,-2.151041030883789,-0.23986750841140747,0.10804253816604614,-0.2461833953857422,-0.20392060279846191
-1.7934582233428955,-2.0342893600463867,-0.19344821572303772,0.11823904514312744,-0.2520408630371094,-0.2353290319442749
-1.4924437999725342,-1.858971357345581,-0.16871750354766846,0.1320367455482483,-0.2565500736236572,-0.22684979438781738
-1.2636913061141968,-1.6426299810409546,-0.16566066443920135,0.13304150104522705,-0.2669413685798645,-0.17468130588531494
-1.0182430744171143,-1.3906630277633667,-0.16929520666599274,0.1530284881591797,-0.26394474506378174,-0.14387524127960205
-0.7411994338035583,-1.0815478563308716,-0.200129434466362,0.17983943223953247,-0.25491607189178467,-0.12547016143798828
-0.470515638589859,-0.7870197296142578,-0.2803370952606201,0.21540403366088867,-0.22073203325271606,-0.10296046733856201
-0.2624870538711548,-0.5682210922241211,-0.34363964200019836,0.2620636820793152,-0.19296813011169434,-0.06589794158935547
-0.15096132457256317,-0.49505671858787537,-0.37549450993537903,0.3253313899040222,-0.19241416454315186,-0.02939450740814209
-0.1352832168340683,-0.49794384837150574,-0.3089982569217682,0.3846138119697571,-0.21008741855621338,0.010552171617746353
-0.12460939586162567,-0.526348352432251,-0.12159818410873413,0.4760955572128296,-0.2156050205230713,0.021540403366088867
-0.0387396439909935,-0.5744401812553406,-0.019586334004998207,0.562256395816803,-0.14242815971374512,0.026128172874450684
0.06657397001981735,-0.5583415031433105,-0.02012244239449501,0.5759676098823547,-0.10998010635375977,0.04958999156951904
0.1045634001493454,-0.5081690549850464,0.15644533932209015,0.5684929490089417,-0.19040215015411377,0.0860663652420044
0.10154174268245697,-0.4391499161720276,0.5448430180549622,0.576304018497467,-0.2814689874649048,0.10566496849060059
0.17619657516479492,-0.35177889466285706,0.8815122246742249,0.5486118793487549,-0.2820754647254944,0.09396183490753174
0.2877565324306488,-0.14111974835395813,1.0200059413909912,0.43491119146347046,-0.23652887344360352,0.10118770599365234
0.45913809537887573,0.13489213585853577,1.0064740180969238,0.33919477462768555,-0.19047433137893677,0.1019371747970581
0.6868436932563782,0.4523722529411316,1.0093804597854614,0.27063655853271484,-0.18461376428604126,0.07072031497955322
0.9053690433502197,0.8309027552604675,1.1388821601867676,0.2356632947921753,-0.20870351791381836,0.040108442306518555
1.1053028106689453,1.265134334564209,1.2895472049713135,0.2242870330810547,-0.16970789432525635,0.01363992877304554
1.3993932008743286,1.700291633605957,1.3028016090393066,0.22136813402175903,-0.0490688681602478,-0.03813821077346802
1.7143093347549438,2.010664701461792,1.2859954833984375,0.23510205745697021,0.05342894792556763,-0.09569060802459717
1.6896531581878662,2.138406276702881,1.332235336303711,0.2752591371536255,0.10334104299545288,-0.05597424507141113
1.3533324003219604,1.9829245805740356,1.5144212245941162,0.3087484836578369,0.10045409202575684,-0.008821606636047363
0.8474141955375671,1.5978001356124878,1.7700083255767822,0.32342255115509033,0.08829271793365479,-0.007007956504821777
0.3472987711429596,1.113718032836914,2.0224854946136475,0.2763370871543884,0.08637219667434692,-0.050299763679504395
0.0074891806580126286,0.6734931468963623,2.211348295211792,0.21564310789108276,0.13202017545700073,-0.11537324637174606
-0.11898847669363022,0.36082369089126587,2.322282075881958,0.137062668800354,0.19159278273582458,-0.19068098068237305
-0.12841005623340607,0.2107272893190384,2.3539276123046875,0.04932045936584473,0.26668572425842285,-0.23010694980621338
-0.02255760319530964,0.16247431933879852,2.330947160720825,-0.04075711965560913,0.32175198197364807,-0.26569652557373047
0.1452687382698059,0.19168125092983246,2.262136936187744,-0.11438232660293579,0.3690498173236847,-0.28273630142211914
0.30518484115600586,0.31411322951316833,2.1472628116607666,-0.18277508020401,0.4061504006385803,-0.2789090871810913
0.42826932668685913,0.5062965154647827,2.0086116790771484,-0.24457627534866333,0.4267864525318146,-0.25751757621765137
0.5388887524604797,0.661444902420044,1.81558096408844,-0.30312633514404297,0.4293266534805298,-0.24426208436489105
0.6644413471221924,0.7244541049003601,1.5457990169525146,-0.37019211053848267,0.43525147438049316,-0.24873878061771393
0.8075564503669739,0.7093590497970581,1.2401999235153198,-0.41954684257507324,0.4133925437927246,-0.2468622922897339
0.8733085989952087,0.6588804721832275,0.9233340620994568,-0.46845734119415283,0.37999171018600464,-0.21514809131622314
0.9136558175086975,0.5526938438415527,0.6726003885269165,-0.47384053468704224,0.3496887683868408,-0.1879887580871582
0.9065418839454651,0.42299729585647583,0.4444772005081177,-0.47196531295776367,0.3220323324203491,-0.16254089772701263
0.8539526462554932,0.2790803909301758,0.20698775351047516,-0.4652588367462158,0.32773107290267944,-0.12210536003112793
0.7554124593734741,0.1582416445016861,-0.055750325322151184,-0.4609328508377075,0.3406372666358948,-0.0891791433095932
0.6240362524986267,0.03173842281103134,-0.3128349184989929,-0.4454200267791748,0.354478657245636,-0.06427563726902008
0.41495588421821594,-0.0715954527258873,-0.5583950877189636,-0.42273133993148804,0.3661544919013977,-0.033834829926490784
0.1735282838344574,-0.1713603287935257,-0.752751350402832,-0.37698936462402344,0.3793008029460907,-0.023271217942237854
0.0031142262741923332,-0.2694457769393921,-0.9287827610969543,-0.3291722536087036,0.39388972520828247,-0.04524622857570648
-0.010174795985221863,-0.31889936327934265,-1.1528968811035156,-0.30693525075912476,0.4178937077522278,-0.09237980842590332
0.04528113454580307,-0.30429723858833313,-1.4169083833694458,-0.272045373916626,0.4568040072917938,-0.12626470625400543
0.15279828011989594,-0.2470739483833313,-1.80256187915802,-0.1958659291267395,0.5516564249992371,-0.1230095773935318
0.3053126335144043,-0.1835007667541504,-2.2676198482513428,-0.14168602228164673,0.5919218063354492,-0.11635888367891312
0.4787084758281708,-0.17196807265281677,-2.483877182006836,-0.07517147064208984,0.4745596647262573,-0.109366774559021
0.5159305334091187,-0.2594400942325592,-2.4277455806732178,0.03821653127670288,0.3265224099159241,-0.07035708427429199
0.4979114830493927,-0.4551054835319519,-2.2568602561950684,0.12974661588668823,0.2137330174446106,-0.0022111982107162476
0.2149488478899002,-0.52737957239151,-2.0267465114593506,0.15067517757415771,0.09734669327735901,0.13541579246520996
-0.28863394260406494,-0.5381845235824585,-1.7108914852142334,0.14845162630081177,-0.03134047985076904,0.25853610038757324
-0.7750310301780701,-0.584610641002655,-1.3793052434921265,0.16299015283584595,-0.10102999210357666,0.26703977584838867
-1.059260606765747,-0.6809086799621582,-1.1767446994781494,0.18937921524047852,-0.057723820209503174,0.16373097896575928
-1.2000823020935059,-0.7822348475456238,-1.141980528831482,0.20131778717041016,0.027673840522766113,0.044097900390625
-1.1984140872955322,-0.9315639138221741,-1.1529279947280884,0.2404041290283203,0.0892900824546814,-0.06026197224855423
-1.0877264738082886,-1.1435296535491943,-1.1236406564712524,0.28731465339660645,0.07752853631973267,-0.14171254634857178
-1.0568089485168457,-1.241188883781433,-1.0461061000823975,0.27673137187957764,0.0037164688110351562,-0.12746751308441162
-1.0598512887954712,-1.213097095489502,-0.8947365880012512,0.24881070852279663,-0.08879995346069336,-0.08815287798643112
-1.0466692447662354,-1.0494449138641357,-0.7303629517555237,0.20548170804977417,-0.1555161476135254,-0.056007515639066696
-0.9220383763313293,-0.8500634431838989,-0.6089271903038025,0.15708833932876587,-0.19089460372924805,-0.05905258655548096
-0.7827761769294739,-0.6658838391304016,-0.5848079919815063,0.11286270618438721,-0.20218342542648315,-0.06769561767578125
-0.6401323080062866,-0.5339452028274536,-0.6072418093681335,0.07954400777816772,-0.20787358283996582,-0.07538462430238724
-0.5415111780166626,-0.44791844487190247,-0.6198612451553345,0.07793521881103516,-0.21923619508743286,-0.07866477966308594
-0.4970575273036957,-0.379970908164978,-0.6216493248939514,0.09496104717254639,-0.23654085397720337,-0.05981827527284622
-0.48381122946739197,-0.37665265798568726,-0.6063799262046814,0.1326708197593689,-0.2471972107887268,-0.05041492357850075
-0.48595988750457764,-0.38867780566215515,-0.5791856646537781,0.15775680541992188,-0.265838623046875,-0.04042767733335495
-0.47830045223236084,-0.43124353885650635,-0.5255025625228882,0.19296032190322876,-0.2851024866104126,-0.04644394293427467
-0.43128952383995056,-0.43058255314826965,-0.46885955333709717,0.21101903915405273,-0.2970240116119385,-0.055123209953308105
-0.3253454267978668,-0.3701469898223877,-0.38463926315307617,0.2369365692138672,-0.30571258068084717,-0.06508970260620117
-0.17322824895381927,-0.2684100270271301,-0.3230465352535248,0.2542792558670044,-0.31167131662368774,-0.060527198016643524
0.03778139874339104,-0.089260034263134,-0.2641215920448303,0.2582116723060608,-0.32552969455718994,-0.060991883277893066
0.258393794298172,0.13682159781455994,-0.20669564604759216,0.2677189111709595,-0.32429438829421997,-0.04314839839935303
0.4766677916049957,0.349018394947052,-0.1079784631729126,0.30217498540878296,-0.32618916034698486,-0.02970147877931595
0.6138473749160767,0.4987386167049408,0.0013193455524742603,0.33945101499557495,-0.3167790174484253,-0.004659056663513184
0.688930332660675,0.5759106874465942,0.14432649314403534,0.38423413038253784,-0.3032270669937134,0.019388791173696518
0.7034968733787537,0.6138511300086975,0.2833106815814972,0.41764044761657715,-0.2862381339073181,0.038226597011089325
0.7003765106201172,0.6626522541046143,0.4281100928783417,0.44917452335357666,-0.24446040391921997,0.03181672468781471
0.7361901998519897,0.723180890083313,0.5551853775978088,0.5092447996139526,-0.14928746223449707,0.0009953975677490234
0.8471296429634094,0.7967175245285034,0.6271685361862183,0.5651465654373169,-0.04433637857437134,-0.04363048076629639
0.9345766305923462,0.8525276184082031,0.7143588662147522,0.5519338250160217,-0.04105478525161743,-0.05508268252015114
0.8948780298233032,0.8448563814163208,0.9778409600257874,0.4987417459487915,-0.15843576192855835,-0.03639746457338333
0.7688111066818237,0.7971336841583252,1.3401618003845215,0.43577468395233154,-0.23817986249923706,-0.031442757695913315
0.7380355596542358,0.7670688033103943,1.5833606719970703,0.3682318925857544,-0.1892615556716919,-0.07387102395296097
0.8203651309013367,0.7402379512786865,1.6296418905258179,0.27945858240127563,-0.0767173171043396,-0.1427828073501587
0.9147379994392395,0.715197741985321,1.6090248823165894,0.19634050130844116,-0.028999507427215576,-0.18155956268310547
0.994564414024353,0.6997849345207214,1.6373164653778076,0.14081180095672607,-0.03025108575820923,-0.19766628742218018
1.0452735424041748,0.760093092918396,1.7255256175994873,0.10273110866546631,-0.020521998405456543,-0.20331549644470215
1.0827300548553467,0.9283736944198608,1.8017371892929077,0.07380598783493042,0.03027474880218506,-0.20560801029205322
1.1423556804656982,1.1714891195297241,1.8116610050201416,0.0531579852104187,0.12871778011322021,-0.22221660614013672
1.2451153993606567,1.4458489418029785,1.6720104217529297,0.013946771621704102,0.22037813067436218,-0.2571042776107788
1.38332200050354,1.716930866241455,1.4424409866333008,-0.029633164405822754,0.27079200744628906,-0.2971181869506836
1.4718923568725586,1.9175454378128052,1.3180500268936157,-0.02366691827774048,0.2631780207157135,-0.32897520065307617
1.4023746252059937,1.9550200700759888,1.3181531429290771,0.021258115768432617,0.22138527035713196,-0.33254674077033997
1.2572753429412842,1.8176164627075195,1.3483388423919678,0.053416311740875244,0.2015312910079956,-0.3433574438095093
1.0599111318588257,1.5128602981567383,1.39247465133667,0.0652008056640625,0.18536508083343506,-0.37405645847320557
0.8499941229820251,1.1356384754180908,1.4694523811340332,0.05937272310256958,0.17937064170837402,-0.4002898037433624
0.708538293838501,0.8043842315673828,1.547595500946045,0.03523850440979004,0.18896493315696716,-0.42233726382255554
0.7169855833053589,0.5692322850227356,1.5859431028366089,-0.023440301418304443,0.20416802167892456,-0.44887208938598633
0.8454879522323608,0.4832841157913208,1.5679867267608643,-0.08955419063568115,0.2309838831424713,-0.468768835067749
1.022177815437317,0.4825827181339264,1.4934200048446655,-0.14648252725601196,0.2697523832321167,-0.4711883068084717
1.1647014617919922,0.49483349919319153,1.4059544801712036,-0.175828754901886,0.30390554666519165,-0.4559732675552368
1.2525312900543213,0.4750657379627228,1.2855052947998047,-0.19283682107925415,0.3293805718421936,-0.4233849048614502
1.321353793144226,0.4244442582130432,1.0811643600463867,-0.22551065683364868,0.3525840640068054,-0.40139350295066833
1.4166364669799805,0.3510459363460541,0.8333749771118164,-0.25544464588165283,0.36335545778274536,-0.38759201765060425
1.543457269668579,0.27374523878097534,0.5920858383178711,-0.27735596895217896,0.36073219776153564,-0.3723314106464386
1.6725152730941772,0.26212379336357117,0.38152799010276794,-0.2861716151237488,0.341291606426239,-0.3548631966114044
1.754448652267456,0.28139373660087585,0.22595930099487305,-0.28653204441070557,0.3209342956542969,-0.3053213357925415
1.7912262678146362,0.35457709431648254,0.09408149123191833,-0.2983950972557068,0.2858567237854004,-0.24830569326877594
1.7608222961425781,0.42644360661506653,-0.025556620210409164,-0.29084330797195435,0.2586311101913452,-0.18868696689605713
1.6589332818984985,0.41465091705322266,-0.14753784239292145,-0.26805388927459717,0.2694576680660248,-0.1434950828552246
1.541073203086853,0.26340410113334656,-0.2671581208705902,-0.23338693380355835,0.2843552827835083,-0.1291164606809616
1.360891342163086,0.07690468430519104,-0.41100364923477173,-0.20992040634155273,0.29739174246788025,-0.09895893931388855
1.150957465171814,-0.14562617242336273,-0.5820412635803223,-0.1911172866821289,0.3065430521965027,-0.059473514556884766
0.998134195804596,-0.33534562587738037,-0.7618074417114258,-0.15870529413223267,0.3145650029182434,-0.037762656807899475
0.8497213125228882,-0.3908705413341522,-0.9489880800247192,-0.1182507872581482,0.35741984844207764,-0.005751177668571472
0.7846471071243286,-0.4052107036113739,-1.186505913734436,-0.04222822189331055,0.440851092338562,0.009032130241394043
0.9148526191711426,-0.42719778418540955,-1.4242955446243286,-0.04500073194503784,0.40690886974334717,-0.010245218873023987
1.0504366159439087,-0.49838754534721375,-1.5661803483963013,-0.04246753454208374,0.2852688133716583,-0.0038756877183914185
1.0544142723083496,-0.5933498740196228,-1.5751608610153198,-0.054213523864746094,0.15383249521255493,0.06880210340023041
0.9867375493049622,-0.5993559956550598,-1.4622255563735962,-0.02566516399383545,0.08399131894111633,0.13510762155056
0.9681438207626343,-0.4233720004558563,-1.4298135042190552,-0.04613018035888672,0.04263982176780701,0.18406319618225098
1.0191922187805176,-0.11612100899219513,-1.4920830726623535,-0.08002501726150513,0.0549948513507843,0.19780683517456055
1.0918055772781372,0.2145645171403885,-1.4802316427230835,-0.0796460509300232,0.03750348091125488,0.18533432483673096
1.0543607473373413,0.49311694502830505,-1.381484031677246,-0.014111161231994629,0.028663575649261475,0.172941192984581
0.9137803912162781,0.6429556012153625,-1.327759027481079,0.03762400150299072,0.06821680068969727,0.14818859100341797
0.9464603662490845,0.6232170462608337,-1.3365180492401123,0.1018669605255127,0.1314464807510376,0.05831027030944824
1.1152045726776123,0.5290537476539612,-1.333269715309143,0.15188807249069214,0.16454154253005981,-0.024172082543373108
1.2001829147338867,0.4329198896884918,-1.3095613718032837,0.15369278192520142,0.13761496543884277,-0.012938745319843292
1.101500153541565,0.3681277632713318,-1.2389415502548218,0.1319819688796997,0.06432831287384033,0.05573070049285889
0.9109641313552856,0.2714962363243103,-1.1255005598068237,0.11135399341583252,-0.007753431797027588,0.10589897632598877
0.7242918014526367,0.13737955689430237,-1.0372693538665771,0.10434490442276001,-0.040487825870513916,0.11262393742799759
0.623327374458313,0.011613012291491032,-1.036037564277649,0.0869397521018982,-0.04105031490325928,0.09470152854919434
0.602907121181488,-0.019538473337888718,-1.102184772491455,0.08139348030090332,-0.035140156745910645,0.07816672325134277
0.6587237119674683,0.04067886620759964,-1.1438158750534058,0.12001216411590576,-0.030110478401184082,0.05792498216032982
0.7501488924026489,0.17222310602664948,-1.1636943817138672,0.16370809078216553,-0.05734848976135254,0.05024456977844238
0.8407394289970398,0.331194669008255,-1.134178876876831,0.1936420202255249,-0.10311686992645264,0.0484619140625
0.9296829104423523,0.45828571915626526,-1.0993084907531738,0.21787071228027344,-0.1591150164604187,0.04953479766845703
1.0358943939208984,0.5471912026405334,-1.047611117362976,0.24262750148773193,-0.20184093713760376,0.043784379959106445
1.1417733430862427,0.5854657292366028,-0.9496978521347046,0.2861371636390686,-0.25554347038269043,0.048413991928100586
1.1201095581054688,0.6028274297714233,-0.8434385061264038,0.2994228005409241,-0.3076465129852295,0.10259205102920532
1.0417742729187012,0.600482702255249,-0.7235186696052551,0.3098525404930115,-0.33075737953186035,0.15892595052719116
0.9524533152580261,0.6005749106407166,-0.5469542741775513,0.3536378741264343,-0.341778039932251,0.1873113512992859
0.8263930082321167,0.6030683517456055,-0.32743099331855774,0.3863837718963623,-0.36299824714660645,0.21186566352844238
0.6586306691169739,0.5949302315711975,-0.15357084572315216,0.39141935110092163,-0.36209702491760254,0.23435258865356445
0.5367507934570312,0.6074852347373962,1.1055264621973038e-05,0.3914397954940796,-0.3453373312950134,0.2244640588760376
0.4919959604740143,0.647922158241272,0.13376007974147797,0.39518725872039795,-0.3221433758735657,0.1902204155921936
0.5142332911491394,0.7222387790679932,0.24973461031913757,0.39669907093048096,-0.3012436628341675,0.15577590465545654
0.5582363605499268,0.8073926568031311,0.33222493529319763,0.3899994492530823,-0.2882813811302185,0.13300073146820068
0.6195793747901917,0.9160888195037842,0.41084566712379456,0.377838134765625,-0.2806069850921631,0.11769622564315796
0.6346532702445984,1.0154292583465576,0.49516522884368896,0.3806968927383423,-0.26819223165512085,0.10825122147798538
0.549812912940979,1.055643916130066,0.6040687561035156,0.38565510511398315,-0.25554901361465454,0.1089787483215332
0.41485533118247986,1.0306414365768433,0.6443877220153809,0.40981823205947876,-0.18705987930297852,0.10007357597351074
0.38698893785476685,1.0365923643112183,0.6220477223396301,0.40557539463043213,-0.12282949686050415,0.06738602370023727
0.3570877015590668,1.073328971862793,0.6961134672164917,0.3842078447341919,-0.16048330068588257,0.03154158964753151
0.23264683783054352,1.0714342594146729,0.8884804844856262,0.3718806505203247,-0.22264337539672852,0.029948119074106216
0.0689101368188858,1.0342546701431274,1.1513785123825073,0.3567529320716858,-0.2634907364845276,0.007623910903930664
0.021534014493227005,1.0055265426635742,1.287710428237915,0.3311508297920227,-0.24609136581420898,-0.049916982650756836
0.1875431090593338,0.914361834526062,1.38522469997406,0.37734824419021606,-0.18862372636795044,-0.14103126525878906
0.18271498382091522,0.7006568312644958,1.6568886041641235,0.5462086796760559,-0.14811861515045166,-0.14945447444915771
-0.5187250375747681,0.4594578444957733,2.0640511512756348,0.6479198932647705,-0.14119958877563477,0.0020399093627929688
-1.387977957725525,0.008056849241256714,2.457278251647949,0.6374415159225464,-0.09427553415298462,0.028011083602905273
-1.8204094171524048,-0.511433482170105,2.8141703605651855,0.621391236782074,0.00017142295837402344,-0.16191911697387695
-1.6604809761047363,-0.8897190690040588,2.8772826194763184,0.48727327585220337,0.1353030800819397,-0.379486083984375
-0.9168870449066162,-0.9444695115089417,2.7486371994018555,0.31023621559143066,0.24893701076507568,-0.6015875339508057
0.07301118224859238,-0.573682427406311,2.6972923278808594,0.21701067686080933,0.27339470386505127,-0.7206039428710938
0.8916564583778381,-0.0011306756641715765,2.695103645324707,0.19019544124603271,0.29077818989753723,-0.7167435884475708
1.3967812061309814,0.5396575927734375,2.6432886123657227,0.1396806240081787,0.3165391981601715,-0.6581758260726929
1.6511131525039673,0.9262093901634216,2.5057270526885986,0.07491797208786011,0.33022192120552063,-0.6040562391281128
1.7658814191818237,1.0826703310012817,2.3083627223968506,0.004434466361999512,0.3409355580806732,-0.582919716835022
1.8403356075286865,0.9956651329994202,2.149132013320923,-0.04256099462509155,0.32863926887512207,-0.5955319404602051
1.837566614151001,0.7567182779312134,2.0452942848205566,-0.06963002681732178,0.31854820251464844,-0.5865699052810669
1.7735579013824463,0.4956764876842499,1.9877753257751465,-0.1012154221534729,0.3162495195865631,-0.5529769659042358
1.7308708429336548,0.3308088481426239,1.8715147972106934,-0.15113723278045654,0.3286849856376648,-0.522254467010498
1.7765575647354126,0.31815552711486816,1.6760894060134888,-0.2241755723953247,0.3513880968093872,-0.5118043422698975
1.8998843431472778,0.41484707593917847,1.4721227884292603,-0.27150702476501465,0.3608221113681793,-0.5181106328964233
2.0186898708343506,0.5264416933059692,1.3095682859420776,-0.291151762008667,0.36424633860588074,-0.5112626552581787
2.1117310523986816,0.6112940311431885,1.1823842525482178,-0.29120105504989624,0.3665117621421814,-0.5057774782180786
2.1414968967437744,0.629189133644104,1.0306659936904907,-0.3006893992424011,0.3801618814468384,-0.49392104148864746
2.151920795440674,0.6041436791419983,0.8048417568206787,-0.31957000494003296,0.3966183364391327,-0.48849642276763916
2.2105677127838135,0.5668229460716248,0.5526394248008728,-0.3384310007095337,0.415187269449234,-0.49474266171455383
2.32260799407959,0.5460624694824219,0.29716771841049194,-0.3404880166053772,0.424926221370697,-0.49704790115356445
2.4781410694122314,0.5708669424057007,0.06661605089902878,-0.33447861671447754,0.4240579903125763,-0.4827525317668915
2.6158361434936523,0.6480816006660461,-0.0874144658446312,-0.31956130266189575,0.41175469756126404,-0.44936078786849976
2.660770893096924,0.7079076170921326,-0.2161974012851715,-0.299190878868103,0.4006701409816742,-0.4025841951370239
2.593173027038574,0.7143428325653076,-0.4030570387840271,-0.31374818086624146,0.39825236797332764,-0.35024523735046387
2.4555675983428955,0.657085120677948,-0.6379323601722717,-0.3350337743759155,0.3943644165992737,-0.3015509843826294
2.452418327331543,0.5101785659790039,-0.934366762638092,-0.34344154596328735,0.38359010219573975,-0.29343798756599426
2.581960678100586,0.21741509437561035,-1.191949486732483,-0.3488636016845703,0.3386436104774475,-0.3117503821849823
2.689162254333496,-0.13141365349292755,-1.2412935495376587,-0.27606338262557983,0.2695414423942566,-0.26471614837646484
2.5583739280700684,-0.42945417761802673,-1.16489839553833,-0.19988244771957397,0.22829528152942657,-0.15020479261875153
2.1705758571624756,-0.5514597296714783,-1.1407907009124756,-0.14984989166259766,0.23552250862121582,-0.0054730623960494995
1.8344650268554688,-0.5245378613471985,-1.3365161418914795,-0.15151917934417725,0.28966057300567627,0.091509610414505
1.8135936260223389,-0.44813716411590576,-1.621692180633545,-0.1266082525253296,0.3213523328304291,0.06863312423229218
1.8382201194763184,-0.43024832010269165,-1.7999087572097778,-0.06299072504043579,0.30956968665122986,0.09525634348392487
1.655577540397644,-0.4521586298942566,-1.845728874206543,0.013511717319488525,0.29671210050582886,0.16892896592617035
1.27543306350708,-0.35132524371147156,-1.6208733320236206,0.11467081308364868,0.26938605308532715,0.2499619573354721
0.7515388131141663,-0.22754676640033722,-1.4097267389297485,0.12046074867248535,0.20656338334083557,0.350134015083313
0.42960596084594727,-0.24757379293441772,-1.3723363876342773,0.07606685161590576,0.23607462644577026,0.3342245817184448
0.27381956577301025,-0.4623912274837494,-1.432776689529419,0.024918437004089355,0.23462167382240295,0.2353830188512802
0.022481748834252357,-0.8181377053260803,-1.6023329496383667,-0.034988582134246826,0.23109400272369385,0.2001105546951294
-0.36030539870262146,-1.3010321855545044,-1.7682874202728271,-0.0354008674621582,0.21993613243103027,0.1959857940673828
-0.7090893387794495,-1.6132208108901978,-1.9157763719558716,-0.014264583587646484,0.2246357798576355,0.19598448276519775
-0.7361546754837036,-1.4424597024917603,-2.049795389175415,-0.0019012689590454102,0.21875613927841187,0.16426265239715576
-0.3606892228126526,-0.7772963643074036,-2.2479147911071777,0.010324180126190186,0.2140423059463501,0.10826456546783447
0.4020918905735016,0.15693256258964539,-2.4729220867156982,0.0602574348449707,0.20138639211654663,0.025220155715942383
1.2366470098495483,1.1127212047576904,-2.596985340118408,0.14962166547775269,0.16266179084777832,-0.02404046058654785
1.816867709159851,1.858731746673584,-2.5117461681365967,0.29413437843322754,0.09065514802932739,0.015189527533948421
1.988348364830017,2.22800874710083,-2.3041279315948486,0.40782177448272705,-0.004763901233673096,0.10921072959899902
1.9201453924179077,2.266403913497925,-2.052748918533325,0.49783480167388916,-0.07521224021911621,0.15126419067382812
1.754494547843933,2.139147996902466,-1.8163710832595825,0.5522593855857849,-0.13358044624328613,0.15295469760894775
1.625765085220337,2.0194919109344482,-1.5989388227462769,0.5723562836647034,-0.18453991413116455,0.12869024276733398
1.6093353033065796,1.9549092054367065,-1.3493459224700928,0.5816093683242798,-0.2478809356689453,0.09367811679840088
1.5748647451400757,1.9469568729400635,-1.0724347829818726,0.5950010418891907,-0.30738550424575806,0.07707393169403076
1.4681068658828735,1.986663818359375,-0.757240891456604,0.59244704246521,-0.349872350692749,0.0960962176322937
1.3377951383590698,2.021307945251465,-0.39630305767059326,0.5857678651809692,-0.39407384395599365,0.08624184131622314
1.216302514076233,2.0011744499206543,-0.07325709611177444,0.5504642724990845,-0.4103353023529053,0.05973893404006958
1.1252485513687134,1.8729679584503174,0.12763214111328125,0.5054517984390259,-0.3979923725128174,0.014983059838414192
1.073179006576538,1.7102363109588623,0.23762661218643188,0.4299865961074829,-0.3742544651031494,-0.0345650315284729
1.0650944709777832,1.5710710287094116,0.327014684677124,0.3838483691215515,-0.37439608573913574,-0.0706738829612732
1.0700023174285889,1.4776980876922607,0.4092833399772644,0.3457127809524536,-0.3715025782585144,-0.08349525183439255
1.0828449726104736,1.4648725986480713,0.49800795316696167,0.3291921019554138,-0.3644688129425049,-0.08825218677520752
1.0792776346206665,1.500562071800232,0.5931662917137146,0.3295533061027527,-0.3476454019546509,-0.09278243780136108
0.9536260962486267,1.6082581281661987,0.6522238254547119,0.3118966817855835,-0.32687318325042725,-0.09145045280456543
0.7106276154518127,1.6975477933883667,0.7805213332176208,0.3353239893913269,-0.26843738555908203,-0.1090039610862732
0.5196225643157959,1.681667685508728,0.9870006442070007,0.423239529132843,-0.15635818243026733,-0.20368605852127075
0.5057221055030823,1.5133825540542603,1.0774649381637573,0.46841293573379517,-0.05744069814682007,-0.3237951993942261
0.5571620464324951,1.2242029905319214,1.1442278623580933,0.44756829738616943,-0.04009121656417847,-0.40163755416870117
0.5169796943664551,0.9098042249679565,1.3030849695205688,0.4255496859550476,-0.0789339542388916,-0.3992545008659363
0.5092679858207703,0.5982764959335327,1.5173765420913696,0.40757060050964355,-0.10648918151855469,-0.385265588760376
0.5729063749313354,0.393574595451355,1.683084487915039,0.34804338216781616,-0.13073664903640747,-0.37137216329574585
0.6098255515098572,0.28570929169654846,1.8307886123657227,0.2929539680480957,-0.11016345024108887,-0.3166528344154358
0.5395328402519226,0.18255174160003662,1.8859668970108032,0.30366581678390503,-0.019073128700256348,-0.25195521116256714
0.4081907272338867,0.04383312538266182,1.7991251945495605,0.3030933141708374,0.06355279684066772,-0.21516501903533936
0.1757989376783371,-0.04248325899243355,1.8322207927703857,0.3413565754890442,0.09398609399795532,-0.19508224725723267
0.045448124408721924,-0.0116310715675354,2.0784826278686523,0.38279736042022705,0.08493751287460327,-0.22203916311264038
0.18137502670288086,0.13158690929412842,2.351675271987915,0.3914889097213745,0.10349887609481812,-0.30933284759521484
0.5663591027259827,0.3486177325248718,2.4197328090667725,0.3114963173866272,0.18259620666503906,-0.3986142873764038
1.0641273260116577,0.6051304936408997,2.36970853805542,0.2188185453414917,0.26046738028526306,-0.4475553035736084
1.4198997020721436,0.8378848433494568,2.3350040912628174,0.1484135389328003,0.30002012848854065,-0.4281279444694519
1.5214227437973022,0.9950510859489441,2.3569555282592773,0.09951204061508179,0.31247076392173767,-0.35450971126556396
1.4800704717636108,1.092930555343628,2.3696389198303223,0.027181386947631836,0.3276124596595764,-0.2906578779220581
1.4904906749725342,1.1214649677276611,2.321248769760132,-0.04682612419128418,0.3571840822696686,-0.2830387353897095
1.5873535871505737,1.0392743349075317,2.1953728199005127,-0.11926048994064331,0.39180001616477966,-0.30536770820617676
1.6143808364868164,0.9519025683403015,2.0087087154388428,-0.19434380531311035,0.40878596901893616,-0.2819012403488159
1.5078133344650269,0.89518141746521,1.7924227714538574,-0.26157045364379883,0.4089442491531372,-0.22563934326171875
1.357938528060913,0.8740881681442261,1.564646601676941,-0.3202390670776367,0.4036911725997925,-0.19496417045593262
1.301063060760498,0.8686550259590149,1.347396731376648,-0.3575267195701599,0.40469640493392944,-0.20315921306610107
1.298768401145935,0.8946157097816467,1.1002697944641113,-0.3874772787094116,0.4118451476097107,-0.23175764083862305
1.3178714513778687,0.9079465270042419,0.8439843058586121,-0.413343608379364,0.4229012727737427,-0.2367953062057495
1.3492916822433472,0.8831125497817993,0.5971390008926392,-0.42446696758270264,0.41978421807289124,-0.24708914756774902
1.3406459093093872,0.8272460699081421,0.347258597612381,-0.428962767124176,0.4227050244808197,-0.2328176498413086
1.3125196695327759,0.7623531222343445,0.17872968316078186,-0.4282633066177368,0.403215229511261,-0.2266225963830948
1.2185781002044678,0.6613242030143738,0.03461185470223427,-0.40701550245285034,0.3772885203361511,-0.20682646334171295
1.0946422815322876,0.483424574136734,-0.13353468477725983,-0.4159092307090759,0.37680134177207947,-0.1867232322692871
0.926537275314331,0.2823381721973419,-0.31006526947021484,-0.41063159704208374,0.3752760887145996,-0.17482031881809235
0.7585607171058655,0.06546216458082199,-0.47341856360435486,-0.4256705641746521,0.36467745900154114,-0.1507669985294342
0.5858162641525269,-0.14940699934959412,-0.6055149435997009,-0.40740400552749634,0.35385316610336304,-0.13774611055850983
0.3935820758342743,-0.3376403748989105,-0.7539099454879761,-0.40506184101104736,0.36041414737701416,-0.1108856052160263
0.1317167729139328,-0.4113457202911377,-0.8469957709312439,-0.3611949682235718,0.4092322587966919,-0.08577775955200195
-0.12831644713878632,-0.45622727274894714,-1.1478090286254883,-0.32819485664367676,0.5258234739303589,-0.07055066525936127
-0.10751517862081528,-0.5193769335746765,-1.5693351030349731,-0.34415000677108765,0.5598219037055969,-0.13695263862609863
0.08517612516880035,-0.6521803736686707,-1.9142069816589355,-0.2934647798538208,0.5254813432693481,-0.21053561568260193
0.14124612510204315,-0.8563894033432007,-2.1047439575195312,-0.20098185539245605,0.4801607131958008,-0.1751796156167984
0.005979454610496759,-1.0111509561538696,-2.1714673042297363,-0.13444221019744873,0.39143314957618713,-0.06119536608457565
-0.21517206728458405,-1.0696978569030762,-2.1420981884002686,-0.09213429689407349,0.296896368265152,0.02318943291902542
-0.39920690655708313,-1.0351759195327759,-2.115891695022583,-0.06797653436660767,0.2340172827243805,0.05051243305206299
-0.4553702473640442,-0.9296786785125732,-2.121060371398926,-0.0193672776222229,0.23547038435935974,0.030451297760009766
-0.29495105147361755,-0.7359741926193237,-2.1911675930023193,0.04743969440460205,0.2848218083381653,-0.036223649978637695
-0.01793205924332142,-0.4654392898082733,-2.2587718963623047,0.13351380825042725,0.3210095763206482,-0.0844728946685791
0.21190138161182404,-0.23055322468280792,-2.253375291824341,0.22381126880645752,0.29954075813293457,-0.09412574768066406
0.39235925674438477,-0.14320430159568787,-2.1041059494018555,0.28659194707870483,0.20282256603240967,-0.09102362394332886
0.4960179924964905,-0.29849156737327576,-1.8014134168624878,0.33744722604751587,0.06740325689315796,-0.07356804609298706
0.300375759601593,-0.5910403728485107,-1.4353684186935425,0.34599804878234863,-0.05591905117034912,0.025646448135375977
-0.12678763270378113,-0.9702537655830383,-1.1050201654434204,0.3210465908050537,-0.12275904417037964,0.1235954761505127
-0.5930934548377991,-1.233763337135315,-0.8478160500526428,0.2808954119682312,-0.14327573776245117,0.17525309324264526
-0.8971413373947144,-1.3339564800262451,-0.67779940366745,0.23254340887069702,-0.13275015354156494,0.16054928302764893
-0.9863991737365723,-1.311789870262146,-0.637151300907135,0.19257426261901855,-0.10563302040100098,0.09841061383485794
-0.9021670818328857,-1.2013310194015503,-0.701645016670227,0.15689951181411743,-0.0812029242515564,0.0315176323056221
-0.7159121632575989,-1.0442922115325928,-0.7786388993263245,0.15826284885406494,-0.07738083600997925,-0.018423914909362793
-0.5198524594306946,-0.8719394207000732,-0.7927495241165161,0.17916327714920044,-0.10446351766586304,-0.03594487905502319
-0.3903510272502899,-0.7377182841300964,-0.7278807163238525,0.22226154804229736,-0.1477338671684265,-0.023315735161304474
-0.37611037492752075,-0.6854203343391418,-0.6185745596885681,0.24698185920715332,-0.19470959901809692,0.02590012550354004
-0.38336360454559326,-0.6730953454971313,-0.5240297913551331,0.25738996267318726,-0.237171471118927,0.05589539557695389
-0.33640533685684204,-0.6469905972480774,-0.46213191747665405,0.2522572875022888,-0.24705880880355835,0.06147194653749466
-0.23307465016841888,-0.5402304530143738,-0.40485814213752747,0.24447214603424072,-0.26169300079345703,0.06065875291824341
-0.11867044866085052,-0.39762964844703674,-0.3791327178478241,0.2412276268005371,-0.2673581838607788,0.06817866116762161
0.03151648864150047,-0.2330472320318222,-0.3324820101261139,0.2465011477470398,-0.2686392068862915,0.066266730427742
0.15385647118091583,-0.05272414907813072,-0.2483643740415573,0.2700234651565552,-0.28194892406463623,0.0738731101155281
0.22525884211063385,0.06964264810085297,-0.21370194852352142,0.28403812646865845,-0.271478533744812,0.09764958173036575
0.3101343512535095,0.136020690202713,-0.1543755680322647,0.2968442440032959,-0.2575352191925049,0.08663707971572876
0.33667632937431335,0.1738710254430771,-0.0979805514216423,0.32816773653030396,-0.24132370948791504,0.09563959389925003
0.3229358494281769,0.16374480724334717,-0.02096226066350937,0.3511252999305725,-0.22743576765060425,0.11387641727924347
0.2500692903995514,0.15176880359649658,0.09097926318645477,0.3889445662498474,-0.2215917706489563,0.12766218185424805
0.1671111285686493,0.18927285075187683,0.23379261791706085,0.4347517490386963,-0.1715681552886963,0.12867145240306854
0.2257356196641922,0.23946894705295563,0.30708351731300354,0.49837052822113037,-0.07899153232574463,0.08516983687877655
0.2513943910598755,0.30384042859077454,0.3502514064311981,0.5080848336219788,-0.0519183874130249,0.083579882979393
0.1435585618019104,0.34167346358299255,0.616402804851532,0.501900315284729,-0.15943026542663574,0.10896146297454834
-0.017320990562438965,0.30948516726493835,1.040958046913147,0.5012471675872803,-0.24931716918945312,0.09879297018051147
-0.06590421497821808,0.3032178282737732,1.3768036365509033,0.45765870809555054,-0.22110354900360107,0.04735005646944046
0.04328439384698868,0.38336217403411865,1.497246503829956,0.3679085373878479,-0.11438286304473877,-0.005885414779186249
0.28097328543663025,0.5229545831680298,1.4772037267684937,0.2836604714393616,-0.01991790533065796,-0.05712311714887619
0.48969170451164246,0.7110745906829834,1.4636437892913818,0.2362368106842041,0.023028075695037842,-0.06388109922409058
0.6002324819564819,0.896638810634613,1.535470962524414,0.20612913370132446,0.029043912887573242,-0.043252646923065186
0.5843527317047119,1.062703013420105,1.6637837886810303,0.1844090223312378,0.04175221920013428,-0.011968493461608887
0.5320215821266174,1.1743547916412354,1.7577341794967651,0.1615217924118042,0.09020894765853882,-0.018873266875743866
0.51743483543396,1.2174160480499268,1.7196449041366577,0.12801361083984375,0.1709524393081665,-0.050890207290649414
0.5322962999343872,1.1915487051010132,1.592281699180603,0.09331679344177246,0.24431610107421875,-0.08273446559906006
0.4978930652141571,1.1578710079193115,1.4852577447891235,0.05875551700592041,0.25916314125061035,-0.0884089469909668
0.40929630398750305,1.0858259201049805,1.4630684852600098,0.04075223207473755,0.24083608388900757,-0.09006023406982422
0.2952909469604492,0.9935342073440552,1.5684586763381958,0.042945683002471924,0.2190384566783905,-0.10563427209854126
0.11068933457136154,0.8872477412223816,1.6825002431869507,0.0322268009185791,0.21944871544837952,-0.09700822830200195
-0.0642142966389656,0.7542933821678162,1.7398751974105835,-0.012438714504241943,0.245683491230011,-0.10906422138214111
-0.15840017795562744,0.6008031964302063,1.7479562759399414,-0.06432074308395386,0.27173736691474915,-0.14225542545318604
-0.13662272691726685,0.4164762496948242,1.7057873010635376,-0.11952400207519531,0.2975042760372162,-0.19001734256744385
-0.11162097752094269,0.30958762764930725,1.6213104724884033,-0.1782691478729248,0.3227980434894562,-0.1980447769165039
-0.06755246967077255,0.2484132945537567,1.4975603818893433,-0.23312526941299438,0.3406504690647125,-0.1919790506362915
0.009272598661482334,0.24260364472866058,1.3629350662231445,-0.28577572107315063,0.3518349826335907,-0.18823277950286865
0.08766134083271027,0.28118354082107544,1.1908732652664185,-0.31720417737960815,0.3629588484764099,-0.18395757675170898
0.17054834961891174,0.33600980043411255,0.9851633310317993,-0.3713759183883667,0.3711748421192169,-0.1728801727294922
0.2644244134426117,0.35358577966690063,0.7597028613090515,-0.39946335554122925,0.3725930452346802,-0.17898011207580566
0.3557035028934479,0.3099727928638458,0.5294705033302307,-0.42558151483535767,0.36338746547698975,-0.1841721534729004
0.411664217710495,0.21372443437576294,0.29991990327835083,-0.4309581518173218,0.3572249114513397,-0.17442607879638672
0.4569636285305023,0.12237069755792618,0.10180767625570297,-0.4342975616455078,0.35964369773864746,-0.16103768348693848
0.47563526034355164,0.08934798836708069,0.04317565634846687,-0.3855050802230835,0.3707650899887085,-0.1361234188079834
0.353729248046875,0.11718656122684479,-0.12240719050168991,-0.3881983160972595,0.377561092376709,-0.06531465798616409
0.19431617856025696,0.12848970293998718,-0.3917246162891388,-0.4024207592010498,0.4208289086818695,-0.020714521408081055
0.07187777012586594,0.10080205649137497,-0.6982007622718811,-0.39816802740097046,0.4315105080604553,-0.0160379558801651
-0.009725421667098999,0.045119669288396835,-0.9071191549301147,-0.3639007806777954,0.41513434052467346,-0.03025650978088379
-0.12828683853149414,-0.0359434075653553,-1.0429898500442505,-0.31054675579071045,0.38067588210105896,-0.039925478398799896
-0.3305445909500122,-0.10621629655361176,-1.202040672302246,-0.2662564516067505,0.4209352135658264,-0.03690529614686966
-0.3931039273738861,-0.17235082387924194,-1.5415213108062744,-0.23747599124908447,0.5052152276039124,-0.0787418931722641
-0.17139989137649536,-0.18871985375881195,-1.9603073596954346,-0.23515397310256958,0.5135718584060669,-0.17222082614898682
0.16688218712806702,-0.2908860445022583,-2.209380865097046,-0.16066426038742065,0.44861432909965515,-0.23689424991607666
0.258943110704422,-0.3853895962238312,-2.2736165523529053,-0.0665978193283081,0.36554569005966187,-0.15499579906463623
0.09325577318668365,-0.4071500897407532,-2.1395866870880127,0.01848900318145752,0.2644270658493042,-0.024317264556884766
-0.18831853568553925,-0.39903542399406433,-2.016328811645508,0.05890297889709473,0.19714906811714172,0.051327936351299286
-0.336911141872406,-0.3898858428001404,-2.001999855041504,0.07118886709213257,0.19061949849128723,0.04077647626399994
-0.25588563084602356,-0.38829565048217773,-2.0117757320404053,0.08897173404693604,0.17486858367919922,-0.040537118911743164
-0.16064997017383575,-0.4054599702358246,-1.9742159843444824,0.12793242931365967,0.13229894638061523,-0.08423852175474167
-0.21869395673274994,-0.49239251017570496,-1.8574243783950806,0.1832677125930786,0.08921164274215698,-0.06534922868013382
-0.41135308146476746,-0.649117112159729,-1.6775836944580078,0.24382174015045166,0.06000685691833496,-0.03293287754058838
-0.6203213930130005,-0.8086091876029968,-1.42899751663208,0.2847033143043518,0.021088063716888428,-0.025141719728708267
-0.8320261836051941,-0.9404369592666626,-1.1484266519546509,0.2835724949836731,-0.055422306060791016,-0.025072578340768814
-1.0641876459121704,-1.102434515953064,-0.9188106656074524,0.25821453332901,-0.09514611959457397,-0.029873602092266083
-1.2476252317428589,-1.2582675218582153,-0.7188975214958191,0.20821237564086914,-0.13511842489242554,-0.05225754529237747
-1.3724216222763062,-1.4487885236740112,-0.5557156205177307,0.16699987649917603,-0.15301662683486938,-0.08600831031799316
-1.4544488191604614,-1.6143900156021118,-0.4460323750972748,0.13002407550811768,-0.15404796600341797,-0.11082804203033447
-1.5091737508773804,-1.7007486820220947,-0.3784187138080597,0.09388571977615356,-0.14228850603103638,-0.11674416065216064
-1.5042489767074585,-1.6964638233184814,-0.322637140750885,0.0743761658668518,-0.13943612575531006,-0.12158489227294922
-1.4663485288619995,-1.6286430358886719,-0.2823203504085541,0.05171310901641846,-0.13853704929351807,-0.12618720531463623
-1.4125651121139526,-1.530930757522583,-0.2392551749944687,0.03686124086380005,-0.14791792631149292,-0.1315605640411377
-1.291394829750061,-1.4416389465332031,-0.2253894805908203,0.010370850563049316,-0.15575581789016724,-0.1438077688217163
-1.093340516090393,-1.418329119682312,-0.22919794917106628,0.01787930727005005,-0.15344905853271484,-0.16383349895477295
-1.0055795907974243,-1.4347318410873413,-0.24519962072372437,0.011195659637451172,-0.16303282976150513,-0.13839185237884521
-1.0367079973220825,-1.4500819444656372,-0.2218458205461502,0.02915579080581665,-0.16639292240142822,-0.06964612007141113
-1.046629548072815,-1.4596893787384033,-0.20272770524024963,0.043660104274749756,-0.17907369136810303,-0.04226219654083252
-1.0229378938674927,-1.4259281158447266,-0.1824333518743515,0.0706866979598999,-0.17635256052017212,-0.033375561237335205
-1.0039671659469604,-1.3723759651184082,-0.17184489965438843,0.07995373010635376,-0.1840335726737976,-0.008853495121002197
-0.9472219347953796,-1.3361451625823975,-0.1839447170495987,0.1093100905418396,-0.19130539894104004,-0.007776378653943539
-0.8262098431587219,-1.3205677270889282,-0.17460188269615173,0.12285321950912476,-0.19083553552627563,-0.024985255673527718
-0.6943094730377197,-1.243626594543457,-0.12388783693313599,0.16568607091903687,-0.18896108865737915,-0.02415740117430687
-0.550347089767456,-1.150139331817627,-0.08032996952533722,0.20766913890838623,-0.1709810495376587,-0.00812673568725586
-0.4188876152038574,-1.0541976690292358,0.01238359697163105,0.2519722580909729,-0.1661369800567627,0.012755163013935089
-0.4133511483669281,-0.9996646642684937,0.13334424793720245,0.3015509843826294,-0.17053526639938354,0.07414430379867554
-0.481468141078949,-1.0151609182357788,0.3016246557235718,0.30841904878616333,-0.1799357533454895,0.11772704869508743
-0.5429980754852295,-1.1099655628204346,0.47141245007514954,0.3113745450973511,-0.1869998574256897,0.11722797900438309
-0.5150277614593506,-1.1783758401870728,0.5482581257820129,0.26977741718292236,-0.16996794939041138,0.120125412940979
-0.4223272502422333,-1.1212637424468994,0.5671290755271912,0.22991496324539185,-0.15093088150024414,0.1295596957206726
-0.32028132677078247,-0.966989278793335,0.5683963298797607,0.19553136825561523,-0.14509302377700806,0.16148239374160767
-0.19164343178272247,-0.7381886839866638,0.6260713934898376,0.2095392346382141,-0.12514567375183105,0.17403960227966309
-0.03430990129709244,-0.5290347933769226,0.6228139400482178,0.2645515203475952,-0.04467290639877319,0.1649998426437378
0.11781766265630722,-0.39034515619277954,0.4780135154724121,0.28938597440719604,0.04586505889892578,0.16789545118808746
0.21893903613090515,-0.2874699831008911,0.397106409072876,0.29591888189315796,0.032546818256378174,0.1935143619775772
0.11899880319833755,-0.19945253431797028,0.5762320756912231,0.3084295392036438,-0.08861231803894043,0.2506430745124817
-0.09472744166851044,-0.17739766836166382,0.9718241095542908,0.31112343072891235,-0.1934155821800232,0.2893607020378113
-0.2729988992214203,-0.22209450602531433,1.3209832906723022,0.27931129932403564,-0.2026655673980713,0.2647503614425659
-0.32071104645729065,-0.20234183967113495,1.4324944019317627,0.18850958347320557,-0.09617787599563599,0.2245665192604065
-0.14415627717971802,-0.12848827242851257,1.3260927200317383,0.11513262987136841,0.032491445541381836,0.1531166434288025
0.0774340033531189,0.016579581424593925,1.1597070693969727,0.08310842514038086,0.12018394470214844,0.12751804292201996
0.0800543949007988,0.2214779555797577,1.134953260421753,0.09065353870391846,0.12597286701202393,0.19132906198501587
-0.09275773912668228,0.3683670461177826,1.248474359512329,0.12975066900253296,0.09233134984970093,0.2384166717529297
-0.2924044132232666,0.4142115116119385,1.361472487449646,0.14223164319992065,0.10874652862548828,0.2222524881362915
-0.39152857661247253,0.3770560324192047,1.400725245475769,0.131341814994812,0.16077780723571777,0.14002299308776855
-0.413133442401886,0.3015495240688324,1.4019529819488525,0.11114519834518433,0.2058258056640625,0.06992942094802856
-0.46697404980659485,0.18926425278186798,1.407333493232727,0.09996980428695679,0.22582021355628967,0.030252881348133087
-0.5802679061889648,0.016263868659734726,1.392480731010437,0.07240933179855347,0.2512935400009155,0.027211010456085205
-0.6838356852531433,-0.18373316526412964,1.3977322578430176,0.04491555690765381,0.27578651905059814,0.008077152073383331
-0.7338542342185974,-0.32601988315582275,1.5592548847198486,0.05013340711593628,0.2876444458961487,-0.017950594425201416
-0.8324377536773682,-0.39283692836761475,1.747667908668518,0.03753650188446045,0.2662491500377655,0.006244786083698273
-0.9707005620002747,-0.4086916744709015,1.798845887184143,-0.0388871431350708,0.31055977940559387,0.054598383605480194
-1.0064964294433594,-0.3186268210411072,1.6974307298660278,-0.1261204481124878,0.34656640887260437,0.047156818211078644
-0.909421980381012,-0.19405414164066315,1.4904258251190186,-0.20712947845458984,0.3937036395072937,0.023182153701782227
-0.7285689115524292,-0.0592200830578804,1.2400492429733276,-0.2676154375076294,0.4135957658290863,-0.007247447967529297
-0.5676499009132385,0.0037131505087018013,0.9976571202278137,-0.3151477575302124,0.4049573242664337,-0.018451090902090073
-0.528516948223114,0.01126211415976286,0.7716025114059448,-0.34435075521469116,0.38173890113830566,0.008297383785247803
-0.5550534725189209,-0.023401016369462013,0.5523107647895813,-0.3691977858543396,0.3573307394981384,0.03565596789121628
-0.600132942199707,-0.08097352087497711,0.36077845096588135,-0.3852642774581909,0.3502032160758972,0.04178726673126221
-0.6776478290557861,-0.1224064826965332,0.2154626101255417,-0.38757699728012085,0.35051751136779785,0.03905589133501053
-0.7644069790840149,-0.1275508999824524,0.04582536593079567,-0.4089500308036804,0.3493652939796448,0.03615952283143997
-0.7788030505180359,-0.10299590975046158,-0.17247939109802246,-0.43406784534454346,0.36019444465637207,0.008754909038543701
-0.703731119632721,-0.08576440811157227,-0.41405776143074036,-0.45300740003585815,0.3540731370449066,-0.034070249646902084
-0.6514490246772766,-0.1117844507098198,-0.6920462846755981,-0.4514598846435547,0.3504669666290283,-0.049037571996450424
-0.6638103723526001,-0.15323863923549652,-0.926002025604248,-0.44605571031570435,0.33872953057289124,-0.038809359073638916
-0.7464637160301208,-0.200358048081398,-1.1095490455627441,-0.4115562438964844,0.3253883421421051,-0.015659332275390625
-0.8599633574485779,-0.2582702338695526,-1.279591679573059,-0.3818700909614563,0.32405561208724976,-0.00883835181593895
-0.9749259948730469,-0.33072629570961,-1.5146820545196533,-0.35492461919784546,0.3324897587299347,-0.007301859557628632
-1.0486894845962524,-0.41637760400772095,-1.8357452154159546,-0.3353153467178345,0.363822877407074,-0.02615278959274292
-1.072934865951538,-0.4415101110935211,-2.1039600372314453,-0.28144651651382446,0.3667249381542206,-0.042895011603832245
-1.1503175497055054,-0.4611724317073822,-2.3175430297851562,-0.197532057762146,0.3574097454547882,-0.03305678442120552
-1.3318270444869995,-0.5448495745658875,-2.41548490524292,-0.10366946458816528,0.33173954486846924,-0.00964730978012085
-1.6296042203903198,-0.7309241890907288,-2.3799126148223877,0.001026153564453125,0.2683124244213104,0.007029537111520767
-2.0277490615844727,-0.9937078952789307,-2.21246337890625,0.09236246347427368,0.2051810622215271,-0.0001883469521999359
-2.542264223098755,-1.290980339050293,-1.9165849685668945,0.2382415533065796,0.25261008739471436,-0.032104313373565674
-2.9855005741119385,-1.627699613571167,-1.77349853515625,0.3677341341972351,0.3827299475669861,-0.10649228096008301
-3.265007495880127,-1.9854114055633545,-1.7981822490692139,0.4060550332069397,0.4413537383079529,-0.2170422077178955
-3.260922431945801,-2.341362476348877,-1.6639937162399292,0.34963637590408325,0.27478355169296265,-0.3383808135986328
-2.921438455581665,-2.632733106613159,-1.2591161727905273,0.36311209201812744,0.0747532844543457,-0.45023173093795776
-2.421583890914917,-2.707683563232422,-0.7253963351249695,0.3474413752555847,-0.0880700945854187,-0.48918819427490234
-1.9623332023620605,-2.5243818759918213,-0.35442671179771423,0.32103902101516724,-0.06711167097091675,-0.41155701875686646
-1.599557638168335,-2.09515643119812,-0.2720697820186615,0.2617647647857666,-0.000819087028503418,-0.31928151845932007
-1.3734253644943237,-1.5431692600250244,-0.38438060879707336,0.17742395401000977,0.03368109464645386,-0.2215747833251953
-1.2860758304595947,-1.030752182006836,-0.4477893114089966,0.12073838710784912,-0.018799185752868652,-0.15989208221435547
-1.361899971961975,-0.7437074780464172,-0.27975618839263916,0.12692517042160034,-0.12225180864334106,-0.13235056400299072
-1.620871901512146,-0.7290722131729126,0.02592897042632103,0.1496216058731079,-0.17351776361465454,-0.11692708730697632
-2.007558822631836,-1.0019515752792358,0.26209768652915955,0.13330817222595215,-0.17448222637176514,-0.128340482711792
-2.445809841156006,-1.4594268798828125,0.3286522924900055,0.08637285232543945,-0.12385761737823486,-0.14186322689056396
-2.832590103149414,-1.940744400024414,0.2503296434879303,0.024133741855621338,-0.06966567039489746,-0.17064762115478516
-2.9687044620513916,-2.2353687286376953,0.2795233428478241,-0.009082436561584473,-0.0524633526802063,-0.2378600835800171
-2.9963014125823975,-2.2778072357177734,0.45845282077789307,-0.011142373085021973,-0.08560216426849365,-0.27996671199798584
-2.948490619659424,-2.1632397174835205,0.6991481781005859,-0.02839738130569458,-0.11904054880142212,-0.2602381706237793
-2.7539565563201904,-1.9658046960830688,0.7882830500602722,-0.07410669326782227,-0.12044346332550049,-0.2642158269882202
-2.4383444786071777,-1.7665743827819824,0.6819501519203186,-0.12268155813217163,-0.09659683704376221,-0.2877010107040405
-2.217512845993042,-1.5565059185028076,0.41773521900177,-0.19241154193878174,-0.06925010681152344,-0.2563711404800415
-1.9900165796279907,-1.4450560808181763,0.20997923612594604,-0.20518767833709717,-0.06691795587539673,-0.24974453449249268
-1.7441140413284302,-1.412278652191162,0.08339671790599823,-0.1636369228363037,-0.07494735717773438,-0.26162028312683105
-1.5164753198623657,-1.40562105178833,-0.03808571770787239,-0.12842971086502075,-0.07424616813659668,-0.2471170425415039
-1.3277479410171509,-1.3595914840698242,-0.16307149827480316,-0.11611199378967285,-0.08638948202133179,-0.19710254669189453
-1.142020344734192,-1.327405333518982,-0.30343496799468994,-0.0892210602760315,-0.09475564956665039,-0.1614137887954712
-0.973139762878418,-1.2763073444366455,-0.4391447901725769,-0.06894302368164062,-0.10239636898040771,-0.12852025032043457
-0.7773199081420898,-1.1824681758880615,-0.5607297420501709,-0.03579741716384888,-0.12806588411331177,-0.09879111498594284
-0.5080968737602234,-1.0455774068832397,-0.6913735270500183,-0.006742417812347412,-0.14258044958114624,-0.07261956483125687
-0.22001296281814575,-0.8281885385513306,-0.7969270944595337,0.04145079851150513,-0.13755804300308228,-0.042744509875774384
0.030615536496043205,-0.6053858995437622,-0.8268526196479797,0.12756478786468506,-0.1383373737335205,0.009552359580993652
0.15732572972774506,-0.4946953356266022,-0.8362669348716736,0.20304101705551147,-0.14609867334365845,0.06949055194854736
0.07932493835687637,-0.5219031572341919,-0.7993631362915039,0.2689245343208313,-0.14942288398742676,0.146134614944458
-0.17283102869987488,-0.6706553101539612,-0.7079455852508545,0.3291046619415283,-0.16675645112991333,0.20464134216308594
-0.4429880380630493,-0.9554374814033508,-0.5397544503211975,0.3789820671081543,-0.19560867547988892,0.2140423059463501
-0.6089276075363159,-1.255364179611206,-0.37641510367393494,0.39738988876342773,-0.22627931833267212,0.1901087760925293
-0.6290632486343384,-1.321509838104248,-0.20030617713928223,0.3905948996543884,-0.24928486347198486,0.1846015453338623
-0.5395118594169617,-1.1811035871505737,-0.046209659427404404,0.3968372344970703,-0.24298226833343506,0.19977295398712158
-0.3237279951572418,-0.9314174056053162,0.02114381082355976,0.43626707792282104,-0.156286358833313,0.20202982425689697
-0.12355706840753555,-0.6083225011825562,0.06620096415281296,0.45337289571762085,-0.12374287843704224,0.23429036140441895
-0.11600759625434875,-0.43044203519821167,0.2268722653388977,0.4614514112472534,-0.17579776048660278,0.28791797161102295
-0.2905755639076233,-0.4471634030342102,0.5301026701927185,0.4678007960319519,-0.25184935331344604,0.3282628059387207
-0.5452927350997925,-0.6176542639732361,0.8869690895080566,0.45193248987197876,-0.29099708795547485,0.3369952440261841
-0.7338331341743469,-0.7410975694656372,1.1486356258392334,0.3919612765312195,-0.2687194347381592,0.3149123191833496
-0.7255344390869141,-0.7114545106887817,1.3422740697860718,0.3199650049209595,-0.2314167022705078,0.27399760484695435
-0.604102611541748,-0.5297293663024902,1.533359408378601,0.2780928611755371,-0.19296085834503174,0.22557705640792847
-0.5016582012176514,-0.22743360698223114,1.7260937690734863,0.26610881090164185,-0.1385214924812317,0.20862770080566406
-0.4183494448661804,0.09279435127973557,1.8741308450698853,0.25849074125289917,-0.03296220302581787,0.1834281086921692
-0.2866480052471161,0.36096319556236267,1.9446213245391846,0.23094981908798218,0.065784752368927,0.12873297929763794
-0.15849339962005615,0.5367749929428101,1.9307825565338135,0.1894633173942566,0.15056419372558594,0.0728079080581665
-0.0785113126039505,0.5911312103271484,1.8746730089187622,0.1465216875076294,0.20352792739868164,0.053615570068359375
-0.06402836740016937,0.5818886756896973,1.797932505607605,0.11584466695785522,0.23658183217048645,0.05097246170043945
-0.18269532918930054,0.5013759136199951,1.701504111289978,0.09118646383285522,0.251984566450119,0.0750420093536377
-0.43617236614227295,0.3294462561607361,1.7016682624816895,0.098935067653656,0.23658150434494019,0.10407853126525879
-0.7562081217765808,0.1313188374042511,1.8013981580734253,0.11791360378265381,0.21377477049827576,0.10480391979217529
-1.0236655473709106,-0.04740986227989197,1.960827350616455,0.11863410472869873,0.220738023519516,0.08306646347045898
-1.1359668970108032,-0.13053739070892334,2.0517749786376953,0.0701291561126709,0.2527490258216858,0.032801028341054916
-1.056503415107727,-0.14190931618213654,2.0302603244781494,-0.016670525074005127,0.2962256371974945,-0.02526426687836647
-0.8621731996536255,-0.09674032032489777,1.8871595859527588,-0.10903346538543701,0.3406127989292145,-0.06442737579345703
-0.6622538566589355,-0.002214575419202447,1.6899877786636353,-0.18686944246292114,0.36184296011924744,-0.0780940130352974
-0.4889300763607025,0.1043035164475441,1.4924774169921875,-0.2439221739768982,0.3584003448486328,-0.06908035278320312
-0.373169869184494,0.19249413907527924,1.3484126329421997,-0.26919060945510864,0.33996036648750305,-0.056616783142089844
-0.3151645362377167,0.2602801024913788,1.1967185735702515,-0.30210554599761963,0.3213751018047333,-0.029848456382751465
-0.278707891702652,0.30512282252311707,1.0074607133865356,-0.34935420751571655,0.314829021692276,-0.007744796574115753
-0.22378303110599518,0.27552857995033264,0.7796433568000793,-0.3923802971839905,0.3096775412559509,-0.008623354136943817
-0.20508667826652527,0.23070769011974335,0.504365861415863,-0.43445706367492676,0.304975301027298,0.005264155566692352
-0.2506909966468811,0.17749221622943878,0.24098408222198486,-0.4575057029724121,0.29825714230537415,0.03440380096435547
-0.348853200674057,0.08141259849071503,-0.007388303522020578,-0.460541307926178,0.29482513666152954,0.05475901812314987
-0.476121723651886,-0.04564792662858963,-0.26828742027282715,-0.46522217988967896,0.29392316937446594,0.05760442465543747
-0.6020556092262268,-0.16088198125362396,-0.525119960308075,-0.4692814350128174,0.2959338426589966,0.04706382751464844
-0.7166240215301514,-0.22059626877307892,-0.795997679233551,-0.4704877734184265,0.308066725730896,0.04497266560792923
-0.779356837272644,-0.23680385947227478,-1.0543063879013062,-0.45255279541015625,0.3312300443649292,0.018528826534748077
-0.8168820738792419,-0.21715842187404633,-1.3113059997558594,-0.41972440481185913,0.3612128496170044,-0.014431729912757874
-0.8482212424278259,-0.20998181402683258,-1.6403648853302002,-0.40067827701568604,0.39529144763946533,-0.04552065581083298
-0.8317922353744507,-0.2584410011768341,-1.9773966073989868,-0.3603892922401428,0.43050557374954224,-0.09189129620790482
-0.7869990468025208,-0.33832961320877075,-2.277695655822754,-0.28111255168914795,0.44994908571243286,-0.1371828317642212
-0.7668254971504211,-0.4079214036464691,-2.474769115447998,-0.17721420526504517,0.46350085735321045,-0.15765048563480377
-0.8645872473716736,-0.45331257581710815,-2.6610326766967773,-0.028211891651153564,0.5319627523422241,-0.1397078037261963
-0.8533855080604553,-0.5876129269599915,-2.97682785987854,0.061702728271484375,0.6041103601455688,-0.16625988483428955
-0.6363771557807922,-0.7385818362236023,-3.1477136611938477,0.14427399635314941,0.5189802050590515,-0.22283577919006348
-0.5866602659225464,-0.8528509140014648,-3.088974714279175,0.2366032600402832,0.3542041778564453,-0.1685706377029419
-0.8285353183746338,-0.9236921668052673,-2.8107151985168457,0.3368026614189148,0.23738592863082886,-0.06479179859161377
-1.134055495262146,-0.9716898798942566,-2.371608257293701,0.4321393370628357,0.1555788516998291,-0.02597511187195778
-1.294777274131775,-1.0833570957183838,-1.9830354452133179,0.4727778434753418,0.12398749589920044,-0.08386671543121338
-1.3189139366149902,-1.2197195291519165,-1.73888099193573,0.39560776948928833,0.04676300287246704,-0.15476834774017334
-1.3427717685699463,-1.3031797409057617,-1.4776082038879395,0.33283716440200806,-0.02424246072769165,-0.16957855224609375
-1.414793848991394,-1.3527686595916748,-1.204480528831482,0.32358819246292114,-0.04627728462219238,-0.16369295120239258
-1.4293283224105835,-1.3816980123519897,-0.9854418039321899,0.31654709577560425,-0.04425269365310669,-0.1664491891860962
-1.4497966766357422,-1.3566480875015259,-0.8766803741455078,0.2859497666358948,-0.05767250061035156,-0.14440464973449707
-1.565712332725525,-1.3017953634262085,-0.8008958697319031,0.2534669041633606,-0.09350311756134033,-0.10102617740631104
-1.7279932498931885,-1.2960700988769531,-0.6713008880615234,0.21437972784042358,-0.16062158346176147,-0.08795595169067383
-1.8211888074874878,-1.4171451330184937,-0.4925510287284851,0.19407391548156738,-0.22578507661819458,-0.13140463829040527
-1.9286954402923584,-1.5629757642745972,-0.3902781009674072,0.1518993377685547,-0.25107908248901367,-0.1515864133834839
-1.9686483144760132,-1.6894972324371338,-0.347945898771286,0.09777098894119263,-0.2631484866142273,-0.16859102249145508
-1.9148825407028198,-1.720082402229309,-0.34163352847099304,0.07874196767807007,-0.26273679733276367,-0.18706285953521729
-1.7988020181655884,-1.630790114402771,-0.3599855601787567,0.06668698787689209,-0.2778496742248535,-0.19071245193481445
-1.6612908840179443,-1.4387191534042358,-0.35974153876304626,0.07706362009048462,-0.28538769483566284,-0.1799755096435547
-1.4719548225402832,-1.2592556476593018,-0.32077303528785706,0.11006468534469604,-0.2981604337692261,-0.19982314109802246
-1.340492606163025,-1.1032625436782837,-0.28704074025154114,0.14476323127746582,-0.295060396194458,-0.20273935794830322
-1.2001683712005615,-1.0236834287643433,-0.2686159312725067,0.17903566360473633,-0.28825289011001587,-0.21377170085906982
-0.9882921576499939,-1.0060020685195923,-0.27494919300079346,0.20784717798233032,-0.2910594940185547,-0.23856735229492188
-0.863164484500885,-0.8905954957008362,-0.3440818786621094,0.21405917406082153,-0.29549938440322876,-0.20756328105926514
-0.9065097570419312,-0.6520183086395264,-0.4235031008720398,0.21328461170196533,-0.309442937374115,-0.10863400250673294
-0.9040318727493286,-0.530630350112915,-0.3116416037082672,0.26364457607269287,-0.3290035128593445,-0.04200517386198044
-0.7872295379638672,-0.5853220224380493,-0.05959204584360123,0.3477700352668762,-0.3463098406791687,-0.07772886753082275
-0.5736932158470154,-0.6630867123603821,0.13471023738384247,0.3581843972206116,-0.3305685520172119,-0.10048808157444
-0.3011234700679779,-0.7234704494476318,0.21924825012683868,0.3341673016548157,-0.290244996547699,-0.10431457310914993
-0.022158721461892128,-0.7412646412849426,0.25046345591545105,0.311773419380188,-0.2687649130821228,-0.07920575141906738
0.22459416091442108,-0.6775709986686707,0.3651544451713562,0.3393436074256897,-0.24560487270355225,-0.015219226479530334
0.3998381197452545,-0.5854833126068115,0.5336818099021912,0.388746976852417,-0.2355717420578003,0.04188752919435501
0.5050113797187805,-0.44995638728141785,0.6608107686042786,0.3805011510848999,-0.20533210039138794,0.10039472579956055
0.520072340965271,-0.28047114610671997,0.7511397004127502,0.35530394315719604,-0.1807590126991272,0.14201748371124268
0.5531162619590759,-0.0948324054479599,0.832542359828949,0.36753326654434204,-0.10868197679519653,0.14686274528503418
0.7545892596244812,0.0387764498591423,0.7686675190925598,0.38027167320251465,0.010124266147613525,0.10451221466064453
0.8911716938018799,0.081840381026268,0.6790563464164734,0.3555956482887268,0.037187159061431885,0.09538066387176514
0.5932391285896301,-0.2859479784965515,0.7186364531517029,0.34860414266586304,-0.05030542612075806,0.13931292295455933
-0.2813422679901123,-1.0432237386703491,0.7986648082733154,0.3505592942237854,-0.10760080814361572,0.2621456980705261
-0.9736106395721436,-1.7819733619689941,0.9222655296325684,0.35244935750961304,-0.09386259317398071,0.2868760824203491
-1.0422910451889038,-1.9559454917907715,0.9041447639465332,0.2877228856086731,-0.019129693508148193,0.13622212409973145
-0.6124664545059204,-1.6220588684082031,0.8168231248855591,0.16667580604553223,0.034630775451660156,-0.027754120528697968
0.06987154483795166,-0.9157816767692566,0.9508839249610901,0.13510394096374512,0.0191880464553833,-0.1373404860496521
0.7285618185997009,0.04375498741865158,1.2396351099014282,0.12108957767486572,0.004877805709838867,-0.15763497352600098
1.2306042909622192,1.0243276357650757,1.4209692478179932,0.08614969253540039,0.03501331806182861,-0.12106131762266159
1.5386855602264404,1.7710034847259521,1.3277732133865356,0.014616549015045166,0.14097082614898682,-0.10217273980379105
1.7068817615509033,2.1403298377990723,1.118386149406433,-0.04961806535720825,0.22769415378570557,-0.1290949583053589
1.7698068618774414,2.2275946140289307,1.0150853395462036,-0.02490365505218506,0.2641434073448181,-0.1650075912475586
1.6564358472824097,2.145261287689209,0.979202151298523,-0.008553266525268555,0.27000612020492554,-0.16784042119979858
1.5322195291519165,2.11442232131958,0.9911580085754395,-0.01798170804977417,0.2575024366378784,-0.17119860649108887
1.503208041191101,2.1731607913970947,1.0310909748077393,-0.05051100254058838,0.2285957932472229,-0.21634423732757568
1.5834916830062866,2.2442190647125244,1.0540788173675537,-0.09394097328186035,0.21966704726219177,-0.27957701683044434
1.7043880224227905,2.2384488582611084,1.0332852602005005,-0.14742082357406616,0.21686497330665588,-0.3380603790283203
1.8110734224319458,2.110464334487915,0.9946609139442444,-0.19198709726333618,0.21707212924957275,-0.3729137182235718
1.8032475709915161,1.8788352012634277,0.9360553622245789,-0.2203044891357422,0.21574747562408447,-0.36798346042633057
1.6901382207870483,1.630426287651062,0.857454776763916,-0.25476348400115967,0.21460482478141785,-0.33728063106536865
1.5388623476028442,1.4354088306427002,0.7956196069717407,-0.27976542711257935,0.20833057165145874,-0.31420767307281494
1.4621835947036743,1.287130355834961,0.7192363142967224,-0.3060563802719116,0.19746699929237366,-0.3108891248703003
1.5144349336624146,1.1962907314300537,0.6035706996917725,-0.34033340215682983,0.19154572486877441,-0.33951234817504883
1.599839448928833,1.0570478439331055,0.43574798107147217,-0.3682207465171814,0.1985902190208435,-0.3500993549823761
