rotation_x,rotation_y,rotation_z,acceleration_x,acceleration_y,acceleration_z
-0.46540743112564087,0.3839140832424164,0.2554137110710144,0.14101625978946686,-0.05575162172317505,0.17394709587097168
-0.2924179136753082,0.13765312731266022,0.4636678993701935,0.2015482485294342,-0.04785048961639404,-0.014819324016571045
0.05841215327382088,-0.039858512580394745,0.2823162078857422,0.08929687738418579,0.003120720386505127,-0.13886606693267822
0.12927523255348206,0.03042622096836567,0.04492371156811714,0.0007073283195495605,0.06481486558914185,-0.033233046531677246
0.004346907138824463,-0.05751773342490196,-0.019068071618676186,0.0061989277601242065,0.017367184162139893,0.05119985342025757
-0.29259130358695984,0.12252631783485413,0.0024071442894637585,0.03425684571266174,0.021504878997802734,0.10872304439544678
-0.6267425417900085,0.3148253262042999,0.06731701642274857,0.07014204561710358,-0.040365755558013916,0.17207717895507812
-0.5995218753814697,0.1599218100309372,0.14762167632579803,0.0866273045539856,-0.04593455791473389,0.030020415782928467
-0.31310898065567017,-0.10707482695579529,0.015458144247531891,0.04867531359195709,-0.0164487361907959,-0.06690752506256104
-0.15111087262630463,0.0638490617275238,-0.06069875508546829,0.006778553128242493,-0.0434645414352417,-0.014973282814025879
-0.1519274115562439,0.18219536542892456,0.020903730764985085,0.027435466647148132,-0.0916452407836914,0.047841668128967285
-0.23642852902412415,0.06114150211215019,0.1726750284433365,0.08609853684902191,-0.07836252450942993,0.028180480003356934
-0.33068424463272095,0.08747095614671707,0.1671384871006012,0.05800054967403412,-0.07335686683654785,0.014441847801208496
-0.1801072061061859,0.14909996092319489,0.059365686029195786,0.005772024393081665,-0.04272431135177612,0.02555251121520996
0.048388898372650146,0.15265582501888275,0.06705661863088608,-0.004971683025360107,-0.05025374889373779,0.040849924087524414
-0.07394380867481232,0.22444318234920502,0.21360905468463898,0.013438686728477478,-0.08062177896499634,0.16960233449935913
-0.3427160382270813,0.3095293939113617,0.3003888428211212,-0.012435853481292725,-0.0914984941482544,0.2351609468460083
-0.5320024490356445,0.3354179561138153,0.2429005652666092,-0.12027198076248169,-0.06400233507156372,0.1721653938293457
-0.6730340123176575,0.1988515406847,0.18987788259983063,-0.09019707143306732,-0.050799429416656494,0.11370795965194702
-0.6243870854377747,0.02778526023030281,0.06786595284938812,-0.09212493896484375,-0.06519746780395508,0.018050849437713623
-0.44356226921081543,-0.2237534075975418,0.07365424931049347,-0.06613272428512573,-0.06985056400299072,-0.04654115438461304
-0.24069665372371674,-0.15904870629310608,0.18572592735290527,-0.030077844858169556,-0.11663013696670532,-0.015246987342834473
-0.18359491229057312,-0.039144981652498245,0.15069898962974548,-0.05676184594631195,-0.09885066747665405,0.051463782787323
-0.405861496925354,0.08050491660833359,0.11286459863185883,-0.060836419463157654,-0.11417034268379211,0.16034525632858276
-0.5729666948318481,0.10377136617898941,0.10581281036138535,-0.04776117205619812,-0.1316421926021576,0.18380224704742432
-0.4325461685657501,-0.04850222170352936,0.07620873302221298,-0.04548925161361694,-0.15813767910003662,0.06918567419052124
-0.08421347290277481,0.09578540176153183,0.10002383589744568,-0.07653205096721649,-0.15761417150497437,-0.037772417068481445
-0.021080059930682182,0.4968407154083252,0.2811456322669983,-0.026236221194267273,-0.16725420951843262,0.05918926000595093
-0.2553381323814392,0.6044718027114868,0.4400983154773712,0.0009932368993759155,-0.17015939950942993,0.1353359818458557
-0.27373871207237244,0.45731955766677856,0.34459665417671204,-0.05737076699733734,-0.11684274673461914,0.057866811752319336
-0.13908696174621582,0.1860780417919159,0.10798986256122589,-0.13397316634655,-0.09254258871078491,-0.006875336170196533
-0.12890419363975525,0.283595472574234,-0.08214245736598969,-0.1756604164838791,-0.11413979530334473,0.028598368167877197
-0.19484809041023254,0.29964038729667664,-0.15323121845722198,-0.11478859186172485,-0.0975954532623291,0.04849660396575928
-0.10578085482120514,0.17312416434288025,-0.15169738233089447,-0.057402268052101135,-0.10662400722503662,-0.03942149877548218
0.020175307989120483,0.10439082235097885,-0.10519611090421677,-0.0016880184412002563,-0.11226093769073486,-0.07915955781936646
0.06664209812879562,0.445941686630249,-0.13803786039352417,-0.05547574162483215,-0.11463040113449097,0.010759949684143066
0.0012966725043952465,0.5608211755752563,-0.19559895992279053,-0.06621222198009491,-0.08119797706604004,0.06171584129333496
-0.13685767352581024,0.4384429156780243,-0.18135063350200653,-0.0421183705329895,-0.1066056489944458,0.053441643714904785
-0.08755184710025787,0.43321794271469116,-0.16814814507961273,-0.001064993441104889,-0.12048128247261047,-0.014018237590789795
0.04859389364719391,0.5370297431945801,-0.056243896484375,-0.025227852165699005,-0.16688910126686096,-0.06039160490036011
-0.03441546484827995,0.7520715594291687,0.08655315637588501,-0.052383437752723694,-0.17650246620178223,0.011615991592407227
-0.37845122814178467,0.6397334337234497,0.07894939184188843,-0.08486011624336243,-0.10208654403686523,0.007969796657562256
-0.49541765451431274,0.4480736255645752,-0.13185304403305054,-0.07019005715847015,0.016266286373138428,-0.1494923233985901
-0.2752748131752014,0.07116342335939407,-0.3506416082382202,-0.011897683143615723,0.00533980131149292,-0.32452666759490967
0.14930349588394165,-0.008118866942822933,-0.3269520401954651,0.001410841941833496,-0.02204442024230957,-0.31171417236328125
0.6008349657058716,-0.07647500187158585,-0.14824993908405304,0.06616410613059998,-0.04703766107559204,-0.2371092438697815
0.789302408695221,-0.18978221714496613,-0.08485621958971024,0.03366530314087868,-0.0024820268154144287,-0.13867533206939697
0.5027561187744141,-0.6276907324790955,-0.08805903047323227,0.05300168693065643,0.051651448011398315,-0.005077362060546875
-0.02673831395804882,-0.637419581413269,-0.1787572056055069,0.07031145691871643,0.13447630405426025,0.0992199182510376
-0.3757287263870239,-0.7579606771469116,-0.1900593489408493,0.1312725991010666,0.0797085165977478,0.16176855564117432
-0.3108484447002411,-0.9221568703651428,-0.042549192905426025,0.15004339814186096,0.01920303702354431,0.06288379430770874
-0.044602375477552414,-0.6335911154747009,0.006532833445817232,0.13712161779403687,0.038899391889572144,0.06189990043640137
0.1336321383714676,-0.30057772994041443,0.07612070441246033,0.14379234611988068,0.04141080379486084,0.06875026226043701
0.36846429109573364,0.23838946223258972,0.19813518226146698,0.1118425652384758,0.027669280767440796,0.08084511756896973
0.6032438278198242,0.5324041843414307,0.2922852337360382,0.11379723250865936,0.04429745674133301,0.04702150821685791
0.5944012403488159,0.3147725462913513,0.3746011555194855,0.13750861585140228,0.02542400360107422,0.013762950897216797
0.3072698712348938,0.04883897677063942,0.3920449912548065,0.1587444245815277,0.026539772748947144,0.10595190525054932
-0.10158063471317291,-0.008920110762119293,0.42470404505729675,0.17366985976696014,-0.0005660057067871094,0.2239435315132141
-0.3616586923599243,0.061219606548547745,0.3972598612308502,0.13868150115013123,-0.02181375026702881,0.23925119638442993
-0.31321367621421814,0.1783726066350937,0.357857346534729,0.09524689614772797,-0.02482295036315918,0.18051648139953613
-0.06986895948648453,0.3666316568851471,0.3831939101219177,0.08144599199295044,-0.04558950662612915,0.12825632095336914
-0.07390859723091125,0.3228461742401123,0.5037361979484558,0.11388969421386719,-0.07423853874206543,0.11813139915466309
-0.23165714740753174,0.03603384643793106,0.7216086387634277,0.1315561980009079,-0.12231671810150146,0.07772374153137207
-0.35237249732017517,-0.09930939227342606,0.785153865814209,0.10972611606121063,-0.12140947580337524,0.03664875030517578
-0.3316405117511749,0.09498533606529236,0.5814459323883057,-0.03602612018585205,-0.10957157611846924,0.022615790367126465
-0.26287776231765747,0.14759333431720734,0.42393866181373596,-0.00808282196521759,-0.12998425960540771,3.17692756652832e-05
-0.0856262743473053,0.16815121471881866,0.35684362053871155,0.003126993775367737,-0.1671045422554016,-0.043515920639038086
0.22523218393325806,-0.09611361473798752,0.44755879044532776,0.004022166132926941,-0.23225286602973938,-0.17768055200576782
0.5957387685775757,-0.19233736395835876,0.24636496603488922,-0.0796496570110321,-0.18611836433410645,-0.2484663724899292
1.0008001327514648,-0.11327563226222992,-0.22760918736457825,-0.2138168215751648,-0.11068138480186462,-0.2442970871925354
1.2701233625411987,-0.2959742844104767,-0.5795994997024536,-0.20263072848320007,-0.06148746609687805,-0.2519015669822693
1.3690788745880127,-0.762829601764679,-0.6673747301101685,-0.13340485095977783,-0.13076475262641907,-0.2542259097099304
1.2676655054092407,-0.906284511089325,-0.6334244608879089,-0.14255599677562714,-0.23293638229370117,-0.13971060514450073
0.8026201128959656,-0.4745245575904846,-0.4264630079269409,-0.1387091875076294,-0.23782595992088318,0.03172171115875244
0.09757030755281448,-0.2410513460636139,-0.2194560021162033,-0.11576151847839355,-0.24441313743591309,0.09191715717315674
-0.2921513020992279,-0.4147894084453583,-0.2358788549900055,-0.1277889907360077,-0.12832006812095642,-0.03969627618789673
-0.22812801599502563,-0.49352872371673584,-0.4339064359664917,-0.15440067648887634,-0.005072176456451416,-0.1769542098045349
0.037549957633018494,-0.4956257939338684,-0.7457443475723267,-0.1954081952571869,0.06342074275016785,-0.21146416664123535
0.49276313185691833,-0.671950101852417,-0.9598994255065918,-0.19111230969429016,0.07245713472366333,-0.22183674573898315
0.6075029373168945,-0.6729452610015869,-1.0185062885284424,-0.14310401678085327,0.08091437816619873,-0.025984764099121094
0.2347075641155243,-0.4271545708179474,-0.9267631769180298,-0.1035630851984024,0.03624540567398071,0.22721678018569946
-0.21373914182186127,-0.3459089696407318,-0.6957229971885681,-0.041095465421676636,0.0035245418548583984,0.28243422508239746
-0.35261180996894836,-0.3538561761379242,-0.4763597249984741,0.004779815673828125,0.02115917205810547,0.1686837077140808
-0.2095455825328827,-0.5249619483947754,-0.3262452781200409,0.012333899736404419,0.04402780532836914,0.03252929449081421
0.003159560263156891,-0.770891547203064,-0.3479404151439667,-0.011821210384368896,0.09527081251144409,0.0024639368057250977
0.12907682359218597,-0.8725796937942505,-0.4547402560710907,-0.026749953627586365,0.13549846410751343,0.10207116603851318
-0.005369854625314474,-0.6862502694129944,-0.5145154595375061,-0.04297937452793121,0.1430378556251526,0.24486589431762695
-0.12207978963851929,-0.6426985859870911,-0.31371626257896423,-0.0015223771333694458,0.08567166328430176,0.234533429145813
0.02705683559179306,-0.7540131211280823,-0.21696071326732635,-0.0356379896402359,0.07409316301345825,0.13826823234558105
0.10233575105667114,-0.6289461255073547,-0.3920077681541443,-0.09675818681716919,0.12294971942901611,0.16888248920440674
0.0834764689207077,-0.2951209545135498,-0.6729819774627686,-0.1553996056318283,0.13794219493865967,0.21663618087768555
0.2328370064496994,-0.22230686247348785,-0.8267806768417358,-0.13377165794372559,0.11144042015075684,0.10574126243591309
0.508652925491333,-0.16339482367038727,-0.6647113561630249,-0.004844456911087036,0.06498599052429199,0.00707632303237915
0.4172512888908386,-0.02677903324365616,-0.4083108603954315,0.04994197189807892,0.005279064178466797,0.10384798049926758
0.14965632557868958,0.046650923788547516,-0.27480390667915344,-0.0029609650373458862,0.00765681266784668,0.1792738437652588
-0.07740578800439835,0.03637515753507614,-0.20313426852226257,-0.02088974416255951,0.008143901824951172,0.11706912517547607
-0.37367334961891174,0.12442383915185928,-0.157564178109169,-0.03754068911075592,-0.009202122688293457,0.0801885724067688
-0.5680773854255676,0.08466814458370209,-0.09161654114723206,-0.029460251331329346,-0.030078530311584473,-0.0390317440032959
-0.6265072822570801,-0.079839326441288,0.006677286233752966,0.04231913387775421,-0.02868485450744629,-0.16370409727096558
-0.6298373937606812,-0.15952107310295105,0.09520125389099121,0.07252193987369537,-0.05168962478637695,-0.19880986213684082
-0.7810747623443604,-0.11143629997968674,0.23847153782844543,0.06726731359958649,-0.08299648761749268,-0.107818603515625
-1.42106294631958,0.21019622683525085,0.5055720806121826,0.10973770916461945,-0.059640705585479736,0.019111037254333496
-1.8775728940963745,0.21177241206169128,0.670411229133606,0.13629740476608276,-0.02748820185661316,-0.09202772378921509
-1.4794921875,-0.12243951857089996,0.6258808970451355,0.09744273126125336,0.041275739669799805,-0.42693281173706055
-0.7159642577171326,-0.1936921775341034,0.3144806921482086,0.06178903579711914,0.09975039958953857,-0.5135539770126343
-0.031356364488601685,0.06329818814992905,0.0031362709123641253,0.06415355205535889,0.11436495184898376,-0.3953550457954407
0.46300119161605835,0.5435858368873596,-0.1440565139055252,0.1357371211051941,0.10941028594970703,-0.1912628412246704
0.5464978814125061,0.8007849454879761,-0.043659698218107224,0.23020851612091064,0.07141473889350891,-0.01048046350479126
0.12218252569437027,0.8221184611320496,0.27928242087364197,0.3020640015602112,0.02905970811843872,0.14231479167938232
-0.2803214192390442,0.6277046203613281,0.5062052011489868,0.293154776096344,0.032331109046936035,0.16550284624099731
-0.36353814601898193,0.5584524869918823,0.636907160282135,0.2555393874645233,0.08344471454620361,0.11280077695846558
-0.24933139979839325,0.587288498878479,0.6944920420646667,0.20455260574817657,0.09277093410491943,0.09327733516693115
-0.08160920441150665,0.6444553136825562,0.7211103439331055,0.15012745559215546,0.07788950204849243,0.10956603288650513
0.06843439489603043,0.6656547784805298,0.7785242795944214,0.11638642847537994,0.06361061334609985,0.1402149796485901
0.06536714732646942,0.6452045440673828,0.877685546875,0.11103644967079163,0.03778156638145447,0.1752474308013916
-0.12406615167856216,0.6803004741668701,0.9278810620307922,0.07227961719036102,0.031453609466552734,0.23384952545166016
-0.23640623688697815,0.8374298214912415,0.8918085694313049,0.025387540459632874,0.029889822006225586,0.21536260843276978
-0.04642678052186966,0.8931528925895691,0.8983819484710693,0.02131590247154236,-0.008149206638336182,0.07408744096755981
0.1604030728340149,0.8252047300338745,0.9437875747680664,0.03481079638004303,-0.04164135456085205,-0.016640782356262207
0.13639697432518005,0.7655271887779236,1.0287094116210938,0.03401949256658554,-0.07467609643936157,0.014567315578460693
-0.03515798598527908,0.6748367547988892,1.0604513883590698,0.015284962952136993,-0.08535757660865784,0.043757617473602295
-0.12480612099170685,0.617196798324585,1.057636022567749,-0.02317178249359131,-0.10741591453552246,-0.0034326910972595215
-0.08255773037672043,0.6671640872955322,0.9148750901222229,-0.08274757862091064,-0.11281204223632812,-0.030136525630950928
0.1424872875213623,0.532604455947876,0.5883800387382507,-0.17759983241558075,-0.10311871767044067,-0.12087106704711914
0.3453424274921417,0.3983701765537262,0.23317749798297882,-0.22509247064590454,-0.10371387004852295,-0.14083510637283325
0.42762282490730286,0.149715855717659,0.0396844819188118,-0.2005171775817871,-0.14824816584587097,-0.16512525081634521
0.5298047661781311,-0.23046287894248962,-0.01320805586874485,-0.12541894614696503,-0.17236816883087158,-0.24685001373291016
0.5584802627563477,-0.4825752079486847,-0.06114900857210159,-0.06162860989570618,-0.1345510482788086,-0.26536041498184204
0.7257590889930725,-0.6000308990478516,-0.15666869282722473,-0.08027590811252594,-0.11927521228790283,-0.24177902936935425
0.8414395451545715,-0.4964565634727478,-0.26262789964675903,-0.2047864943742752,-0.15795135498046875,-0.12452572584152222
0.561434268951416,-0.14453989267349243,-0.17443005740642548,-0.2307504117488861,-0.15331369638442993,0.0004367828369140625
0.03233285993337631,-0.389510840177536,-0.0701427012681961,-0.17121943831443787,-0.1468546986579895,-0.04061532020568848
-0.2407962828874588,-1.0090731382369995,-0.031342580914497375,-0.1102665513753891,-0.07061466574668884,-0.23966866731643677
0.017115488648414612,-1.2243610620498657,-0.3366416394710541,-0.15826906263828278,0.04085659980773926,-0.3403327465057373
0.5515713095664978,-1.0600898265838623,-0.7068626880645752,-0.2324974238872528,0.10759696364402771,-0.25323420763015747
0.9062435626983643,-0.7900078892707825,-0.9814205765724182,-0.25223273038864136,0.12415248155593872,-0.07504934072494507
0.5964076519012451,-0.6251035332679749,-1.0652623176574707,-0.213706374168396,0.07001113891601562,0.1603398323059082
-0.2674180269241333,-0.47233954071998596,-0.8322764039039612,-0.10351912677288055,-0.026664406061172485,0.2864784002304077
-0.7898216247558594,-0.5489408373832703,-0.5877249836921692,0.007633596658706665,-0.06396499276161194,0.16495847702026367
-0.6796531677246094,-0.7304781079292297,-0.4333658218383789,0.03676337003707886,-0.01287737488746643,-0.10292524099349976
-0.11424259841442108,-0.8026535511016846,-0.5597668886184692,-0.03441396355628967,0.05386188626289368,-0.2243073582649231
0.36835405230522156,-0.7541860938072205,-0.7375675439834595,-0.07074287533760071,0.10512664914131165,-0.16325652599334717
0.47213202714920044,-0.712493896484375,-0.8221717476844788,-0.009145662188529968,0.09216976165771484,0.024170279502868652
0.4277511537075043,-0.7273320555686951,-0.696856677532196,0.08390247821807861,0.06189286708831787,0.13162481784820557
0.3670744001865387,-0.6716069579124451,-0.5505552291870117,0.14442592859268188,0.02781015634536743,0.22312766313552856
0.383380264043808,-0.4002974033355713,-0.48993632197380066,0.09023341536521912,0.047259628772735596,0.2668536305427551
0.48283323645591736,-0.15998393297195435,-0.43484795093536377,0.08760254085063934,0.04481762647628784,0.2281244993209839
0.5858771204948425,0.04798214137554169,-0.2631676197052002,0.11593054234981537,0.0492822527885437,0.19644403457641602
0.5494754910469055,0.1801844835281372,-0.0754002258181572,0.10670247673988342,0.03443741798400879,0.1980474591255188
0.4025799036026001,0.31243249773979187,0.13411575555801392,0.09909965097904205,0.04884970188140869,0.18707329034805298
0.1445213109254837,0.40162578225135803,0.3312479853630066,0.09891779720783234,0.050408363342285156,0.1432601809501648
-0.08275297284126282,0.34708237648010254,0.4150611162185669,0.06810063123703003,0.06449806690216064,0.0623173713684082
-0.08152421563863754,0.31736674904823303,0.335765540599823,-0.008402332663536072,0.09268271923065186,-0.01818317174911499
0.05606132373213768,0.28180739283561707,0.2916886508464813,-0.00350034236907959,0.09128612279891968,-0.08222240209579468
0.019055334851145744,0.3211442530155182,0.34551823139190674,0.0727173238992691,0.06635373830795288,-0.07793921232223511
-0.24922649562358856,0.5057292580604553,0.3884236514568329,0.09909237921237946,0.059890031814575195,-0.004258573055267334
-0.5147775411605835,0.4960760176181793,0.3469085395336151,0.09022827446460724,0.0766940712928772,0.0035263895988464355
-0.5606804490089417,0.4403953552246094,0.24635696411132812,0.01778090000152588,0.021072864532470703,-0.027499914169311523
-0.8342406153678894,0.9402180910110474,0.31543785333633423,0.035967499017715454,0.04983031749725342,0.0561368465423584
-1.3394474983215332,1.0247215032577515,0.5038853883743286,0.14847981929779053,0.05026829242706299,0.022348225116729736
-1.4103121757507324,0.6884759068489075,0.5607259273529053,0.20050430297851562,0.11444032192230225,-0.2538207173347473
-0.8219412565231323,0.36630699038505554,0.34997445344924927,0.10754549503326416,0.16930651664733887,-0.4486536979675293
-0.11918482184410095,0.48283684253692627,0.12751497328281403,0.023516252636909485,0.15328708291053772,-0.36593306064605713
0.15889300405979156,0.6877909898757935,0.024359675124287605,0.035668060183525085,0.1266878843307495,-0.139329731464386
-0.1405935287475586,0.7369280457496643,0.21437522768974304,0.12781214714050293,0.07259300351142883,0.08708202838897705
-0.5916405916213989,0.6816695332527161,0.4654935598373413,0.21250589191913605,0.023005515336990356,0.16019827127456665
-0.7232633233070374,0.7400052547454834,0.5906168818473816,0.18228678405284882,0.07913503050804138,0.10370099544525146
-0.6019780039787292,0.7586647868156433,0.5677114725112915,0.09457297623157501,0.11594164371490479,0.02711576223373413
-0.4455187916755676,0.6757928729057312,0.4032582640647888,-0.007233038544654846,0.1530001163482666,0.026973485946655273
-0.3734488785266876,0.5384376049041748,0.32650333642959595,-0.04151330888271332,0.1314891278743744,0.09016638994216919
-0.3817998468875885,0.37699276208877563,0.3724128305912018,-0.007679745554924011,0.07167595624923706,0.14833855628967285
-0.43875229358673096,0.31664934754371643,0.41954004764556885,-0.00490628182888031,0.04458698630332947,0.18728435039520264
-0.6504433155059814,0.4409903883934021,0.45195186138153076,-0.032942235469818115,0.018450379371643066,0.2627459168434143
-0.7982953786849976,0.5743950605392456,0.4888526201248169,-0.035743117332458496,-0.019492685794830322,0.25353074073791504
-0.8653290271759033,0.887084424495697,0.5960611701011658,0.0345330536365509,-0.04948997497558594,0.22371065616607666
-0.878363311290741,1.0418742895126343,0.8480473160743713,0.12629471719264984,-0.10850927233695984,0.14907217025756836
-1.0234931707382202,1.05099356174469,1.3209266662597656,0.20964036881923676,-0.17109015583992004,0.12820398807525635
-1.0767531394958496,0.6237844228744507,1.5566864013671875,0.09901896864175797,-0.1871001124382019,-0.015146791934967041
-1.1543046236038208,0.33940473198890686,1.278864860534668,-0.08877366781234741,-0.0883527398109436,-0.07292604446411133
-0.8855760097503662,0.27223676443099976,0.6790348291397095,-0.24344900250434875,-0.04255998134613037,-0.1718338131904602
-0.32259896397590637,0.10322266072034836,0.30046069622039795,-0.23742079734802246,-0.08468353748321533,-0.30839216709136963
0.16212089359760284,-0.23008623719215393,0.19738984107971191,-0.14615795016288757,-0.20275461673736572,-0.3854519724845886
0.2679350972175598,-0.2613161504268646,0.07740655541419983,-0.10748468339443207,-0.21430817246437073,-0.271628201007843
0.11560321599245071,-0.2519545257091522,0.0510140061378479,-0.08676489442586899,-0.2343883514404297,-0.17071378231048584
0.08272362500429153,-0.4516351521015167,-0.015592176467180252,-0.0823991447687149,-0.24438652396202087,-0.20407110452651978
0.22075659036636353,-0.680512547492981,-0.1484176069498062,-0.15182051062583923,-0.21314629912376404,-0.24013513326644897
0.1736961156129837,-0.41660624742507935,-0.14219257235527039,-0.18740037083625793,-0.2659989297389984,-0.12572377920150757
0.03984387591481209,-0.12686516344547272,-0.006215875037014484,-0.15825492143630981,-0.2274237424135208,-0.1808488368988037
-0.047367069870233536,-0.2212848961353302,-0.03494337573647499,-0.17651087045669556,-0.13388249278068542,-0.3681872487068176
0.2907726466655731,-0.5092198848724365,-0.31781652569770813,-0.25132375955581665,0.004224836826324463,-0.49297523498535156
0.8331649303436279,-0.6669347286224365,-0.6363885402679443,-0.2734154462814331,0.09766441583633423,-0.42606282234191895
1.0488654375076294,-0.40498435497283936,-0.6877278685569763,-0.20761626958847046,0.10557898879051208,-0.10632830858230591
0.8771383762359619,-0.1393657624721527,-0.6843305230140686,-0.19154544174671173,0.08232307434082031,0.14466756582260132
0.4351973831653595,-0.19469217956066132,-0.6793660521507263,-0.2159770429134369,0.08468747138977051,0.2053787112236023
-0.2015841156244278,-0.49759116768836975,-0.6231644153594971,-0.19948597252368927,0.07746422290802002,0.16737836599349976
-0.6486965417861938,-0.7491227984428406,-0.4524906575679779,-0.08867920190095901,0.066138356924057,0.007819116115570068
-0.4620910584926605,-1.012387990951538,-0.2835889160633087,-0.02213091403245926,0.04450887441635132,-0.21650224924087524
0.09768612682819366,-0.9524180889129639,-0.37749364972114563,-0.061546288430690765,0.09718242287635803,-0.2876707911491394
0.5427829027175903,-0.7532849907875061,-0.5851379632949829,-0.12135997414588928,0.1227375864982605,-0.14952635765075684
0.7264201641082764,-0.7262498736381531,-0.7972355484962463,-0.09915247559547424,0.13784360885620117,-0.004605412483215332
0.7245047688484192,-0.9087768793106079,-0.9386192560195923,-0.06603869795799255,0.12599679827690125,0.08387529850006104
0.5427149534225464,-1.072812557220459,-0.9709610342979431,-0.0008734315633773804,0.09558600187301636,0.17155933380126953
0.38203164935112,-1.1220979690551758,-0.8897552490234375,0.0691114068031311,0.04371237754821777,0.20896810293197632
0.42193031311035156,-0.9405717849731445,-0.738818347454071,0.1398649364709854,-0.0034262239933013916,0.2005925178527832
0.5893117189407349,-0.5719488263130188,-0.6189350485801697,0.12185947597026825,-0.0013818740844726562,0.19149821996688843
0.8108135461807251,-0.33995506167411804,-0.531741201877594,0.09345722198486328,0.017932265996932983,0.1567050814628601
0.8730303645133972,-0.23910608887672424,-0.4355945289134979,0.08756756782531738,0.0330924391746521,0.14127498865127563
0.7705174088478088,-0.1724041998386383,-0.3182820975780487,0.06270208954811096,0.04555812478065491,0.15786606073379517
0.4799276292324066,-0.213502898812294,-0.10246831923723221,0.08165374398231506,0.05179315805435181,0.13994938135147095
0.11301002651453018,-0.15650323033332825,0.037700459361076355,0.10461089015007019,0.05878046154975891,0.09394180774688721
0.07063125818967819,0.11411862820386887,0.07419939339160919,0.05784124135971069,0.08991384506225586,-7.37905502319336e-05
0.2591266930103302,0.37403562664985657,0.10479839891195297,0.0725630670785904,0.11922430992126465,-0.12481021881103516
0.28956419229507446,0.39000678062438965,0.12818743288516998,0.09298492968082428,0.13591766357421875,-0.12977635860443115
0.019292859360575676,0.4958736300468445,0.2059018462896347,0.08590225875377655,0.11554768681526184,0.006711423397064209
-0.6558921337127686,0.7013896107673645,0.4389813542366028,0.11829376220703125,0.1602228581905365,0.12014520168304443
-1.407703161239624,0.6818669438362122,0.5053316950798035,0.1469583809375763,0.18422359228134155,0.06759297847747803
-1.4164761304855347,0.33665212988853455,0.2486066222190857,0.052491649985313416,0.21881020069122314,-0.22743308544158936
-0.7397710680961609,-0.0871235653758049,-0.18989253044128418,-0.015299469232559204,0.21252459287643433,-0.4449339509010315
-0.08759443461894989,0.016788000240921974,-0.42211228609085083,0.024582594633102417,0.12103027105331421,-0.32847797870635986
0.2481822669506073,0.4965015649795532,-0.3840111792087555,0.15525850653648376,0.04002946615219116,-0.0902816653251648
0.1121867224574089,0.7285147905349731,-0.10057061165571213,0.23884662985801697,-0.02741175889968872,0.09900116920471191
-0.38922953605651855,0.6109724640846252,0.34329119324684143,0.3226964473724365,-0.07339558005332947,0.16390985250473022
-0.7023698091506958,0.5230814218521118,0.6514001488685608,0.3037082850933075,-0.039509356021881104,0.1004909873008728
-0.5350238084793091,0.5738405585289001,0.7138396501541138,0.16016043722629547,0.019842147827148438,-0.041957855224609375
-0.1826677918434143,0.5702692270278931,0.524246871471405,-0.001875847578048706,0.0808146595954895,-0.09715086221694946
-0.024378951638936996,0.46017202734947205,0.35661154985427856,-0.04659346491098404,0.08565574884414673,-0.0309450626373291
-0.07655581086874008,0.3220471739768982,0.3645533621311188,0.0014066174626350403,0.045629650354385376,0.09740734100341797
-0.26483696699142456,0.13853761553764343,0.5743842720985413,0.06345661729574203,-0.006327986717224121,0.18023991584777832
-0.4010392129421234,0.12485606968402863,0.6559348702430725,0.04545239359140396,-0.014640778303146362,0.2209450602531433
-0.47053900361061096,0.2953967750072479,0.5987614989280701,-0.0493011400103569,-0.012745916843414307,0.23816949129104614
-0.4457332193851471,0.2602023184299469,0.5143253803253174,-0.10521619021892548,-0.05359911918640137,0.1503307819366455
-0.3508804142475128,0.028270721435546875,0.447714239358902,-0.11295397579669952,-0.07319724559783936,0.035772740840911865
-0.33148860931396484,-0.21555405855178833,0.4207823872566223,-0.09953052550554276,-0.08273011445999146,-0.0043007731437683105
-0.38130342960357666,-0.34805506467819214,0.3493901491165161,-0.12549051642417908,-0.10947495698928833,3.224611282348633e-05
-0.28011810779571533,-0.3697110116481781,0.2618037462234497,-0.14317777752876282,-0.14147013425827026,-0.012368977069854736
-0.0875914990901947,-0.22063344717025757,0.10486268252134323,-0.17190483212471008,-0.15719902515411377,-0.036717891693115234
0.10104150325059891,-0.23312945663928986,-0.2184579223394394,-0.25887346267700195,-0.13385748863220215,-0.11087167263031006
0.3375524878501892,-0.3885183036327362,-0.5078850984573364,-0.2700578570365906,-0.1162976622581482,-0.18898826837539673
0.4375724196434021,-0.6110994815826416,-0.6185808181762695,-0.18876558542251587,-0.11902332305908203,-0.20701420307159424
0.35491514205932617,-0.6923832297325134,-0.5946561694145203,-0.07735045254230499,-0.1317349672317505,-0.18186962604522705
0.3657267689704895,-0.7409762740135193,-0.5067154169082642,-0.022875547409057617,-0.14439058303833008,-0.1940287947654724
0.5230781435966492,-0.998851478099823,-0.47924384474754333,-0.017650127410888672,-0.11752200126647949,-0.25496816635131836
0.5021264553070068,-0.8203256726264954,-0.49717146158218384,-0.09246402978897095,-0.1433791220188141,-0.13159704208374023
0.22335991263389587,-0.29543179273605347,-0.3860492706298828,-0.09927096962928772,-0.14940598607063293,-0.008979201316833496
0.06970799714326859,-0.3921024799346924,-0.12261459231376648,0.026264354586601257,-0.10714954137802124,-0.20879864692687988
0.2447754144668579,-0.6689180135726929,-0.07260239124298096,0.060897499322891235,-0.012299060821533203,-0.4413071274757385
0.6337657570838928,-0.7725030183792114,-0.40561947226524353,-0.06062312424182892,0.1155422031879425,-0.47235673666000366
1.0354981422424316,-0.9008573293685913,-0.6178456544876099,-0.02074246108531952,0.1532803177833557,-0.3761412501335144
1.2338221073150635,-0.8659210801124573,-0.5604187250137329,0.08848229050636292,0.12312626838684082,-0.12288165092468262
1.032434344291687,-0.6524969339370728,-0.3095419704914093,0.14743679761886597,0.09014207124710083,0.15264111757278442
0.4767668843269348,-0.3817158043384552,-0.021981552243232727,0.13528671860694885,0.05543023347854614,0.32804471254348755
-0.07682258635759354,-0.13250140845775604,0.20777997374534607,0.14443179965019226,0.04372403025627136,0.31038910150527954
-0.24065768718719482,-0.06892051547765732,0.4778982102870941,0.2066139578819275,0.05573475360870361,0.0641406774520874
0.03579648956656456,-0.130970299243927,0.7222530841827393,0.241382896900177,0.08143877983093262,-0.18170160055160522
0.43127188086509705,-0.16884693503379822,0.6620654463768005,0.14449542760849,0.15550723671913147,-0.2563842535018921
0.6326949596405029,-0.09366712719202042,0.42061761021614075,0.038375407457351685,0.23152169585227966,-0.1456201672554016
0.6252776980400085,0.0026787559036165476,0.2780648171901703,0.0656733512878418,0.22823181748390198,-0.007431328296661377
0.6199740767478943,0.021705705672502518,0.2524135112762451,0.11423265933990479,0.20192363858222961,0.042696237564086914
0.6594210863113403,0.09368819743394852,0.27542436122894287,0.1517479121685028,0.1895933747291565,0.04326385259628296
0.7142035961151123,0.22622714936733246,0.2153196632862091,0.09891468286514282,0.1924392580986023,0.06684589385986328
0.7042649984359741,0.2893398404121399,0.1472090631723404,0.07191109657287598,0.21116837859153748,0.09428590536117554
0.6593532562255859,0.3453599512577057,0.05586422234773636,0.040669262409210205,0.19212743639945984,0.13793134689331055
0.5479400753974915,0.44019532203674316,0.17056767642498016,0.09916600584983826,0.13400742411613464,0.16090518236160278
0.3674294352531433,0.5142693519592285,0.47792330384254456,0.1946650743484497,0.06090828776359558,0.16458642482757568
0.29413115978240967,0.5343921780586243,0.6060735583305359,0.1314508318901062,0.060970425605773926,0.10878616571426392
0.20359650254249573,0.6905096173286438,0.5942893624305725,0.035735249519348145,0.10046249628067017,0.05954241752624512
0.006839687004685402,0.793022096157074,0.541222095489502,0.008889317512512207,0.11501407623291016,0.043006062507629395
-0.03278803825378418,0.6714779734611511,0.5361657738685608,0.03673809766769409,0.12209749221801758,-0.09747564792633057
0.17160935699939728,0.4576999843120575,0.5316920876502991,0.07137244939804077,0.11777985095977783,-0.2242336869239807
0.4011233448982239,0.42847999930381775,0.47964492440223694,0.042666733264923096,0.09394586086273193,-0.18971037864685059
0.3546927869319916,0.8581857085227966,0.5247507691383362,0.015653520822525024,-0.010747075080871582,-3.421306610107422e-05
-0.16665810346603394,1.2433291673660278,0.877004861831665,0.12339118123054504,-0.032675087451934814,0.12316757440567017
-0.8502971529960632,1.3133106231689453,1.4672136306762695,0.2747340202331543,-0.048097044229507446,0.041762471199035645
-1.2700480222702026,1.2740347385406494,1.7493046522140503,0.29096001386642456,0.09963130950927734,-0.21352845430374146
-1.0240505933761597,1.0343464612960815,1.6178975105285645,0.17348366975784302,0.18064460158348083,-0.49621784687042236
-0.2215365618467331,0.6588011384010315,1.1871751546859741,0.062482088804244995,0.20111918449401855,-0.6464522480964661
0.5202494859695435,0.5725301504135132,0.7888330817222595,0.02815854549407959,0.20788058638572693,-0.4909248948097229
0.6827734708786011,0.6337194442749023,0.7297857999801636,0.13537290692329407,0.12299415469169617,-0.10205745697021484
0.31479692459106445,0.6871686577796936,1.0150285959243774,0.26123350858688354,0.0369759202003479,0.1728750467300415
-0.0951414629817009,0.8017276525497437,1.3769863843917847,0.3116081953048706,0.013996481895446777,0.273939311504364
-0.22213852405548096,0.9281654357910156,1.5162864923477173,0.23361240327358246,0.08006611466407776,0.1724134087562561
-0.2061152309179306,1.009975790977478,1.5024014711380005,0.134975865483284,0.0930861234664917,0.045115113258361816
-0.06941481679677963,0.8155514597892761,1.529155969619751,0.13042184710502625,0.0826418399810791,-0.07517844438552856
0.09877560287714005,0.6089153289794922,1.6422697305679321,0.1777682602405548,0.062209755182266235,-0.1363619565963745
0.270852267742157,0.5962632298469543,1.8425215482711792,0.20735132694244385,0.04767733812332153,-0.11990857124328613
0.2508414089679718,0.6903746724128723,2.0443973541259766,0.20482315123081207,0.0618288516998291,-0.050902485847473145
0.23176616430282593,0.5417341589927673,2.091803550720215,0.17851559817790985,0.10371440649032593,-0.09561043977737427
0.3695504069328308,0.5395218729972839,1.9340291023254395,0.08203130960464478,0.1855067014694214,-0.16485977172851562
0.5810258984565735,0.5032123327255249,1.6377166509628296,0.006133511662483215,0.22321444749832153,-0.1923753023147583
0.520186722278595,0.36692431569099426,1.3925408124923706,0.022352173924446106,0.23549747467041016,-0.1257152557373047
0.3156801760196686,0.35717806220054626,1.3004956245422363,0.052154481410980225,0.14987912774085999,0.024648189544677734
0.2772417366504669,0.22684332728385925,1.2814728021621704,0.0796917974948883,0.10098901391029358,0.04905283451080322
0.2605862319469452,0.16544893383979797,1.2901734113693237,0.10069151222705841,0.09069296717643738,0.009766042232513428
0.08423927426338196,0.24195381999015808,1.2461258172988892,0.09529000520706177,0.11816340684890747,-0.006346285343170166
0.3143981993198395,0.30504491925239563,1.0569236278533936,0.03325769305229187,0.13541710376739502,-0.23242121934890747
0.9000043869018555,0.26744019985198975,0.8647279143333435,0.024226143956184387,0.09961205720901489,-0.4181605577468872
1.216665506362915,-0.056142039597034454,0.8500935435295105,0.13566112518310547,0.04018250107765198,-0.39528989791870117
1.027778148651123,0.20328669250011444,1.0863986015319824,0.19693303108215332,-0.05443659424781799,-0.11789971590042114
0.7625468373298645,0.8050535321235657,1.4405829906463623,0.2381029725074768,-0.06354066729545593,-0.006859540939331055
0.7638574838638306,1.1974210739135742,1.6494896411895752,0.13565045595169067,0.038542240858078,-0.22886329889297485
1.354353666305542,1.0013819932937622,1.4083213806152344,-0.05225104093551636,0.16800987720489502,-0.5193073749542236
1.9726457595825195,0.42715251445770264,1.0037354230880737,-0.021539747714996338,0.3156243860721588,-0.6033558249473572
2.0308616161346436,0.2223851978778839,0.7682284712791443,0.02068677544593811,0.3072655498981476,-0.3260732889175415
1.7261781692504883,0.43775415420532227,0.6670553088188171,-0.02061489224433899,0.2641705870628357,-0.01156461238861084
1.444602608680725,0.8539272546768188,0.48717570304870605,-0.21885427832603455,0.24400413036346436,0.11682873964309692
1.2869752645492554,0.6305754780769348,0.13843972980976105,-0.22880223393440247,0.3312464952468872,-0.04183834791183472
0.8988789319992065,0.5278149247169495,0.1582356095314026,-0.03337696194648743,0.3150476813316345,-0.0308876633644104
0.526069700717926,0.8253017067909241,0.6406508088111877,0.15090160071849823,0.14178568124771118,0.028380513191223145
0.722238302230835,1.0840266942977905,1.098803162574768,0.13153785467147827,0.09122073650360107,-0.10508811473846436
1.0544987916946411,1.1583582162857056,1.18650221824646,0.01976838707923889,0.1606992483139038,-0.22613239288330078
1.1174086332321167,1.2464021444320679,1.0200669765472412,-0.0844852477312088,0.21528279781341553,-0.1399495005607605
1.0641906261444092,1.4506064653396606,1.0024768114089966,-0.08054476976394653,0.17715394496917725,-0.05601048469543457
1.0730245113372803,1.6795470714569092,1.0327794551849365,-0.031659916043281555,0.1157999038696289,-0.04961460828781128
1.283982276916504,1.8525296449661255,1.0250670909881592,-0.06413953006267548,0.10472941398620605,-0.12355369329452515
1.49668550491333,1.776462435722351,0.9845842719078064,-0.05850999057292938,0.11158323287963867,-0.17034310102462769
1.4886656999588013,1.7006112337112427,1.0282354354858398,-0.021449029445648193,0.10210943222045898,-0.0913994312286377
1.2121832370758057,1.691182255744934,1.0148179531097412,-0.01869596540927887,0.10771507024765015,0.045880913734436035
0.6877450346946716,1.4077634811401367,0.8396944999694824,-0.07757784426212311,0.16298288106918335,0.13573700189590454
-0.0540509857237339,0.9112098813056946,0.5908008217811584,-0.00044089555740356445,0.1956591010093689,0.20745337009429932
-0.33000579476356506,0.5148229002952576,0.4983767569065094,0.093514084815979,0.1618729829788208,0.17740797996520996
-0.05628880485892296,0.6485975980758667,0.7131850719451904,0.187164306640625,0.10325241088867188,0.07650822401046753
0.2598850429058075,1.5100347995758057,1.231062412261963,0.194017231464386,0.03574281930923462,0.10640919208526611
0.3488513231277466,2.295897960662842,1.6631207466125488,0.1623941957950592,0.026988506317138672,0.09603714942932129
0.18688054382801056,2.3026986122131348,1.734919786453247,0.10105738788843155,0.1369946002960205,-0.07858580350875854
0.06671418994665146,2.2063727378845215,1.589721441268921,-0.005181059241294861,0.21166729927062988,-0.23328685760498047
0.4055948555469513,2.04720401763916,1.259483814239502,-0.15006022155284882,0.2580772638320923,-0.47090786695480347
0.7325822710990906,1.6584240198135376,0.6866952776908875,-0.26854217052459717,0.3267555236816406,-0.5421645641326904
0.7662636637687683,1.0846261978149414,0.6677495837211609,-0.10485371947288513,0.18064260482788086,-0.3637251853942871
0.20131289958953857,1.0643256902694702,1.5752660036087036,0.13320708274841309,0.032336533069610596,-0.08138042688369751
-0.6038681864738464,2.046761989593506,1.8679403066635132,0.07443410158157349,0.14067238569259644,0.1267746090888977
-0.7592324614524841,2.759774684906006,1.3318960666656494,-0.10959799587726593,0.33720409870147705,-0.10384976863861084
-0.3331752419471741,2.6344289779663086,0.8504582047462463,-0.03046754002571106,0.35791701078414917,-0.45879054069519043
-0.28979048132896423,2.0992469787597656,0.8985614776611328,0.14362406730651855,0.22470331192016602,-0.4694247245788574
-0.6346503496170044,1.6877442598342896,1.3671917915344238,0.24473261833190918,0.08753371238708496,-0.26032209396362305
-0.7596747875213623,1.7616175413131714,1.654499888420105,0.11889410018920898,0.09631907939910889,-0.12424147129058838
-0.7476287484169006,1.8712356090545654,1.6602563858032227,-0.007896006107330322,0.159002423286438,-0.11055535078048706
-0.7659558057785034,1.8176615238189697,1.6221323013305664,-0.05667942762374878,0.15344494581222534,-0.08677917718887329
-0.7767988443374634,1.7947371006011963,1.7960796356201172,0.03591930866241455,0.1197199821472168,-0.029648542404174805
-0.7413792610168457,1.7128459215164185,2.1650309562683105,0.13249358534812927,0.0725049376487732,0.02347773313522339
-0.6831533908843994,1.605481743812561,2.562281608581543,0.11540141701698303,0.048773229122161865,0.02611476182937622
-0.5597538352012634,1.600416898727417,2.6705482006073,0.04025271534919739,0.06692248582839966,0.029287219047546387
-0.3097834289073944,1.6470558643341064,2.622291326522827,-0.013556212186813354,0.08900707960128784,0.01571333408355713
-0.1529073417186737,1.3614381551742554,2.745836019515991,0.037986427545547485,0.045702993869781494,0.009988009929656982
-0.25635218620300293,0.9041974544525146,3.036255121231079,0.12036830186843872,-0.002383589744567871,0.08293777704238892
-0.34589430689811707,0.6759114861488342,3.1207399368286133,0.11405017971992493,0.01708686351776123,0.11952686309814453
-0.20649562776088715,0.71021568775177,3.0678749084472656,0.07190755009651184,0.005107402801513672,0.057578444480895996
-0.027193106710910797,0.7864074110984802,2.8654720783233643,0.03630825877189636,-0.0009382963180541992,0.038383424282073975
0.12545421719551086,0.8870880603790283,2.5190722942352295,-0.042572081089019775,-0.024070382118225098,0.06819093227386475
0.1649029403924942,0.9139991402626038,2.1340479850769043,-0.10333900153636932,-0.03689455986022949,0.10542356967926025
0.0386972613632679,1.0346612930297852,1.878464937210083,-0.10445503890514374,-0.09151202440261841,0.1456887125968933
0.0675906240940094,0.9968255162239075,1.7352064847946167,-0.0850832462310791,-0.11561453342437744,0.02891075611114502
0.2585497796535492,0.732170820236206,1.4272868633270264,-0.16086943447589874,-0.05944699048995972,-0.09206688404083252
0.26024407148361206,0.09472496062517166,0.7840561866760254,-0.30915069580078125,0.006658196449279785,-0.08563745021820068
-0.10351939499378204,0.03894313797354698,0.3415469825267792,-0.3174373507499695,-0.07531887292861938,0.10140925645828247
-0.24467125535011292,0.6260071396827698,0.18737661838531494,-0.23165351152420044,-0.18772131204605103,0.13069427013397217
0.06918533146381378,1.1013402938842773,0.05701340734958649,-0.22615166008472443,-0.186476469039917,-0.04709285497665405
0.17397545278072357,1.1731075048446655,-0.3282023072242737,-0.32373911142349243,-0.10068684816360474,-0.12625157833099365
-0.13322345912456512,0.6731730103492737,-0.485390305519104,-0.30051398277282715,-0.11622500419616699,-0.11779546737670898
-0.5068063139915466,0.11426714807748795,-0.3616875410079956,-0.1630486100912094,-0.13951635360717773,-0.1497907042503357
-0.6021637320518494,-0.1575966626405716,-0.010354738682508469,-0.08819010853767395,-0.1535567045211792,-0.17835968732833862
-0.471272736787796,-0.6485612988471985,0.21090726554393768,-0.13089296221733093,-0.12079733610153198,-0.23608583211898804
-0.362591952085495,-1.1303001642227173,0.0739261656999588,-0.26644662022590637,-0.02091151475906372,-0.1519652009010315
-0.3623485267162323,-1.2146813869476318,-0.20574915409088135,-0.36360397934913635,0.012286007404327393,0.026935219764709473
-0.34284868836402893,-0.8817634582519531,-0.35937583446502686,-0.3323048949241638,-0.020955801010131836,0.1430758237838745
-0.31752392649650574,-0.2796267569065094,-0.29174378514289856,-0.25001776218414307,-0.061962008476257324,0.1958315372467041
-0.2377915382385254,-0.10964622348546982,0.009771338663995266,-0.14588214457035065,-0.10308444499969482,0.13836145401000977
-0.09985669702291489,-0.5686390995979309,0.2532748579978943,-0.10436531901359558,-0.07400009036064148,-0.028600692749023438
0.049985021352767944,-0.9565389752388,0.1323564648628235,-0.15673106908798218,-0.014615386724472046,-0.04915076494216919
0.2042877972126007,-1.000407099723816,-0.26885995268821716,-0.2526436746120453,0.0635174810886383,0.018833637237548828
0.1310998797416687,-0.5958863496780396,-0.534108579158783,-0.20736061036586761,0.05981999635696411,0.1744329333305359
0.03753916174173355,-0.1749633550643921,-0.4587285816669464,-0.11560076475143433,-0.010998725891113281,0.23141330480575562
0.07826065272092819,-0.36166486144065857,-0.14529095590114594,-0.020573541522026062,-0.07622849941253662,0.1282033920288086
-0.04685164615511894,-0.6454291939735413,0.06965142488479614,-0.0013397932052612305,-0.06399106979370117,0.09093606472015381
-0.387745201587677,-0.6341092586517334,0.15700557827949524,-0.038466110825538635,-0.052272677421569824,0.19971519708633423
-0.6518481373786926,-0.3837740123271942,0.04795503616333008,-0.06694509088993073,-0.014927029609680176,0.24754679203033447
-0.7042865753173828,0.07552029192447662,-0.041544437408447266,-0.09171056747436523,0.010784059762954712,0.2101370096206665
-0.3822943866252899,0.1325574666261673,0.1420365869998932,-0.06688155233860016,-0.06402939558029175,-0.02693355083465576
-0.09942837804555893,-0.371302992105484,0.19679516553878784,-0.017830446362495422,-0.05532437562942505,-0.2141585350036621
-0.24891076982021332,-0.5202152729034424,0.15201598405838013,0.005468964576721191,0.001590132713317871,-0.08058273792266846
-0.41665783524513245,-0.22170092165470123,0.0016618254594504833,-0.03189888596534729,-0.009537756443023682,0.08936762809753418
-0.285829097032547,0.15073168277740479,-0.09877733886241913,-0.06265030801296234,0.002215355634689331,0.09702616930007935
0.01042685005813837,0.2342238873243332,-0.055239178240299225,-0.031332895159721375,-0.036215394735336304,-0.020713329315185547
0.1706399768590927,0.024068722501397133,-0.07983633130788803,-0.05667905509471893,-0.027741342782974243,-0.11481010913848877
0.0058105457574129105,-0.06264929473400116,-0.3000122010707855,-0.09067033231258392,-1.7315149307250977e-05,-0.04229944944381714
-0.12469923496246338,-0.013400987721979618,-0.41901350021362305,-0.09285083413124084,-0.05213797092437744,0.023047208786010742
-0.26143383979797363,0.029784824699163437,-0.23326146602630615,-0.01945914328098297,-0.10519158840179443,0.02035701274871826
-0.5823249220848083,0.22866083681583405,0.20669971406459808,0.0827847421169281,-0.10165911912918091,0.029386699199676514
-0.789364218711853,0.3396883010864258,0.45055657625198364,0.07433539628982544,-0.08149087429046631,-0.07329851388931274
-0.7526342868804932,0.2521551251411438,0.3824256360530853,-0.011340588331222534,0.005218803882598877,-0.2501503825187683
-0.46040353178977966,0.03769519180059433,0.10513631254434586,-0.09181438386440277,0.04473939538002014,-0.32906824350357056
-0.024481723085045815,0.02704276144504547,-0.18757033348083496,-0.1074579656124115,0.08382588624954224,-0.2975417375564575
0.17736825346946716,0.08670210838317871,-0.26377537846565247,-0.03172582387924194,0.06277430057525635,-0.16883403062820435
0.22046113014221191,-0.02994515188038349,-0.19940224289894104,0.07066743075847626,0.025452613830566406,-0.03672546148300171
0.16315674781799316,-0.14124946296215057,-0.1604088693857193,0.09727922081947327,0.03736242651939392,0.050604045391082764
0.10710951685905457,-0.07240356504917145,-0.20298641920089722,0.06879149377346039,0.05139946937561035,0.12094753980636597
0.07611459493637085,0.04018573462963104,-0.24221521615982056,0.04520845413208008,0.06145918369293213,0.14502638578414917
0.10182462632656097,0.09289981424808502,-0.21375375986099243,0.07251349091529846,0.044689565896987915,0.09957891702651978
0.19533981382846832,0.05836251378059387,-0.21483249962329865,0.04034094512462616,0.04550275206565857,0.053538620471954346
0.14980879426002502,-0.011403856799006462,-0.14889337122440338,0.05438262224197388,0.03637826442718506,0.08214569091796875
-0.06293831765651703,-0.10030590742826462,-0.10764271765947342,0.04817339777946472,-0.0036427080631256104,0.13662588596343994
-0.1415945440530777,-0.2746886909008026,-0.04003697633743286,0.04625147581100464,-0.05054962635040283,0.1303204894065857
0.02483588457107544,-0.48170435428619385,0.07635106891393661,0.0422181636095047,-0.07749807834625244,0.03775686025619507
0.2156793177127838,-0.5618723034858704,0.12418374419212341,0.06561525166034698,-0.08500969409942627,0.008781075477600098
0.3858903646469116,-0.40541693568229675,0.03874552622437477,0.03257477283477783,-0.06754618883132935,0.06378138065338135
0.5972655415534973,-0.5117396712303162,0.1924816071987152,0.10305902361869812,-0.0836789608001709,-0.005891680717468262
0.6723747849464417,-0.8817868232727051,0.30198338627815247,0.16221913695335388,-0.08487728238105774,-0.07347708940505981
0.3534127473831177,-0.7367711663246155,0.17837455868721008,0.10148826241493225,-0.03134480118751526,0.0957103967666626
0.19570882618427277,-0.39333054423332214,0.002306670183315873,0.04218417406082153,-0.06926214694976807,0.13953781127929688
0.3712712526321411,-0.2719452679157257,-0.08368547260761261,0.053703516721725464,-0.108136385679245,0.01554781198501587
0.4668993353843689,-0.225894495844841,0.028411049395799637,0.10750991106033325,-0.15038061141967773,-0.028065621852874756
0.48892995715141296,-0.30155888199806213,0.24032676219940186,0.10759693384170532,-0.16968214511871338,-0.0419083833694458
0.43744224309921265,-0.23372502624988556,0.39699921011924744,0.06278425455093384,-0.13323867321014404,-0.017623424530029297
0.3964692950248718,-0.11653614789247513,0.31897851824760437,-0.06542780995368958,-0.0632806122303009,-0.029532670974731445
0.36706772446632385,-0.14316748082637787,0.09457201510667801,-0.163205087184906,0.0332474410533905,-0.09684830904006958
0.39999228715896606,-0.3998262286186218,-0.14686289429664612,-0.17181414365768433,0.09105074405670166,-0.18364179134368896
0.5653888583183289,-0.8054854869842529,-0.3160054385662079,-0.11424797773361206,0.10033434629440308,-0.26587116718292236
0.4621424973011017,-0.8497442603111267,-0.4231598675251007,-0.1638014018535614,0.027531802654266357,-0.08226722478866577
-0.2365899384021759,-0.29031115770339966,-0.3267427086830139,-0.1680295467376709,-0.0023850202560424805,0.17581969499588013
-0.8985730409622192,0.045619018375873566,-0.22050929069519043,-0.19315886497497559,-0.038585126399993896,0.15950864553451538
-0.9209626913070679,0.01888369768857956,-0.30120348930358887,-0.21040666103363037,0.06599658727645874,-0.15455853939056396
-0.4084668755531311,-0.16973182559013367,-0.6608100533485413,-0.27084624767303467,0.14107191562652588,-0.35701727867126465
0.14718715846538544,-0.3890623450279236,-1.068341612815857,-0.24927851557731628,0.206836998462677,-0.3539106249809265
0.36306655406951904,-0.5902262926101685,-1.2023950815200806,-0.15288901329040527,0.17939192056655884,-0.18029451370239258
0.32575124502182007,-0.686707615852356,-1.1589715480804443,-0.08119934797286987,0.11734199523925781,0.06954312324523926
0.16267551481723785,-0.5897842049598694,-1.0406124591827393,-0.05339348316192627,0.09229928255081177,0.20659607648849487
-0.09473013877868652,-0.3229169249534607,-0.7991238832473755,-0.015460282564163208,0.07481670379638672,0.2797929644584656
-0.35365045070648193,-0.10113296657800674,-0.597963809967041,0.018057525157928467,0.09970748424530029,0.25248420238494873
-0.3313281238079071,-0.23154333233833313,-0.5680962800979614,0.024494588375091553,0.16815918684005737,0.07194101810455322
-0.2055169939994812,-0.4440252184867859,-0.6583449840545654,0.025496363639831543,0.20065855979919434,-0.0233190655708313
-0.23370523750782013,-0.44837427139282227,-0.8006561994552612,0.03517580032348633,0.22013366222381592,0.03891628980636597
-0.302876353263855,-0.41352152824401855,-0.8495256900787354,0.06299060583114624,0.19479918479919434,0.12218707799911499
-0.3295537233352661,-0.3148764669895172,-0.7854329943656921,0.10008847713470459,0.15121585130691528,0.18529784679412842
-0.30366548895835876,-0.27456972002983093,-0.7227611541748047,0.11504948139190674,0.12059241533279419,0.17856109142303467
-0.21904172003269196,-0.20264947414398193,-0.6374049186706543,0.14208677411079407,0.09481239318847656,0.13507604598999023
-0.19010837376117706,-0.03334176540374756,-0.5099539756774902,0.17915862798690796,0.03817462921142578,0.14929944276809692
-0.21264246106147766,0.15333271026611328,-0.39896562695503235,0.1599549651145935,0.009885072708129883,0.1790793538093567
-0.2328183501958847,0.21171310544013977,-0.27194952964782715,0.13922607898712158,-0.0059035420417785645,0.15393990278244019
-0.31119951605796814,0.2084553986787796,-0.12040751427412033,0.14517372846603394,-0.03587937355041504,0.10473853349685669
-0.35938286781311035,0.18682782351970673,0.007077529560774565,0.149438738822937,-0.06709504127502441,0.017767906188964844
-0.37004438042640686,0.3933145999908447,0.07623882591724396,0.10814347863197327,-0.05447351932525635,-0.022715091705322266
-0.39145416021347046,0.516907274723053,0.15245085954666138,0.08776706457138062,-0.05847430229187012,-0.0849882960319519
-0.44471219182014465,0.6772174835205078,0.17205236852169037,0.0384102463722229,-0.04151958227157593,-0.07620394229888916
-0.43587997555732727,0.7888312935829163,0.18235966563224792,0.023135259747505188,-0.029940664768218994,-0.11030244827270508
-0.3614043891429901,0.550826370716095,0.21238930523395538,0.020781144499778748,-0.06729638576507568,-0.19478142261505127
-0.4836658239364624,0.41224727034568787,0.26075756549835205,-0.006614968180656433,-0.10049951076507568,-0.1215556263923645
-0.9467753767967224,0.8990049958229065,0.45332804322242737,0.007981419563293457,-0.084827721118927,0.07403016090393066
-1.288206696510315,1.246188759803772,0.7666599154472351,0.08299107849597931,-0.10494691133499146,0.01305854320526123
-1.1614469289779663,1.2421739101409912,0.7679097652435303,0.03829623758792877,0.013506501913070679,-0.27640002965927124
-0.6514199376106262,1.033096194267273,0.4499441981315613,-0.06456926465034485,0.09639787673950195,-0.45787858963012695
0.050391171127557755,0.618472158908844,0.0333452969789505,-0.10482797026634216,0.12416517734527588,-0.5103517770767212
0.2279019057750702,0.45988401770591736,-0.09537284821271896,-0.01164776086807251,0.09562334418296814,-0.26176929473876953
0.12743766605854034,0.48304280638694763,0.0002938145771622658,0.07500061392784119,0.004589825868606567,0.0019335746765136719
0.0012341029942035675,0.6732478141784668,0.2641351819038391,0.14998413622379303,-0.021045804023742676,0.10474002361297607
-0.05754494667053223,0.9647707939147949,0.4994669258594513,0.1533396691083908,-0.016719937324523926,0.1295880675315857
0.04382693022489548,0.9849193096160889,0.6174800395965576,0.0935889482498169,0.047298699617385864,0.038365304470062256
-0.05677162483334541,0.6157961487770081,0.7268392443656921,0.07661961019039154,0.0699959397315979,-0.0053656697273254395
-0.20543897151947021,0.25243061780929565,0.6328076124191284,0.03479916602373123,0.07570728659629822,0.005731403827667236
-0.11386926472187042,0.3151630759239197,0.6078036427497864,0.04282066226005554,0.05110126733779907,0.023737668991088867
0.05689303204417229,0.4866775572299957,0.7102965116500854,0.0778646469116211,-0.015962064266204834,0.0785667896270752
0.17660045623779297,0.7420792579650879,0.6990193128585815,0.036970362067222595,-0.0011325478553771973,0.1499251127243042
0.18929919600486755,0.6536313891410828,0.7326315641403198,0.010533303022384644,0.007658869028091431,0.16163146495819092
-0.005121163558214903,0.3184281885623932,0.7935603857040405,0.021551057696342468,-0.015308797359466553,0.14327192306518555
-0.16814106702804565,-0.019832178950309753,0.8421944975852966,0.015950992703437805,-0.05615419149398804,0.1305423378944397
-0.21963156759738922,-0.02006002888083458,0.9003136157989502,0.005981922149658203,-0.0719870924949646,0.12829673290252686
-0.23220252990722656,0.16618016362190247,0.9225385189056396,-0.0167047381401062,-0.07473966479301453,0.1394050121307373
-0.25882428884506226,0.1948404759168625,0.8331360220909119,-0.06353580951690674,-0.05490076541900635,0.08240270614624023
-0.38582444190979004,-0.05758192017674446,0.6796836256980896,-0.11204883456230164,-0.046911001205444336,0.03490948677062988
-0.41142988204956055,-0.2193422019481659,0.40497976541519165,-0.15176983177661896,-0.03687065839767456,-0.03268909454345703
-0.24154837429523468,-0.20878155529499054,0.10227488726377487,-0.1831878125667572,-0.0394645631313324,-0.10322242975234985
0.10227368772029877,-0.21843571960926056,-0.16736172139644623,-0.1665874570608139,-0.06688207387924194,-0.21945685148239136
0.36786583065986633,-0.16750434041023254,-0.3414454162120819,-0.13860657811164856,-0.08509385585784912,-0.23104488849639893
0.3945014178752899,-0.30967187881469727,-0.39843785762786865,-0.08644957840442657,-0.11135172843933105,-0.16819804906845093
0.3153800964355469,-0.6043080687522888,-0.39865055680274963,-0.04600737988948822,-0.10756635665893555,-0.11813831329345703
0.19659514725208282,-0.8227701187133789,-0.3547302186489105,-0.061058953404426575,-0.15444549918174744,-0.02763158082962036
-0.02253316342830658,-0.5226863622665405,-0.28859105706214905,-0.14742684364318848,-0.22724401950836182,0.10540461540222168
-0.427182137966156,-0.0024315938353538513,-0.11579779535531998,-0.1392648071050644,-0.22547346353530884,0.11988931894302368
-0.5419718623161316,-0.15642403066158295,-0.10835166275501251,-0.12259408831596375,-0.1341288685798645,-0.18487876653671265
-0.15168459713459015,-0.49662578105926514,-0.27697238326072693,-0.124832883477211,-0.007161736488342285,-0.4377833604812622
0.3580443263053894,-0.5302615761756897,-0.5315055847167969,-0.1670081913471222,0.08261454105377197,-0.41571009159088135
0.5253622531890869,-0.47553807497024536,-0.8456329107284546,-0.19341301918029785,0.10017496347427368,-0.15073031187057495
0.4879051744937897,-0.5416210293769836,-0.9960185885429382,-0.1588403880596161,0.09917870163917542,0.053460776805877686
0.237416610121727,-0.48818299174308777,-0.896481990814209,-0.08870726823806763,0.024025529623031616,0.22533881664276123
-0.21549002826213837,-0.29819151759147644,-0.6013608574867249,-0.011175572872161865,-0.03579980134963989,0.30820363759994507
-0.4975893795490265,-0.1935926079750061,-0.3586398959159851,0.025140047073364258,-0.03177633881568909,0.22400695085525513
-0.4382009208202362,-0.2409314215183258,-0.3038567304611206,-0.02688261866569519,0.046531468629837036,0.028641164302825928
-0.28835955262184143,-0.3092018961906433,-0.42216360569000244,-0.09549415111541748,0.08405900001525879,-0.04096674919128418
-0.07966229319572449,-0.3984011113643646,-0.6342368721961975,-0.11058281362056732,0.10305899381637573,-0.03543055057525635
0.11244688183069229,-0.4491540491580963,-0.846850574016571,-0.09449955821037292,0.11047941446304321,0.022635936737060547
0.15268701314926147,-0.3426181674003601,-0.9658089876174927,-0.05600552260875702,0.07364398241043091,0.12265139818191528
0.2742200791835785,-0.314081609249115,-0.9789743423461914,-0.0008216798305511475,0.02836427092552185,0.1374250054359436
0.40826401114463806,-0.25779393315315247,-0.8880382180213928,0.034324437379837036,-0.00021696090698242188,0.1463167667388916
0.44304925203323364,-0.2041868418455124,-0.7428246736526489,0.06491877138614655,-0.03118288516998291,0.15725159645080566
0.37230703234672546,-0.0872509703040123,-0.6297422647476196,0.023121610283851624,-0.043841540813446045,0.19157260656356812
0.2937350869178772,-0.02736666426062584,-0.5947370529174805,-0.032420799136161804,-0.03658580780029297,0.1641668677330017
0.2057584524154663,0.01740913651883602,-0.5038812160491943,-0.02542814612388611,-0.038588762283325195,0.08566409349441528
0.25499552488327026,-0.009243449196219444,-0.3832489252090454,-0.021617650985717773,-0.057932496070861816,-0.022299885749816895
0.25342825055122375,0.0019785789772868156,-0.3035133481025696,-0.03326857089996338,-0.04952007532119751,-0.10022079944610596
0.15808714926242828,0.11835294961929321,-0.26911604404449463,-0.04518130421638489,-0.031081587076187134,-0.1264737844467163
0.15364797413349152,0.18510225415229797,-0.2113303393125534,-0.02207466959953308,-0.0070383548736572266,-0.21592330932617188
0.23986080288887024,0.07425133883953094,-0.18580950796604156,-0.0032062530517578125,0.02774488925933838,-0.29504287242889404
0.3124143183231354,-0.0884716585278511,-0.2594263255596161,-0.023216143250465393,0.05811154842376709,-0.26810014247894287
0.15259137749671936,0.016603529453277588,-0.29822078347206116,-0.0578131377696991,0.04959872364997864,-0.05395519733428955
-0.35293614864349365,0.3989518880844116,0.03070366382598877,0.06751354038715363,0.026730835437774658,0.09305882453918457
-0.6831193566322327,0.6110870838165283,0.4929482638835907,0.20711016654968262,-0.0166151225566864,-0.015750110149383545
-0.471670001745224,0.6564414501190186,0.6106847524642944,0.1461123377084732,0.08114206790924072,-0.2577586770057678
-0.07671471685171127,0.697658896446228,0.45604491233825684,0.060931868851184845,0.1658698320388794,-0.2976965308189392
0.214054673910141,0.6725172400474548,0.27879542112350464,0.07013872265815735,0.19818049669265747,-0.22305941581726074
0.3330264389514923,0.5305823683738708,0.18506845831871033,0.07621055841445923,0.19061854481697083,-0.10494232177734375
0.2320559024810791,0.36720770597457886,0.10322321206331253,0.09944713860750198,0.1767004430294037,0.028798997402191162
