rotation_x,rotation_y,rotation_z,acceleration_x,acceleration_y,acceleration_z
-0.2852496802806854,0.2796876132488251,0.06530548632144928,-0.04420621693134308,-0.08749657869338989,0.1480068564414978
-0.7923104166984558,-0.14307382702827454,-0.0018685371614992619,-0.04904164373874664,-0.13921445608139038,0.16349023580551147
-0.9450581073760986,-0.14064151048660278,-0.029321376234292984,-0.0625038892030716,-0.12921255826950073,0.0191880464553833
-0.562215268611908,-0.09458395838737488,-0.08593757450580597,-0.04083752632141113,-0.10803455114364624,-0.05996793508529663
-0.1292313039302826,-0.24919109046459198,0.12204337120056152,0.0018897205591201782,-0.10069185495376587,-0.05284780263900757
0.12467445433139801,-0.34056752920150757,0.4357646405696869,-0.027992457151412964,-0.1307612657546997,-0.03422439098358154
0.11693727225065231,-0.3188236653804779,0.3937503397464752,-0.07617643475532532,-0.1938280165195465,-0.055340349674224854
-0.022045923396945,-0.31248313188552856,0.19135871529579163,-0.061898112297058105,-0.1839543879032135,-0.05408000946044922
-0.15617099404335022,-0.25488343834877014,0.11455612629652023,-0.04148322343826294,-0.13955873250961304,-0.06365418434143066
-0.24061039090156555,-0.015827009454369545,0.16046158969402313,-0.0047060102224349976,-0.1284984052181244,-0.057134032249450684
-0.3457890748977661,-0.5074015855789185,0.07811489701271057,-0.01040283590555191,-0.09122416377067566,-0.06452953815460205
-0.3129805624485016,-0.7657888531684875,-0.1002156138420105,-0.01676199585199356,-0.07710102200508118,-0.15545940399169922
-0.06671970337629318,-0.6116613745689392,-0.05338480696082115,-0.013655140995979309,0.025701552629470825,-0.12653374671936035
0.19189658761024475,-0.32634004950523376,0.17591387033462524,0.03644140064716339,0.07758757472038269,-0.03726845979690552
0.3489258587360382,-0.2789437770843506,0.4269404709339142,0.014666974544525146,0.0755583643913269,0.01685422658920288
0.4043263792991638,-0.13702960312366486,0.44546493887901306,-0.03548191115260124,0.07215404510498047,0.04125368595123291
0.2962034344673157,0.027408288791775703,0.3665573298931122,-0.01671649143099785,0.07797080278396606,0.10647445917129517
0.06428059190511703,-0.08802778273820877,0.2254442721605301,-0.0031109564006328583,0.09463906288146973,0.1409168839454651
-0.23262085020542145,-0.31570810079574585,0.0993659719824791,0.016761615872383118,0.11390727758407593,0.1223076581954956
-0.40571609139442444,-0.4806707501411438,-0.031111326068639755,5.6486576795578e-05,0.13258326053619385,0.04542267322540283
-0.42227184772491455,-0.2976076006889343,-0.09830029308795929,0.017237428575754166,0.16075685620307922,0.028575360774993896
-0.368701308965683,-0.21699905395507812,0.03827054798603058,0.08193013072013855,0.17502254247665405,0.04523873329162598
-0.225844144821167,-0.1030583381652832,0.3148208558559418,0.07244211435317993,0.18096348643302917,0.06036686897277832
-0.13096144795417786,0.09632577747106552,0.5205143690109253,0.03232329711318016,0.07144680619239807,0.06975674629211426
-0.1252446472644806,0.0960337445139885,0.5414525866508484,-0.016421843320131302,-0.03469935059547424,0.05826228857040405
-0.15005865693092346,0.010988320223987103,0.3785496652126312,-0.06268219649791718,-0.11693271994590759,0.04238849878311157
-0.11204634606838226,-0.3788725435733795,0.16742441058158875,-0.05740000307559967,-0.18202343583106995,-0.0111885666847229
0.14433251321315765,-0.5947679877281189,0.029188428074121475,-0.022117145359516144,-0.1916082203388214,-0.09400451183319092
0.2850162982940674,-0.4039728343486786,-0.024783115833997726,-0.02182692661881447,-0.159658282995224,-0.07565999031066895
0.06377707421779633,-0.23793098330497742,-0.03423885628581047,-0.01627744361758232,-0.17295151948928833,-0.03953152894973755
-0.10397817939519882,-0.25619587302207947,-0.09531145542860031,-0.03236008435487747,-0.15282845497131348,-0.07551050186157227
0.03304223716259003,-0.14913178980350494,-0.21557244658470154,-0.023666784167289734,-0.13527143001556396,-0.10696971416473389
0.2531791925430298,-0.007567070424556732,-0.26653605699539185,0.051205866038799286,-0.12985268235206604,-0.07820296287536621
0.2236056625843048,0.047698911279439926,-0.23070339858531952,0.07974736392498016,-0.13190042972564697,0.021012723445892334
-0.3034761846065521,-0.5339385271072388,-0.3627605736255646,0.004796192049980164,-0.13181129097938538,0.016966521739959717
-0.7143877744674683,-0.9137365818023682,-0.7536479234695435,-0.09803997725248337,-0.08844763040542603,-0.16436517238616943
-0.558459997177124,-0.5496479868888855,-1.0373430252075195,-0.020255692303180695,0.052847832441329956,-0.23865699768066406
0.0928826704621315,0.5060552358627319,-0.6062657833099365,0.12562523782253265,0.17283013463020325,-0.11598914861679077
0.6648106575012207,0.7550933361053467,0.06628285348415375,0.18811240792274475,0.1621740460395813,0.05651092529296875
0.9476867914199829,0.07531096786260605,0.4182825982570648,0.12140942364931107,0.08324635028839111,0.08969104290008545
0.8983948230743408,-0.2805955111980438,0.13074521720409393,-0.03832889348268509,0.035981714725494385,0.04825711250305176
0.4297541081905365,-0.15253974497318268,-0.27118054032325745,-0.06913028657436371,0.04023653268814087,0.048290371894836426
-0.1561974585056305,0.30506035685539246,-0.3760266602039337,0.044234465807676315,0.08895361423492432,0.0915595293045044
-0.4358029067516327,0.574390709400177,-0.20387153327465057,0.13672283291816711,0.14411956071853638,0.12089574337005615
-0.4136776924133301,0.5649834871292114,0.12600868940353394,0.1597311794757843,0.11239776015281677,0.0967569351196289
-0.18517741560935974,0.4713035821914673,0.4185105860233307,0.12312126159667969,0.042873531579971313,0.032785654067993164
0.05686711147427559,0.5764433741569519,0.6175349950790405,0.09823814779520035,-0.0001774430274963379,0.028338313102722168
0.08441687375307083,0.4577188491821289,0.8385509252548218,0.09011558443307877,-0.07263198494911194,0.03330874443054199
0.09646870940923691,0.5077434778213501,0.8381536602973938,0.10869341343641281,-0.1258620321750641,-0.038676559925079346
0.1679871380329132,0.7684757113456726,0.8171383738517761,0.1826445609331131,-0.11946621537208557,-0.08476448059082031
0.11699026823043823,1.001259684562683,1.0860704183578491,0.1948678195476532,-0.06653043627738953,-0.07587075233459473
0.02933785691857338,0.9118678569793701,1.3282594680786133,0.17058643698692322,-0.07353794574737549,-0.11705607175827026
0.15703585743904114,0.6016351580619812,1.3332682847976685,0.06506882607936859,-0.02679106593132019,-0.22189611196517944
0.3323778808116913,0.6438809633255005,1.2074204683303833,0.00803748145699501,0.06641572713851929,-0.254253625869751
0.3888024687767029,1.142045021057129,1.3513597249984741,0.07196378707885742,0.14011922478675842,-0.15286797285079956
0.07733799517154694,1.022480845451355,1.674309253692627,0.07255668938159943,0.12172472476959229,-0.06655508279800415
-0.1433129757642746,0.9906359910964966,1.6446218490600586,0.006291747093200684,0.08806082606315613,-0.13037145137786865
-0.09133902192115784,1.1410629749298096,1.6069445610046387,-0.0034691914916038513,0.15176329016685486,-0.02180379629135132
-0.13013790547847748,0.6856109499931335,1.6047788858413696,-0.008779719471931458,0.11375591158866882,0.014892399311065674
0.05269058793783188,0.6600663065910339,1.3844728469848633,0.0026191100478172302,0.07954034209251404,-0.014595329761505127
0.3517335057258606,1.1865826845169067,1.1617867946624756,0.0741221010684967,0.16500496864318848,0.1192585825920105
0.305708110332489,1.3844233751296997,1.3801931142807007,0.15944187343120575,0.13246816396713257,0.26090556383132935
-0.06520707905292511,1.0191181898117065,1.3902621269226074,0.12382954359054565,0.06407192349433899,0.2919105291366577
-0.4768027365207672,0.41118311882019043,0.9212589859962463,0.10962510108947754,0.011917293071746826,0.1990681290626526
-0.5832270383834839,0.24978721141815186,0.5850753784179688,0.12385988235473633,0.07537662982940674,0.09821885824203491
-0.6237216591835022,0.294451504945755,0.6305147409439087,0.16140711307525635,0.10257086157798767,0.05647134780883789
-0.5495607852935791,0.33103203773498535,0.8103978633880615,0.18990813195705414,0.09821900725364685,0.024136066436767578
-0.3439352512359619,0.5733576416969299,0.9572177529335022,0.15939290821552277,0.07313594222068787,0.009967327117919922
-0.2529844343662262,0.6614153981208801,1.0442484617233276,0.15462258458137512,0.018682539463043213,0.07498657703399658
-0.3230058550834656,0.5669651031494141,1.070877194404602,0.1670582890510559,-0.034560978412628174,0.10605937242507935
-0.46379518508911133,0.30853724479675293,1.0076431035995483,0.15611791610717773,-0.06241559982299805,0.06728225946426392
-0.42957767844200134,0.2793289124965668,0.9825305342674255,0.14193186163902283,-0.07281216979026794,-0.04056572914123535
-0.23004581034183502,0.40407630801200867,1.0832805633544922,0.16916312277317047,-0.07910406589508057,-0.05187535285949707
-0.0601925253868103,0.2992900311946869,1.206792950630188,0.14289605617523193,-0.10235646367073059,-0.03680163621902466
0.11736477166414261,-0.025664566084742546,1.1746793985366821,0.09582145512104034,-0.09029495716094971,-0.05348670482635498
0.31483837962150574,-0.12044045329093933,1.0253382921218872,0.04779435694217682,-0.05432814359664917,-0.11895763874053955
0.33876848220825195,0.10542979836463928,1.0134745836257935,0.10775312781333923,-0.02423226833343506,-0.09901773929595947
0.17375752329826355,0.2273220717906952,1.2486215829849243,0.12545648217201233,-0.0003281831741333008,0.0014601349830627441
-0.27735573053359985,-0.20006120204925537,1.2036155462265015,0.07789580523967743,-0.08019906282424927,-0.019988954067230225
-0.6789456605911255,-0.5139463543891907,1.0062564611434937,0.04227665066719055,-0.06718897819519043,-0.17788642644882202
-0.36707472801208496,0.27539998292922974,1.1784882545471191,0.061749979853630066,0.037282198667526245,-0.23873001337051392
0.3300102949142456,1.2011021375656128,1.6780997514724731,0.16256876289844513,0.0721953809261322,-0.014642536640167236
0.7310913801193237,0.9123900532722473,1.9599014520645142,0.22869661450386047,0.048350900411605835,0.1435115933418274
0.8050243258476257,0.1657617688179016,1.8624273538589478,0.16649815440177917,0.024618029594421387,0.15220028162002563
0.5549504160881042,-0.16339629888534546,1.7179503440856934,0.02968718111515045,0.049430131912231445,0.1083294153213501
0.09857513755559921,-0.02404872141778469,1.4430503845214844,-0.011931505054235458,-0.01255759596824646,0.018590271472930908
-0.28451108932495117,0.46457719802856445,0.9747983813285828,0.08099453896284103,0.00394400954246521,-0.01618272066116333
-0.49522411823272705,0.9235132336616516,0.8767127394676208,0.18454094231128693,0.0770774781703949,0.006245255470275879
-0.5015499591827393,0.8864151835441589,1.3066169023513794,0.2164003998041153,0.1290183663368225,0.030613303184509277
-0.19159896671772003,0.7284703850746155,1.785982608795166,0.13701969385147095,0.09773451089859009,-0.015106499195098877
0.2269347906112671,0.717261016368866,1.7420556545257568,0.039059072732925415,0.013184785842895508,-0.07724642753601074
0.3653446435928345,0.8294774293899536,1.4404922723770142,0.0291355699300766,0.004540145397186279,-0.021639704704284668
0.208914116024971,0.7481750249862671,1.4275469779968262,0.11014442145824432,0.05122101306915283,0.04324030876159668
0.06348955631256104,0.6781327724456787,1.6269429922103882,0.10487201809883118,0.061412036418914795,0.010747551918029785
0.09435662627220154,0.6606655120849609,1.603074073791504,0.03493613004684448,0.033597856760025024,-0.059404611587524414
0.15719562768936157,0.6657541394233704,1.4613116979599,0.0234786719083786,0.04403024911880493,-0.06623482704162598
0.10419338941574097,0.6486138701438904,1.398957371711731,0.056036993861198425,0.07626470923423767,-0.05302321910858154
0.026359453797340393,0.6588940620422363,1.499411702156067,0.10075032711029053,0.08157378435134888,-0.0701524019241333
0.08940986543893814,0.8518718481063843,1.5130107402801514,0.0827111154794693,0.0748787522315979,-0.12819963693618774
0.18745337426662445,1.3013207912445068,1.6339612007141113,0.1559281349182129,0.08012709021568298,-0.0585821270942688
0.028670798987150192,1.3156198263168335,1.8354337215423584,0.24119605123996735,0.044758111238479614,0.05085092782974243
-0.31845173239707947,0.5421866178512573,1.954580545425415,0.19271564483642578,0.018477261066436768,-0.023523926734924316
-0.32542917132377625,0.5594652891159058,1.840762972831726,0.10171262174844742,0.024351119995117188,-0.18388956785202026
0.0525655634701252,1.3527817726135254,1.8935762643814087,0.10203612595796585,0.07804352045059204,-0.14707857370376587
0.3548344373703003,1.7620199918746948,2.0966482162475586,0.17182260751724243,0.05727982521057129,0.025519847869873047
0.3570718765258789,1.417405366897583,2.1214914321899414,0.20030300319194794,0.0349690318107605,0.1443970799446106
0.13315090537071228,1.0868923664093018,2.0268962383270264,0.18998348712921143,-0.008764535188674927,0.17437946796417236
-0.23461149632930756,0.7734876275062561,1.7951313257217407,0.15466611087322235,-0.06799152493476868,0.1396235227584839
-0.5500883460044861,0.4312096834182739,1.3902993202209473,0.14427800476551056,-0.07254865765571594,0.032076478004455566
-0.6538286209106445,0.42277979850769043,1.1733121871948242,0.14779430627822876,-0.032698214054107666,-0.07727861404418945
-0.5014351606369019,0.6702611446380615,1.2893187999725342,0.16949862241744995,-0.01895192265510559,-0.12671267986297607
-0.02892305888235569,0.8897874355316162,1.614941954612732,0.16324110329151154,-0.03312891721725464,-0.08066999912261963
0.4708452820777893,0.9110990166664124,1.7488850355148315,0.0886920690536499,-0.10156899690628052,-0.00011146068572998047
0.67893385887146,0.7681501507759094,1.523461103439331,0.03518173098564148,-0.16212797164916992,0.07936495542526245
0.5746904611587524,0.4180379807949066,1.0158557891845703,0.05903143063187599,-0.1837693452835083,0.11010223627090454
0.4394993484020233,0.2765156924724579,0.6889861822128296,0.052578240633010864,-0.1187610924243927,0.09156239032745361
0.3331547677516937,0.33443570137023926,0.600738525390625,0.033249303698539734,-0.0779356062412262,0.08300453424453735
0.26579782366752625,0.22946780920028687,0.5053917765617371,0.048953644931316376,-0.07096174359321594,0.06665205955505371
0.3172051012516022,0.14317025244235992,0.2708078622817993,0.013728983700275421,-0.03811615705490112,0.023220062255859375
0.2214973419904709,0.31960442662239075,0.1635558158159256,0.029965251684188843,0.012389183044433594,0.059854745864868164
0.0072943065315485,0.3803113102912903,0.361857146024704,0.07302267849445343,-0.04030919075012207,0.07927310466766357
-0.25012385845184326,-0.16948828101158142,0.15887759625911713,-0.0038792267441749573,-0.023703694343566895,0.001011192798614502
-0.4198891222476959,-0.266423761844635,-0.13026480376720428,-0.0691814199090004,0.03137803077697754,-0.09505409002304077
-0.43839532136917114,0.15991351008415222,-0.07335232198238373,-0.06482714414596558,0.0898212194442749,-0.09772342443466187
-0.21714697778224945,0.5642681121826172,0.38304904103279114,-0.011958234012126923,0.10187754034996033,-0.005108952522277832
0.039840321987867355,0.33918699622154236,0.4229859709739685,-0.04234251379966736,0.030526280403137207,0.0408896803855896
0.06515645980834961,-0.0204947330057621,0.14595188200473785,-0.07017845660448074,0.036910802125930786,0.06413644552230835
-0.12204157561063766,-0.10362526029348373,0.189316526055336,-0.04036128520965576,0.08001747727394104,0.05306607484817505
-0.22772088646888733,0.03159362077713013,0.38889893889427185,-0.05692975968122482,0.07356926798820496,0.053662896156311035
-0.213237464427948,-0.012774529866874218,0.30982455611228943,-0.09138631075620651,0.004942357540130615,0.02915114164352417
-0.16531044244766235,0.01978551410138607,0.0666976049542427,-0.07802468538284302,-0.006235867738723755,0.02124035358428955
-0.12861192226409912,0.005548424553126097,0.04221336916089058,-0.030915729701519012,0.030798792839050293,0.0728377103805542
-0.07317178696393967,0.01819205842912197,0.23994699120521545,0.01154598593711853,0.012261420488357544,0.11563783884048462
-0.08099482208490372,-0.15089336037635803,0.2989634573459625,-0.019114859402179718,-0.039930135011672974,0.15866053104400635
-0.10975351929664612,-0.5566913485527039,0.1471329927444458,-0.010518185794353485,-0.06401309370994568,0.11577260494232178
-0.10362999141216278,-0.5613822937011719,0.07307513803243637,-0.007430084049701691,-0.020729660987854004,0.06915336847305298
-0.11001140624284744,-0.1732344925403595,0.06178288906812668,0.03134753182530403,-0.013504862785339355,-0.024770379066467285
-0.11953670531511307,0.2068817913532257,0.24412353336811066,0.10261941701173782,0.033046990633010864,-0.03776395320892334
-0.27965599298477173,0.31659847497940063,0.588492214679718,0.05168278142809868,-0.013083845376968384,-0.06735819578170776
-0.43977391719818115,0.23325487971305847,0.5751917362213135,-0.0172005295753479,-0.07888436317443848,-0.1421571969985962
-0.483193039894104,0.18420512974262238,0.4605933427810669,-0.045439302921295166,-0.04950323700904846,-0.2003772258758545
-0.337112158536911,0.4633302688598633,0.5591610074043274,0.014650799334049225,-0.0182950496673584,-0.1803985834121704
-0.31307661533355713,0.28289949893951416,0.6129204034805298,0.0002391943708062172,0.0018433034420013428,-0.12493103742599487
-0.37579646706581116,0.3711409568786621,0.7331167459487915,0.023745179176330566,-0.024921923875808716,-0.16272658109664917
-0.17521479725837708,0.49086374044418335,0.9422484040260315,-0.0072803795337677,-0.002127408981323242,-0.10877364873886108
0.1301623284816742,0.2829990088939667,1.0721362829208374,-0.021986782550811768,-0.02805781364440918,-0.04690098762512207
0.37125837802886963,0.1517084836959839,0.9934995174407959,-0.04613830894231796,-0.044191986322402954,-0.0031555891036987305
0.5199956297874451,0.20027866959571838,0.7981177568435669,-0.07150330394506454,-0.06081432104110718,0.019362211227416992
0.4571961760520935,0.26310884952545166,0.6190931797027588,-0.10520322620868683,-0.060544878244400024,0.07486498355865479
0.14151617884635925,-0.036380838602781296,0.3936268091201782,-0.08262919634580612,-0.06380394101142883,0.11851686239242554
-0.09478022903203964,-0.4881138205528259,0.10964851081371307,-0.07754106819629669,-0.07763081789016724,0.003983557224273682
0.07215877622365952,-0.2135615348815918,-0.059131838381290436,-0.09614121168851852,-0.0074346065521240234,-0.0674392580986023
0.39679858088493347,0.12299071997404099,-0.0030235336162149906,-0.06019993871450424,0.014133572578430176,-0.0033063888549804688
0.5576575398445129,-0.014133239164948463,-0.05221473425626755,-0.052904173731803894,-0.018752485513687134,0.07242697477340698
0.5464515686035156,-0.1854950487613678,-0.25636714696884155,-0.059745632112026215,-0.01369526982307434,0.10507756471633911
0.3856745958328247,-0.32670021057128906,-0.3941057026386261,-0.04744647443294525,0.0049859583377838135,0.10939103364944458
0.26930204033851624,-0.24998147785663605,-0.48413774371147156,-0.08280517905950546,0.0006110668182373047,0.06171989440917969
0.22745417058467865,-0.12971533834934235,-0.7151364684104919,-0.060165390372276306,0.004430949687957764,0.03809100389480591
0.2519270181655884,-0.24116243422031403,-0.7001574039459229,-0.016474120318889618,0.035126179456710815,0.06127035617828369
0.2128695249557495,-0.4721396863460541,-0.720073938369751,-0.05641535297036171,0.014584660530090332,0.03767877817153931
-0.01243336871266365,-0.6284049153327942,-0.949600338935852,-0.12392562627792358,0.008785128593444824,-0.020527899265289307
-0.26196953654289246,-0.49821001291275024,-1.1951930522918701,-0.09951446950435638,0.0297834575176239,-0.08873063325881958
-0.25732845067977905,-0.16632768511772156,-1.1535547971725464,-0.04740246385335922,0.038691580295562744,-0.08223438262939453
-0.28352856636047363,-0.3608991205692291,-1.3347208499908447,-0.07043542712926865,0.016275465488433838,-0.10422152280807495
-0.4170452058315277,-0.23470409214496613,-1.4913997650146484,-0.06723347306251526,0.06718364357948303,-0.09929627180099487
-0.6232247352600098,-0.5143833160400391,-1.2471901178359985,-0.048456378281116486,0.09806519746780396,-0.09259110689163208
-0.3665446639060974,-0.47680050134658813,-0.986274003982544,-0.10369618982076645,0.06482681632041931,-0.18566298484802246
0.26661357283592224,0.09087855368852615,-1.0976516008377075,-0.1240566149353981,0.07362252473831177,-0.10988712310791016
0.5124945640563965,-0.029346339404582977,-1.1080079078674316,-0.05062365531921387,0.09148663282394409,0.04481625556945801
0.416676789522171,-0.4507310390472412,-0.8665325045585632,-0.055998675525188446,0.09904685616493225,0.11244124174118042
0.24142029881477356,-0.4600358307361603,-0.8648281097412109,-0.16631624102592468,0.0675925612449646,0.09666532278060913
0.01908954605460167,-0.26539158821105957,-1.211881160736084,-0.18365800380706787,0.019799530506134033,0.09397608041763306
-0.1234256774187088,-0.1862487941980362,-1.347408652305603,-0.09857857972383499,0.05049136281013489,0.09809720516204834
-0.07132342457771301,-0.11159810423851013,-1.1945879459381104,-0.04494655877351761,0.07771086692810059,0.09316086769104004
0.09171652793884277,-0.15244989097118378,-0.8882738351821899,-0.06117022782564163,5.120038986206055e-05,0.05150943994522095
0.21238327026367188,-0.11501453816890717,-0.8527700901031494,-0.1121019572019577,-0.039561927318573,0.060763776302337646
0.15316079556941986,-0.17706596851348877,-0.938051700592041,-0.09960682690143585,-0.07447671890258789,0.03421890735626221
0.0679187998175621,-0.040661923587322235,-0.8307203650474548,-0.05273444205522537,-0.03698083758354187,0.006665527820587158
0.07985196262598038,0.09162725508213043,-0.6194851994514465,-0.02599962055683136,-0.03010961413383484,0.01565772294998169
0.10554405301809311,-0.04431059584021568,-0.45747706294059753,-0.01833794265985489,-0.07136929035186768,-0.0024875402450561523
0.04825403168797493,-0.14270846545696259,-0.4866839647293091,-0.07588933408260345,-0.05751189589500427,-0.0709843635559082
-0.08552013337612152,-0.06624996662139893,-0.4454805552959442,-0.07384569942951202,-0.023138701915740967,-0.1291494369506836
-0.13105617463588715,0.09091664850711823,-0.18668873608112335,-0.034373536705970764,-0.021323949098587036,-0.078488290309906
-0.1936827152967453,-0.18586331605911255,-0.18305586278438568,-0.077850341796875,-0.07708162069320679,-0.1196250319480896
-0.35307183861732483,-0.4542151391506195,-0.4012901484966278,-0.10230249166488647,-0.0388677716255188,-0.15391844511032104
-0.35384175181388855,-0.6439872980117798,-0.32707780599594116,-0.09647750109434128,0.02398499846458435,-0.22230815887451172
0.1109083965420723,-0.2361590415239334,-0.10285822302103043,-0.09862582385540009,0.07064458727836609,-0.21453750133514404
0.6684046387672424,0.058369338512420654,-0.05373663082718849,-0.1088385209441185,0.09762513637542725,-0.060392141342163086
0.8314573168754578,-0.22644957900047302,-0.14427712559700012,-0.1040022075176239,0.06971544027328491,0.039714813232421875
0.5991593599319458,-0.5919759273529053,-0.4058200418949127,-0.1520543396472931,0.08630478382110596,0.07739639282226562
0.13030759990215302,-0.6661757826805115,-0.6313416957855225,-0.1461808979511261,0.12309300899505615,0.074607253074646
-0.20783989131450653,-0.6181188821792603,-0.675864040851593,-0.10972672700881958,0.12886539101600647,0.01906949281692505
-0.12185197323560715,-0.5637536644935608,-0.724284291267395,-0.098737932741642,0.10952791571617126,-0.04850602149963379
0.19293689727783203,-0.42532438039779663,-0.7581468224525452,-0.0921274796128273,0.12094253301620483,-0.03609311580657959
0.3022993505001068,-0.4443790316581726,-0.792743444442749,-0.09432445466518402,0.08725589513778687,0.023451566696166992
0.1984322965145111,-0.5836337208747864,-0.8247113227844238,-0.11244484037160873,0.04413557052612305,0.029668688774108887
0.18106524646282196,-0.5597736239433289,-0.9686738848686218,-0.1285882294178009,0.01934412121772766,0.014840483665466309
0.18859420716762543,-0.5002137422561646,-1.1181325912475586,-0.1126483678817749,0.005618363618850708,0.028827965259552002
0.13980303704738617,-0.5659487247467041,-1.1600192785263062,-0.06414934247732162,0.01728224754333496,0.051909029483795166
0.13713432848453522,-0.6528526544570923,-1.1073887348175049,-0.04602295160293579,0.02710580825805664,0.06385153532028198
0.0947180762887001,-0.8430557250976562,-1.180233359336853,-0.05166039988398552,0.013093829154968262,0.039752066135406494
-0.07466436922550201,-0.9670509696006775,-1.288177251815796,-0.06503329426050186,0.05071300268173218,0.0065119266510009766
-0.2688271999359131,-0.9335547089576721,-1.302594780921936,-0.050854168832302094,0.0680646002292633,-0.060786545276641846
-0.2374083399772644,-0.6421417593955994,-1.182103157043457,-0.013411398977041245,0.06370383501052856,-0.08819395303726196
-0.20545467734336853,-0.7716083526611328,-1.1804018020629883,-0.03625153750181198,0.06986328959465027,-0.009392917156219482
-0.530647337436676,-0.992706835269928,-1.398148775100708,-0.06262363493442535,0.05181130766868591,-0.03865551948547363
-0.9789477586746216,-1.0445010662078857,-1.5344998836517334,-0.08533982932567596,0.11558324098587036,-0.11512625217437744
-0.8691372871398926,-0.6916277408599854,-1.3519641160964966,-0.04989020526409149,0.15353581309318542,-0.1721978783607483
-0.1970030516386032,-0.15214215219020844,-0.965576171875,-0.0025337934494018555,0.13219046592712402,-0.12443548440933228
0.39863213896751404,-0.21167561411857605,-0.8027910590171814,-0.04662804305553436,0.10291975736618042,-0.0011575818061828613
0.4893227815628052,-0.6721151471138,-0.9346519708633423,-0.09668952226638794,0.06440770626068115,0.056421875953674316
0.16639304161071777,-0.8940201997756958,-1.0754082202911377,-0.17072811722755432,0.06563454866409302,0.05236506462097168
-0.1616140753030777,-0.5361039042472839,-1.2695473432540894,-0.17495694756507874,0.059643715620040894,0.036495745182037354
-0.24296508729457855,-0.246090367436409,-1.3542839288711548,-0.10302326083183289,0.034950852394104004,0.0521777868270874
-0.13540275394916534,-0.14009863138198853,-1.3044933080673218,-0.06694206595420837,-0.0001812577247619629,0.08322721719741821
-0.07716567814350128,-0.33905988931655884,-1.1752629280090332,-0.02578270435333252,-0.04443836212158203,0.1080549955368042
-0.057590119540691376,-0.4446567893028259,-0.965714156627655,-0.042122527956962585,-0.09527182579040527,0.04741394519805908
-0.03732380270957947,-0.32609325647354126,-0.9362200498580933,-0.08649256825447083,-0.13540515303611755,0.0006740093231201172
-0.05845647677779198,-0.3132048547267914,-0.921165406703949,-0.031985148787498474,-0.1303355097770691,-0.005060136318206787
-0.06505895406007767,-0.24866704642772675,-0.7491192817687988,0.020181715488433838,-0.10675936937332153,-0.03210318088531494
0.03636191040277481,-0.12294809520244598,-0.5411264896392822,0.05420637130737305,-0.10081645846366882,-0.06326037645339966
0.11173482239246368,-0.006603332702070475,-0.36235520243644714,0.04295942187309265,-0.09242117404937744,-0.048910319805145264
0.04129376262426376,-0.15818378329277039,-0.28539031744003296,0.010591909289360046,-0.11759626865386963,-0.08808720111846924
0.06535372883081436,0.02837231010198593,-0.2676451802253723,0.013626471161842346,-0.08145666122436523,-0.1249271035194397
-0.011175695806741714,-0.05370081961154938,-0.17653405666351318,0.04233967885375023,-0.03172984719276428,-0.06687456369400024
-0.27905115485191345,-0.023250795900821686,-0.19867435097694397,0.05304466187953949,-0.03393206000328064,-0.06423187255859375
-0.5674527883529663,-0.03048001043498516,-0.23833677172660828,0.08323362469673157,0.01686042547225952,-0.07486748695373535
-0.5430577397346497,-0.047558534890413284,-0.07551455497741699,0.09857018291950226,0.0487704873085022,-0.1453990936279297
-0.004883278161287308,0.2575165331363678,0.3262377083301544,0.09558939933776855,0.08419746160507202,-0.13968384265899658
0.6047110557556152,0.4394576847553253,0.5359145998954773,0.04434347152709961,0.0538773238658905,-0.007597148418426514
0.7289823293685913,0.15165847539901733,0.42048758268356323,0.030748531222343445,0.009519368410110474,0.1023147702217102
0.43419501185417175,-0.22214563190937042,0.1403648406267166,0.0031494349241256714,0.026643186807632446,0.1379324197769165
0.0013959930511191487,-0.20091326534748077,0.04617616534233093,0.0067617446184158325,0.051181644201278687,0.09351706504821777
-0.13364741206169128,-0.011535562574863434,-0.003268408589065075,0.027920272201299667,0.06083598732948303,0.05676627159118652
-0.005023612640798092,0.042288534343242645,-0.03213835507631302,0.03268027305603027,0.07217508554458618,0.05279862880706787
0.1692735254764557,0.01236682664602995,-0.03487645462155342,0.04562501609325409,0.056713223457336426,0.05954796075820923
0.21777619421482086,0.06362675875425339,-0.034851133823394775,0.05378538370132446,0.03452146053314209,0.08914041519165039
0.1391674280166626,0.053973086178302765,0.0002978886477649212,0.027669653296470642,0.014274060726165771,0.11124610900878906
0.056146979331970215,-0.02328624203801155,-0.032660968601703644,0.016480669379234314,-0.030642420053482056,0.08432948589324951
0.05121958628296852,-0.0843106284737587,-0.15667977929115295,0.0013600289821624756,-0.038064420223236084,0.03406727313995361
0.10395912081003189,-0.09091220051050186,-0.15996955335140228,0.04256738722324371,-0.010287940502166748,0.019557833671569824
0.1052899956703186,-0.2216348499059677,-0.061848513782024384,0.04531793296337128,-0.013854801654815674,0.010827064514160156
0.07955098152160645,-0.2882002294063568,-0.10233025997877121,0.005914419889450073,-0.029636234045028687,-0.043044328689575195
0.09434670954942703,-0.281637966632843,-0.200508713722229,-0.017928749322891235,-0.010106086730957031,-0.07533282041549683
0.09273263067007065,-0.10221351683139801,-0.22394149005413055,0.013082966208457947,0.018437504768371582,-0.014408469200134277
0.04919266700744629,0.16731032729148865,-0.13586647808551788,0.08175395429134369,-0.03691244125366211,0.05233699083328247
-0.18653865158557892,-0.1350078135728836,-0.18986058235168457,0.032985951751470566,0.004215449094772339,0.1282317042350769
-0.5870805978775024,-0.49335506558418274,-0.3618673086166382,0.03677396476268768,-0.02603524923324585,0.0355224609375
-0.9284326434135437,-0.6138177514076233,-0.4202139675617218,-0.02028566598892212,0.04617735743522644,-0.07754218578338623
-0.9474189877510071,-0.39518028497695923,-0.4010666310787201,-0.017271071672439575,0.05863547325134277,-0.2017614245414734
-0.46140849590301514,0.2752133011817932,-0.16532450914382935,0.016722962260246277,0.08240699768066406,-0.15622639656066895
0.11404581367969513,0.19841139018535614,0.09949810802936554,0.060688287019729614,0.03783106803894043,-0.012185990810394287
0.3912428319454193,-0.15608081221580505,0.2544199228286743,-0.025767045095562935,-0.013447612524032593,0.027070581912994385
0.3984024226665497,-0.07297609746456146,0.12912608683109283,-0.07358178496360779,-0.03160974383354187,0.05416762828826904
0.08401936292648315,-0.06584035605192184,-0.030922457575798035,-0.0941520631313324,-0.06262075901031494,0.08373713493347168
-0.2210237830877304,-0.02789551392197609,-0.26676857471466064,-0.07780060172080994,-0.06760463118553162,0.052494943141937256
-0.18872471153736115,0.21202972531318665,-0.3334069550037384,0.015259236097335815,-0.033441752195358276,0.06366503238677979
-0.07622622698545456,0.11073112487792969,-0.15214350819587708,0.07467056810855865,-0.025606483221054077,0.09805142879486084
0.05581655725836754,-0.03599686548113823,0.024604106321930885,0.03239746391773224,-0.041145503520965576,0.062206804752349854
0.1357010155916214,0.0648614838719368,0.03174692392349243,-0.006975175812840462,-0.064085453748703,0.018100619316101074
0.13314306735992432,0.19208727777004242,0.052630018442869186,-0.0024171024560928345,-0.06462794542312622,0.04833817481994629
0.07164379954338074,0.0174325592815876,0.06881751120090485,0.043044473975896835,-0.06119498610496521,0.03771543502807617
0.10920151323080063,0.049767669290304184,0.16960109770298004,0.03101348876953125,-0.04643610119819641,-0.038130760192871094
0.12481611222028732,0.17827849090099335,0.217902272939682,0.03160492703318596,-0.0562109649181366,-0.05438274145126343
0.059686604887247086,0.06550053507089615,0.25498566031455994,0.022873088717460632,-0.03365504741668701,-0.055276572704315186
-0.0025287913158535957,0.04677825793623924,0.2933165729045868,-0.010057225823402405,-0.004977166652679443,-0.12272000312805176
0.022426750510931015,0.4473166763782501,0.3901253342628479,0.04560333490371704,0.002607107162475586,-0.09585756063461304
-0.03344909846782684,0.22871363162994385,0.5547170042991638,0.04379957541823387,-0.0339149534702301,-0.042696356773376465
-0.2136751115322113,0.0030062771402299404,0.4875990152359009,0.00355524942278862,-0.074777752161026,-0.10757172107696533
-0.2401767075061798,-0.10327842086553574,0.4392540752887726,-0.019964948296546936,-0.007650911808013916,-0.16444659233093262
0.004424385726451874,0.14254435896873474,0.4243466258049011,0.017741993069648743,0.014292418956756592,-0.1865994930267334
0.35861876606941223,0.4086706042289734,0.5609725117683411,0.03190849721431732,0.09077897667884827,-0.0667906403541565
0.5919681787490845,0.29399701952934265,0.7156937122344971,0.05679170414805412,0.06703224778175354,0.030102670192718506
0.6567708253860474,0.08405771851539612,0.673938512802124,0.002491191029548645,0.07852098345756531,0.10833573341369629
0.33368760347366333,-0.24225424230098724,0.44152241945266724,-0.03396908938884735,0.06933021545410156,0.13694322109222412
-0.10264623910188675,-0.24408532679080963,0.1947261393070221,-0.054022401571273804,0.09807765483856201,0.07194250822067261
-0.23117440938949585,0.12257957458496094,0.12121392041444778,0.00827699899673462,0.13411176204681396,0.037272632122039795
-0.10336898267269135,0.2050464153289795,0.24683550000190735,0.05413433909416199,0.10836043953895569,0.06897485256195068
0.12029682099819183,0.040549326688051224,0.2829399108886719,0.03554631769657135,0.07338246703147888,0.08926308155059814
0.19752664864063263,0.008877075277268887,0.19965879619121552,0.010284662246704102,0.05625706911087036,0.10661733150482178
0.009542996063828468,0.055815234780311584,0.25553619861602783,0.04218806326389313,0.026877135038375854,0.10694700479507446
-0.1872546374797821,-0.03725448250770569,0.2421393245458603,0.022099599242210388,-0.015679895877838135,0.0376276969909668
-0.0585816316306591,-0.11308782547712326,0.051052626222372055,-0.0023297667503356934,-0.03194701671600342,-0.034568607807159424
0.16956037282943726,-0.19697237014770508,-0.12523971498012543,0.005914166569709778,-0.04706248641014099,-0.05483633279800415
0.1530926525592804,-0.24826344847679138,-0.23620589077472687,0.016363024711608887,-0.027333706617355347,-0.037779271602630615
-0.044335782527923584,-0.262874037027359,-0.2967245876789093,0.008501365780830383,-0.009007096290588379,-0.03858715295791626
-0.186775803565979,-0.21923431754112244,-0.42549729347229004,-0.03079564869403839,-0.004882723093032837,-0.10008406639099121
-0.1252644956111908,0.18493731319904327,-0.4373840391635895,0.02845953404903412,0.0067099928855896,-0.07854729890823364
-0.17978501319885254,-0.05003003031015396,-0.42354050278663635,0.038867250084877014,0.043034642934799194,0.04274386167526245
-0.4826190769672394,-0.5180485248565674,-0.4832419455051422,0.011931464076042175,0.025201618671417236,0.01300656795501709
-0.8830806612968445,-0.7771734595298767,-0.5852936506271362,-0.11765100061893463,0.028020203113555908,-0.15638715028762817
-0.8109261393547058,-0.23861880600452423,-0.6936495900154114,-0.11719125509262085,0.021219253540039062,-0.29374486207962036
-0.10811581462621689,0.5860220193862915,-0.35081130266189575,-0.02734622359275818,0.10056284070014954,-0.14153945446014404
0.5795629620552063,0.3251344561576843,-0.007474593818187714,-0.021652549505233765,0.0806456208229065,0.022299110889434814
0.8697806000709534,-0.32998383045196533,-0.12227942794561386,-0.1252707988023758,0.02717682719230652,0.05051213502883911
0.6285486817359924,-0.42928633093833923,-0.5733707547187805,-0.1979994773864746,0.04572060704231262,0.06423348188400269
0.04441625997424126,-0.07023334503173828,-0.8021548390388489,-0.15100081264972687,0.08507859706878662,0.10536044836044312
-0.3397291898727417,0.13081927597522736,-0.8047524094581604,-0.055807143449783325,0.10094881057739258,0.1163790225982666
-0.231134831905365,0.19189245998859406,-0.6771321892738342,-0.008623301982879639,0.06923222541809082,0.08986860513687134
0.045376259833574295,0.11808186024427414,-0.5626476407051086,-0.016461551189422607,0.028930604457855225,0.10064005851745605
0.08056560158729553,-0.08052482455968857,-0.5407524108886719,-0.04244436323642731,0.0001017451286315918,0.1200069785118103
-0.10303156077861786,-0.0881740152835846,-0.5318371057510376,-0.04207813739776611,-0.03059449791908264,0.06719386577606201
-0.20522578060626984,0.05532130226492882,-0.48090603947639465,-0.034589290618896484,-0.041434019804000854,-0.01616668701171875
-0.10665344446897507,0.1498403400182724,-0.34522444009780884,-0.014059484004974365,-0.034776270389556885,-0.0385090708732605
0.05187112092971802,0.08439294248819351,-0.19446693360805511,-0.0038101300597190857,-0.06646987795829773,-0.04886502027511597
0.09677736461162567,0.021194884553551674,-0.07837451994419098,-0.034933269023895264,-0.07335811853408813,-0.058279216289520264
-0.001166207017377019,-0.013179224915802479,-0.024226492270827293,-0.07126574218273163,-0.08143377304077148,-0.09978318214416504
-0.009938984178006649,0.1755734533071518,0.021020378917455673,-0.0793667659163475,-0.06448209285736084,-0.13185840845108032
0.05237947776913643,0.15295439958572388,0.1426016241312027,-0.01647891104221344,-0.07184845209121704,-0.04307347536087036
-0.013294609263539314,-0.35471680760383606,0.18550513684749603,-0.062460049986839294,-0.0588381290435791,-0.05750930309295654
-0.1420682668685913,-0.43237099051475525,0.023858822882175446,-0.10054509341716766,-0.04461795091629028,-0.16598206758499146
-0.14133809506893158,-0.2948063611984253,-0.0833524689078331,-0.0639418214559555,0.020003795623779297,-0.20847880840301514
0.21518805623054504,0.05894666537642479,0.04313596338033676,-0.022273529320955276,0.08086255192756653,-0.19049346446990967
0.654103696346283,0.2130577117204666,0.15143030881881714,-0.021088439971208572,0.11681053042411804,-0.055793166160583496
0.8812699913978577,0.16658294200897217,0.18817926943302155,-0.01260577142238617,0.11290305852890015,0.06235140562057495
0.7770885229110718,-0.0947122648358345,0.07826992124319077,-0.036454781889915466,0.10010123252868652,0.14353227615356445
0.3521987497806549,-0.49478405714035034,-0.24493131041526794,-0.07691213488578796,0.07727169990539551,0.1384948492050171
-0.2010086178779602,-0.5102342963218689,-0.5840505361557007,-0.09591753780841827,0.10716456174850464,0.020682096481323242
-0.4360174238681793,-0.1270190328359604,-0.6535324454307556,-0.0544452965259552,0.1629554033279419,-0.04280662536621094
-0.22439660131931305,0.14423951506614685,-0.43746933341026306,-0.005737680941820145,0.14780279994010925,-0.024017274379730225
0.11330604553222656,-0.011746443808078766,-0.39603307843208313,-0.037566930055618286,0.08448615670204163,0.013888776302337646
0.25525692105293274,-0.1944389045238495,-0.5245998501777649,-0.06366199254989624,0.0671667754650116,0.05700790882110596
0.15735600888729095,-0.18295779824256897,-0.5200119614601135,-0.045618653297424316,0.055018067359924316,0.08485370874404907
0.021287702023983,-0.20788852870464325,-0.5023297071456909,-0.06729806959629059,0.02727442979812622,0.07705938816070557
0.022260304540395737,-0.30937260389328003,-0.5741866827011108,-0.06558357179164886,0.0015321969985961914,0.04362988471984863
0.11315583437681198,-0.4099085032939911,-0.6031854152679443,-0.054536763578653336,0.002105414867401123,0.03322798013687134
0.10762578248977661,-0.459679514169693,-0.678604781627655,-0.08887602388858795,-0.0007368028163909912,0.027690112590789795
-0.07123506814241409,-0.4668738543987274,-0.8777644634246826,-0.08065396547317505,0.008261442184448242,0.0031883716583251953
-0.2513332962989807,-0.4958643615245819,-0.9114381670951843,-0.04051433503627777,0.06510847806930542,0.0019569993019104004
-0.2550490200519562,-0.5368168354034424,-0.8025383949279785,-0.0282595157623291,0.0445401668548584,-0.06130373477935791
-0.13670188188552856,-0.5145015716552734,-0.7681277990341187,-0.009785309433937073,-0.013357758522033691,-0.025451183319091797
-0.3601897358894348,-1.1697152853012085,-0.9966013431549072,-0.14645878970623016,0.009614795446395874,-0.06742358207702637
-0.5143367052078247,-0.7272096872329712,-1.3189551830291748,-0.14038625359535217,0.0832606852054596,-0.22234410047531128
-0.5323408246040344,-0.1280560940504074,-1.3036303520202637,-0.06015406548976898,0.15440157055854797,-0.16016995906829834
-0.5435277819633484,-0.08484480530023575,-1.0329833030700684,0.01128866896033287,0.11607947945594788,-0.11893564462661743
-0.1107381135225296,-0.09893787652254105,-0.880057156085968,-0.033582672476768494,0.11482381820678711,-0.08599025011062622
0.45811304450035095,-0.14695298671722412,-0.8364721536636353,-0.06571073830127716,0.08542835712432861,0.0007508397102355957
0.6007934808731079,-0.6173240542411804,-0.8933740854263306,-0.13357305526733398,0.07699096202850342,0.0977293848991394
0.18873514235019684,-1.0374953746795654,-1.2129801511764526,-0.20188072323799133,0.04870712757110596,0.09133541584014893
-0.347179114818573,-0.9145334959030151,-1.548879623413086,-0.23114021122455597,0.032674968242645264,-0.013251185417175293
-0.4844963550567627,-0.2277786135673523,-1.675579309463501,-0.1845701038837433,0.08374950289726257,-0.021223843097686768
-0.2943430542945862,0.009994850493967533,-1.4727214574813843,-0.07642044126987457,0.05719178915023804,0.06270629167556763
-0.06953056156635284,-0.3629916310310364,-1.3522288799285889,-0.07695053517818451,-0.021817445755004883,0.06355249881744385
0.058750808238983154,-0.5221397876739502,-1.3717612028121948,-0.130010724067688,-0.04778045415878296,0.027246177196502686
-0.0015603345818817616,-0.3639954924583435,-1.4224375486373901,-0.14956152439117432,-0.066884845495224,-0.0011914968490600586
-0.08448012173175812,-0.1365886628627777,-1.4637131690979004,-0.10148880630731583,-0.06680747866630554,-0.0050983428955078125
-0.03351592272520065,-0.08858834207057953,-1.314090371131897,-0.03614306449890137,-0.06083625555038452,-0.018479347229003906
0.17552869021892548,-0.11269589513540268,-1.043117642402649,-0.020658567547798157,-0.06729918718338013,-0.02316838502883911
0.3294697403907776,-0.07063641399145126,-0.8586627244949341,-0.02352217584848404,-0.10141605138778687,0.0002682805061340332
0.2679225504398346,-0.13055938482284546,-0.7485854029655457,-0.01933416724205017,-0.12844964861869812,0.016790568828582764
0.1350041627883911,-0.1392965018749237,-0.6576908230781555,-0.038743868470191956,-0.12088623642921448,-0.015389204025268555
0.10829223692417145,-0.1718677580356598,-0.5705181956291199,-0.03212129324674606,-0.09640097618103027,-0.05008959770202637
0.14691589772701263,-0.060225144028663635,-0.5132865309715271,-0.0039853379130363464,-0.08151960372924805,-0.09784072637557983
0.1529412567615509,-0.14308291673660278,-0.29628661274909973,0.0469062477350235,-0.028422683477401733,-0.02359873056411743
-0.13643459975719452,-0.6249960660934448,-0.2055768519639969,-0.03138520568609238,-0.036991626024246216,-0.09236323833465576
-0.4672544002532959,-0.657108724117279,-0.3876416087150574,-0.07710229605436325,-0.025847822427749634,-0.20961862802505493
-0.32588234543800354,-0.1776868999004364,-0.3499603867530823,-0.002918139100074768,0.08087113499641418,-0.2227252721786499
0.17516562342643738,0.32187190651893616,0.056048717349767685,0.07516822218894958,0.13048255443572998,-0.1044989824295044
0.5309062600135803,0.2671005427837372,0.2724362909793854,0.07067256420850754,0.11929500102996826,0.005400121212005615
0.7213075160980225,0.041806045919656754,0.40387076139450073,0.05007646232843399,0.12657690048217773,0.0971289873123169
0.6737313866615295,-0.1155499666929245,0.38477540016174316,0.03141891211271286,0.11105889081954956,0.16489022970199585
0.24121835827827454,-0.3772616982460022,0.10216768831014633,0.0013789907097816467,0.0815996527671814,0.16442376375198364
-0.30846449732780457,-0.47305235266685486,-0.158356174826622,-0.011973142623901367,0.09666982293128967,0.0461847186088562
-0.4713001847267151,-0.18590477108955383,-0.23222026228904724,0.021525822579860687,0.12536504864692688,-0.030068933963775635
