rotation_x,rotation_y,rotation_z,acceleration_x,acceleration_y,acceleration_z
-0.1159316673874855,-0.15164801478385925,-0.5416339635848999,-0.08900661766529083,-0.05953380465507507,0.05455362796783447
-0.32412296533584595,0.5045661926269531,-0.631415843963623,-0.07509736716747284,-0.06347489356994629,-0.06644898653030396
-0.20275090634822845,0.7540850639343262,-0.6039025187492371,-0.022931262850761414,-0.02946096658706665,-0.20976018905639648
0.0041158441454172134,0.5294002294540405,-0.4865776300430298,-0.000883743166923523,-0.0057697296142578125,-0.2537972331047058
0.06508059054613113,0.06936286389827728,-0.37687182426452637,-0.012393154203891754,0.022097676992416382,-0.20010924339294434
-0.05067364126443863,-0.39285197854042053,-0.3239477872848511,-0.03711671382188797,0.06609061360359192,-0.08299499750137329
-0.24905751645565033,-0.6809802651405334,-0.3760150372982025,-0.06593597680330276,0.09086841344833374,0.026450812816619873
-0.3748425543308258,-0.8278719186782837,-0.45526278018951416,-0.06982780247926712,0.09497466683387756,0.08756393194198608
-0.3704184889793396,-0.713806688785553,-0.5153446793556213,-0.06566466391086578,0.08787396550178528,0.10649818181991577
-0.3277096152305603,-0.4507690370082855,-0.559681236743927,-0.05607607960700989,0.09582597017288208,0.11726456880569458
-0.32787513732910156,-0.1290498971939087,-0.6600527763366699,-0.059725821018218994,0.109855055809021,0.10019546747207642
-0.31331953406333923,0.09358498454093933,-0.7959458231925964,-0.060209400951862335,0.1112002432346344,0.04779863357543945
-0.23509663343429565,0.14897367358207703,-0.8739873170852661,-0.044414252042770386,0.0862327516078949,0.00020354986190795898
-0.1325162649154663,0.0310067106038332,-0.8718643188476562,-0.01725967973470688,0.06355655193328857,-0.009873926639556885
-0.08458984643220901,-0.1440427601337433,-0.7774671912193298,0.014817796647548676,0.04288056492805481,0.02639526128768921
-0.08304533362388611,-0.26929888129234314,-0.6138125658035278,0.03591150790452957,0.015499353408813477,0.07666957378387451
-0.1138714924454689,-0.2715676426887512,-0.42631053924560547,0.03655702620744705,0.010767579078674316,0.12644100189208984
-0.12813933193683624,-0.19397477805614471,-0.33484044671058655,-0.004678048193454742,0.016254544258117676,0.14934325218200684
-0.09966854006052017,-0.07777547836303711,-0.3121473789215088,-0.03088928759098053,0.02880263328552246,0.155647873878479
-0.08406531810760498,0.015851184725761414,-0.33005616068840027,-0.044378139078617096,0.047378718852996826,0.15879303216934204
-0.11192306876182556,0.06044728681445122,-0.3990735709667206,-0.05935671180486679,0.048265427350997925,0.1513037085533142
-0.13597778975963593,0.07273009419441223,-0.41930943727493286,-0.05242078751325607,0.033479243516922,0.13164013624191284
-0.132935032248497,0.04173018038272858,-0.3625280559062958,-0.0342794805765152,0.013396978378295898,0.10428357124328613
-0.20038773119449615,-0.042004115879535675,-0.26046696305274963,-0.023108109831809998,0.0009389817714691162,0.09232825040817261
-0.30506354570388794,-0.10535739362239838,-0.16860149800777435,-0.025969430804252625,-0.01451045274734497,0.06454658508300781
-0.3838297724723816,-0.10740597546100616,-0.0812121033668518,-0.024757884442806244,-0.014527618885040283,0.018731772899627686
-0.4102109968662262,-0.02965521812438965,-0.02741711214184761,-0.02943691611289978,-0.017725497484207153,-0.053143322467803955
-0.3407447040081024,0.07704785466194153,0.02232634276151657,-0.018748149275779724,-0.0010654628276824951,-0.13265162706375122
-0.24487341940402985,0.11940617114305496,0.02655717357993126,-0.004773937165737152,0.04341354966163635,-0.17648041248321533
-0.1883014589548111,0.09799626469612122,0.022785527631640434,0.011773772537708282,0.06545117497444153,-0.1663419008255005
-0.23253360390663147,0.10633794218301773,0.08871128410100937,0.008918307721614838,0.04110637307167053,-0.13768458366394043
-0.4045789837837219,0.16394533216953278,0.23263034224510193,0.022578164935112,-0.005072072148323059,-0.12533658742904663
-0.6375157833099365,0.39507272839546204,0.4931739866733551,0.04982907325029373,-0.02649112045764923,-0.18497049808502197
-0.6296387910842896,0.3495599627494812,0.7163160443305969,0.05863916128873825,-0.007729008793830872,-0.3089680075645447
-0.40901750326156616,0.07086590677499771,0.8409819602966309,0.0264345183968544,0.029557839035987854,-0.3324952721595764
-0.17024296522140503,-0.20016595721244812,0.7743839621543884,-0.030509158968925476,0.04997895658016205,-0.24448436498641968
0.005182481370866299,-0.4237818419933319,0.5734785199165344,-0.04673825949430466,0.06969262659549713,-0.10751718282699585
0.1684277355670929,-0.5800994038581848,0.31255611777305603,-0.03307764232158661,0.0567084401845932,0.0315394401550293
0.32853907346725464,-0.5468788146972656,0.091873899102211,0.01098843663930893,0.020879626274108887,0.1513383984565735
0.37269681692123413,-0.170400932431221,0.008698884397745132,0.061052560806274414,-0.0063745975494384766,0.23129254579544067
0.22122465074062347,0.3950165808200836,0.05346677824854851,0.09792375564575195,-0.02804480493068695,0.2608491778373718
-0.04015420004725456,0.822221040725708,0.15320056676864624,0.09247022122144699,-0.03151080012321472,0.20435500144958496
-0.23056644201278687,0.8637374043464661,0.24784621596336365,0.07569196820259094,0.0003911703824996948,0.07524526119232178
-0.3411329984664917,0.5482397079467773,0.2872091233730316,0.038636356592178345,0.027583688497543335,-0.017736852169036865
-0.2951884865760803,0.11855297535657883,0.2006257325410843,-0.028386518359184265,0.01938435435295105,-0.058953046798706055
-0.07788916677236557,-0.11807089298963547,0.035387519747018814,-0.08587613701820374,0.008946120738983154,-0.037509918212890625
0.07756470888853073,-0.17648886144161224,-0.15230688452720642,-0.0830792561173439,0.019571125507354736,0.04511761665344238
0.08888903260231018,-0.07297982275485992,-0.29849302768707275,-0.05511444807052612,0.0010463744401931763,0.1160738468170166
0.08276056498289108,0.12001653015613556,-0.3380231261253357,-0.024475589394569397,-0.03282366693019867,0.13188034296035767
0.09591139107942581,0.29173749685287476,-0.28779709339141846,-0.019161060452461243,-0.05297839641571045,0.12934589385986328
0.05965867638587952,0.3727604150772095,-0.24222026765346527,-0.03383044898509979,-0.0544101744890213,0.11920136213302612
-0.009374184533953667,0.3093841075897217,-0.22871777415275574,-0.02859703078866005,-0.03516213595867157,0.08832377195358276
-0.04967838525772095,0.16854321956634521,-0.2426426112651825,-0.01945570856332779,-0.036063820123672485,0.052226126194000244
-0.04220810532569885,0.02881251461803913,-0.24922387301921844,-0.01070774719119072,-0.056147828698158264,0.020056962966918945
0.043582674115896225,-0.06647826731204987,-0.21550461649894714,-0.0021869689226150513,-0.07319499552249908,-0.0009199976921081543
0.11098514497280121,-0.12868918478488922,-0.14549943804740906,-0.0006438829004764557,-0.07962676882743835,0.006448328495025635
0.1615549474954605,-0.1808808445930481,-0.1198926791548729,-0.017285041511058807,-0.07375384867191315,0.01610046625137329
0.19293324649333954,-0.2485654205083847,-0.14535847306251526,-0.018661603331565857,-0.05162423849105835,0.02910459041595459
0.18936657905578613,-0.24331985414028168,-0.1900579184293747,-0.016474075615406036,-0.044445961713790894,0.03582477569580078
0.14929281175136566,-0.18254095315933228,-0.2315981090068817,0.0046647340059280396,-0.04005789756774902,0.008620023727416992
0.12158536165952682,-0.16871431469917297,-0.22385263442993164,0.04209781438112259,-0.030880630016326904,-0.042240023612976074
0.0997697114944458,-0.20837685465812683,-0.17137384414672852,0.06607039272785187,-0.0207546204328537,-0.08478963375091553
0.09714826196432114,-0.38372603058815,-0.06319627910852432,0.08058876544237137,-0.027455270290374756,-0.10818910598754883
0.062871053814888,-0.4847201406955719,0.06159841641783714,0.0465836375951767,-0.043716371059417725,-0.0947299599647522
-0.08508965373039246,-0.3285064697265625,0.10152406245470047,0.00018809735774993896,-0.03225862979888916,-0.07575762271881104
-0.2968011200428009,-0.21153339743614197,0.0728551521897316,-0.010008536279201508,-0.00395965576171875,-0.1131623387336731
-0.42158371210098267,-0.20772793889045715,0.04130160063505173,-0.019977852702140808,-0.009518146514892578,-0.18592113256454468
-0.40712589025497437,-0.29703617095947266,-0.00508603872731328,-0.024755634367465973,-0.009608536958694458,-0.23421776294708252
-0.24552473425865173,-0.4896649122238159,-0.11942397058010101,-0.029047980904579163,0.020959317684173584,-0.22099065780639648
-0.006344334222376347,-0.6622976660728455,-0.29051077365875244,-0.023053839802742004,0.058044448494911194,-0.11236780881881714
0.12503497302532196,-0.6693710684776306,-0.4486909806728363,-0.019806668162345886,0.06163947284221649,0.04405766725540161
0.11247407644987106,-0.40194982290267944,-0.5537427067756653,-0.015977442264556885,0.048911646008491516,0.1595209836959839
0.0017891079187393188,0.042789921164512634,-0.6133862733840942,-0.009961605072021484,0.04780472815036774,0.19375735521316528
-0.11554376780986786,0.4241505265235901,-0.6726516485214233,0.01862582564353943,0.06872591376304626,0.13039737939834595
-0.09861569106578827,0.5334098935127258,-0.6728649735450745,0.06148365139961243,0.08748385310173035,0.020612895488739014
-0.008567344397306442,0.448703408241272,-0.5727579593658447,0.10185728967189789,0.09230045974254608,-0.042473793029785156
0.0409076027572155,0.2409299910068512,-0.40443405508995056,0.11785957217216492,0.07504221796989441,-0.04666382074356079
0.02507985383272171,0.030918991193175316,-0.20503546297550201,0.10951535403728485,0.061819300055503845,-0.01027768850326538
0.016699055209755898,-0.07456152886152267,-0.04473547637462616,0.07518717646598816,0.050065070390701294,0.034399449825286865
0.03433782979846001,-0.10488372296094894,0.05126717686653137,0.04660065472126007,0.04406377673149109,0.08002728223800659
0.07052715867757797,-0.08109511435031891,0.08708470314741135,0.027580633759498596,0.03966453671455383,0.11494100093841553
0.09822434186935425,-0.01496447715908289,0.12583060562610626,0.033997341990470886,0.0465821772813797,0.1449415683746338
0.07930512726306915,0.06628765165805817,0.19426394999027252,0.03146125376224518,0.0296240895986557,0.16398048400878906
0.030721550807356834,0.13044214248657227,0.26825857162475586,0.014012545347213745,0.016597509384155273,0.16054564714431763
-0.034684114158153534,0.1677004098892212,0.31474569439888,-0.012280508875846863,0.007142990827560425,0.14105743169784546
-0.0808100476861,0.13520649075508118,0.31354567408561707,-0.029646381735801697,0.00010791420936584473,0.10698515176773071
-0.07164151221513748,0.08447007834911346,0.28382402658462524,-0.0392523854970932,0.0014593005180358887,0.07365578413009644
-0.028792457655072212,0.03971128165721893,0.26145046949386597,-0.04058744013309479,-0.0109805166721344,0.05662894248962402
-0.019718896597623825,0.052069518715143204,0.2657185196876526,-0.03251107037067413,-0.018918484449386597,0.05485963821411133
-0.04755769670009613,0.11569363623857498,0.3214457333087921,-0.02952626347541809,-0.030916810035705566,0.049736201763153076
-0.09701433777809143,0.18613550066947937,0.3834705948829651,-0.040276817977428436,-0.038126587867736816,0.015111148357391357
-0.12380997836589813,0.2419283241033554,0.4229532778263092,-0.0485440194606781,-0.027924850583076477,-0.04534226655960083
-0.09756573289632797,0.2281399369239807,0.3789578974246979,-0.057778604328632355,-0.0006701052188873291,-0.10703617334365845
-0.04694093018770218,0.1245943158864975,0.2900446355342865,-0.06079702079296112,0.030674949288368225,-0.1303318738937378
-0.025276625528931618,0.08403397351503372,0.20000796020030975,-0.07175055146217346,0.02763575315475464,-0.11854737997055054
-0.04343487694859505,0.1263999342918396,0.11463047564029694,-0.06479763984680176,0.012004807591438293,-0.10615980625152588
-0.0596361942589283,0.2491663098335266,0.11605749279260635,-0.02591538429260254,0.006395235657691956,-0.11948436498641968
-0.16302204132080078,0.3964976668357849,0.2171175628900528,0.04285383224487305,0.02575300633907318,-0.15504556894302368
-0.22014720737934113,0.3703010678291321,0.3525473475456238,0.06614336371421814,0.024197548627853394,-0.21906036138534546
-0.12634021043777466,0.16805388033390045,0.42473170161247253,0.02826603502035141,0.011471599340438843,-0.2536236643791199
-0.007224653847515583,-0.029904577881097794,0.36701905727386475,0.008139699697494507,0.030716031789779663,-0.2120147943496704
0.13888108730316162,-0.23727847635746002,0.20571421086788177,0.016253918409347534,0.050257518887519836,-0.13486862182617188
0.37966257333755493,-0.39294493198394775,0.045348770916461945,0.033953845500946045,0.04940773546695709,-0.022149384021759033
0.5782539248466492,-0.31410783529281616,-0.02062075585126877,0.05056796222925186,0.027765363454818726,0.11270081996917725
0.5181061625480652,0.04926575720310211,-0.013873204588890076,0.0647750124335289,0.008281484246253967,0.21935933828353882
0.2361859679222107,0.49426454305648804,0.04504760354757309,0.0759056806564331,-0.009612545371055603,0.22053998708724976
0.004798866808414459,0.677243709564209,0.1603340208530426,0.08234275877475739,-0.010884016752243042,0.10849273204803467
-0.08736784011125565,0.5001713633537292,0.29147398471832275,0.07248327881097794,0.0035096406936645508,-0.005834400653839111
-0.05459270253777504,0.1282842606306076,0.34778010845184326,0.02276208996772766,0.018071085214614868,-0.06697589159011841
0.09831148386001587,-0.22695140540599823,0.3038548529148102,-0.04546472430229187,0.02718271315097809,-0.03489130735397339
0.1871100515127182,-0.29655465483665466,0.18411660194396973,-0.08788464963436127,0.029981672763824463,0.07058733701705933
0.16814717650413513,-0.15799292922019958,0.03738075867295265,-0.09068234264850616,0.018395498394966125,0.15269261598587036
0.14428819715976715,0.04597735404968262,-0.04848803952336311,-0.07959035784006119,-0.004223808646202087,0.1755390763282776
0.1255372166633606,0.157492995262146,-0.06241191178560257,-0.06804417073726654,-0.010776892304420471,0.16458803415298462
0.08713346719741821,0.12177377939224243,-0.07452429831027985,-0.06157797574996948,-0.005685657262802124,0.14768779277801514
0.019446615129709244,0.029653524979948997,-0.09875284135341644,-0.050386227667331696,0.0015844106674194336,0.1361181139945984
-0.11139640212059021,-0.02264305204153061,-0.11172493547201157,-0.035720065236091614,-0.0012821704149246216,0.1270098090171814
-0.21210895478725433,-0.05795026198029518,-0.12425840646028519,-0.015516035258769989,-0.016746103763580322,0.08183765411376953
-0.17344596982002258,-0.12404999881982803,-0.09637440741062164,0.004379346966743469,-0.0281674861907959,0.025361239910125732
-0.06856769323348999,-0.2080952525138855,-0.08556939661502838,-0.004364639520645142,-0.031060367822647095,0.00907742977142334
-0.0017419795040041208,-0.2928244173526764,-0.16352593898773193,-0.02680400013923645,-0.031019270420074463,0.033332228660583496
0.016046220436692238,-0.3702695369720459,-0.2807372808456421,-0.028209976851940155,-0.031205281615257263,0.07095527648925781
0.026309050619602203,-0.39066341519355774,-0.3725288212299347,-0.016529932618141174,-0.043797850608825684,0.1009831428527832
0.03514079377055168,-0.3277783691883087,-0.4538281261920929,-0.002454422414302826,-0.05154658854007721,0.11391198635101318
-0.02631547674536705,-0.19402366876602173,-0.4904462695121765,0.016300208866596222,-0.05016323924064636,0.10862064361572266
-0.12010844796895981,-0.07764361798763275,-0.5068599581718445,0.04029422998428345,-0.049458980560302734,0.04738330841064453
-0.19580784440040588,-0.08913540840148926,-0.4752623438835144,0.0615936815738678,-0.04864200949668884,-0.041024625301361084
-0.29632478952407837,-0.1554664671421051,-0.3977266550064087,0.05263723433017731,-0.07851499319076538,-0.11897408962249756
-0.4634665250778198,-0.11074592918157578,-0.2835322618484497,0.023436374962329865,-0.09199421107769012,-0.20477980375289917
-0.4844835102558136,-0.14450448751449585,-0.23001645505428314,0.005165696144104004,-0.06894546747207642,-0.32546550035476685
-0.30664265155792236,-0.28475990891456604,-0.266387403011322,-0.014035061001777649,-0.03824689984321594,-0.38184577226638794
-0.1569652259349823,-0.3760339617729187,-0.35023850202560425,-0.02135252207517624,-0.026440709829330444,-0.3308376669883728
-0.09614662826061249,-0.3499290645122528,-0.41277816891670227,0.001668885350227356,-0.020246699452400208,-0.24154645204544067
0.007969819009304047,-0.32452961802482605,-0.45146480202674866,0.025644958019256592,-0.006647124886512756,-0.16733461618423462
0.1602371782064438,-0.36104705929756165,-0.4505951702594757,0.043935082852840424,0.012882784008979797,-0.07450228929519653
0.2399633377790451,-0.43370023369789124,-0.39925625920295715,0.055637747049331665,0.03441639244556427,0.04426681995391846
0.14311425387859344,-0.36416563391685486,-0.3331123888492584,0.04744383692741394,0.05399307608604431,0.14369893074035645
-0.0525897853076458,-0.11211314797401428,-0.2671903967857361,0.0440140962600708,0.06026163697242737,0.176474928855896
-0.19271524250507355,0.20906923711299896,-0.20276902616024017,0.04220983386039734,0.06816640496253967,0.13117164373397827
-0.19782230257987976,0.41197821497917175,-0.16684123873710632,0.04777845740318298,0.08595114946365356,0.04234510660171509
-0.15841318666934967,0.4586876332759857,-0.1133236289024353,0.055697016417980194,0.0898158997297287,-0.023193538188934326
-0.07239513099193573,0.3198278546333313,-0.021071428433060646,0.0716097354888916,0.08980295062065125,-0.05679112672805786
0.018532689660787582,0.10036243498325348,0.08633209019899368,0.057858631014823914,0.0886298269033432,-0.04334491491317749
0.0796208381652832,-0.09482210874557495,0.12150552868843079,0.01480703055858612,0.07777729630470276,0.02619403600692749
0.07914059609174728,-0.13747912645339966,0.08240123093128204,-0.015006370842456818,0.06131318211555481,0.10916507244110107
0.07522538304328918,-0.04191523417830467,0.029253125190734863,-0.016993947327136993,0.04146456718444824,0.16012650728225708
0.10327357798814774,0.10957857966423035,0.009305184707045555,-0.013801373541355133,0.021874532103538513,0.18489378690719604
0.11963360011577606,0.2602604925632477,0.04102982208132744,-0.0031837373971939087,0.019154220819473267,0.1952473521232605
0.05728696286678314,0.344729483127594,0.1008978858590126,-0.0011301636695861816,0.029503822326660156,0.19820404052734375
-0.08204013854265213,0.2981392741203308,0.15937544405460358,-0.014375731348991394,0.03294724225997925,0.17160606384277344
-0.15242207050323486,0.1645645797252655,0.20259161293506622,-0.03293360769748688,0.027684688568115234,0.11882627010345459
-0.125276580452919,0.04511087387800217,0.224722221493721,-0.056757502257823944,0.021727576851844788,0.08698785305023193
-0.08432596921920776,0.028246277943253517,0.17880560457706451,-0.07689860463142395,0.003192409873008728,0.07943862676620483
-0.07151779532432556,0.11984913051128387,0.10052737593650818,-0.08614419400691986,-0.0069824159145355225,0.06625580787658691
-0.08122360706329346,0.31220269203186035,0.016408801078796387,-0.08899392187595367,-0.022091016173362732,0.023457646369934082
-0.08899999409914017,0.4394666850566864,-0.03491510823369026,-0.06150849163532257,-0.022472068667411804,-0.055939435958862305
-0.08668570220470428,0.48847219347953796,-0.018201706930994987,-0.004967615008354187,-0.0058917999267578125,-0.141457200050354
-0.09692013263702393,0.4289523959159851,0.06021350622177124,0.03196951746940613,0.010954797267913818,-0.20681047439575195
-0.07750605791807175,0.25936540961265564,0.1383875459432602,0.02141927182674408,0.015541821718215942,-0.24071139097213745
-0.024360544979572296,0.11090004444122314,0.17190955579280853,-0.0066700279712677,0.020305469632148743,-0.2248438596725464
-0.09462831914424896,0.18802350759506226,0.18901412189006805,-0.013485357165336609,0.015618577599525452,-0.1770009994506836
-0.259921133518219,0.3442859649658203,0.25571346282958984,0.030244871973991394,0.020229876041412354,-0.1867891550064087
-0.24662825465202332,0.28642016649246216,0.3833257257938385,0.0525190494954586,0.034790098667144775,-0.25225502252578735
-0.06534819304943085,0.028637049719691277,0.42462214827537537,0.010346628725528717,0.037416741251945496,-0.23815876245498657
0.11117101460695267,-0.2157563865184784,0.31326937675476074,-0.012829352170228958,0.05763597786426544,-0.134271502494812
0.24671410024166107,-0.3621242344379425,0.14731445908546448,0.0006625540554523468,0.06182268261909485,-0.007071793079376221
0.4002610743045807,-0.4064924120903015,0.024716731160879135,0.03909257426857948,0.0496227890253067,0.10437202453613281
0.5297262072563171,-0.2914506196975708,0.025770477950572968,0.07478895783424377,0.027432024478912354,0.2009788155555725
0.4216500520706177,0.08009548485279083,0.12880851328372955,0.08409970253705978,-0.0025902241468429565,0.27698439359664917
0.1271028220653534,0.504631519317627,0.25370723009109497,0.09094429016113281,-0.0050432682037353516,0.2548639178276062
-0.13253392279148102,0.6954503655433655,0.39004525542259216,0.09464617818593979,0.027854979038238525,0.13486284017562866
-0.3159657418727875,0.5588206648826599,0.5131993293762207,0.06555081903934479,0.04774220287799835,0.005898535251617432
-0.34956124424934387,0.2819066643714905,0.5066084265708923,-0.016031689941883087,0.04140198230743408,-0.08203667402267456
-0.15555545687675476,-0.024819504469633102,0.3649725914001465,-0.08887486904859543,0.03460969030857086,-0.1208459734916687
0.11009244620800018,-0.19559454917907715,0.16231054067611694,-0.11307206004858017,0.04906371235847473,-0.07021009922027588
0.20222896337509155,-0.16321176290512085,-0.028828417882323265,-0.10137760639190674,0.032950371503829956,0.034546852111816406
0.15231119096279144,0.003055204637348652,-0.13591432571411133,-0.06906319409608841,-0.002234324812889099,0.09352314472198486
0.1019287034869194,0.14448511600494385,-0.10615233331918716,-0.03575720638036728,-0.01538732647895813,0.0934520959854126
0.06008540838956833,0.16188101470470428,-0.06092387065291405,-0.015972010791301727,-0.0024667680263519287,0.07937026023864746
-0.013488893397152424,0.05705144256353378,-0.07649011164903641,-0.007253661751747131,0.019303113222122192,0.07832908630371094
-0.07735408842563629,-0.10262048244476318,-0.12542229890823364,-0.009405180811882019,0.017126649618148804,0.08290904760360718
-0.0654187873005867,-0.2796163558959961,-0.1650492399930954,-0.008438900113105774,-0.0037597715854644775,0.08350181579589844
-0.01789533533155918,-0.414221853017807,-0.19005492329597473,-0.0020264722406864166,-0.027178406715393066,0.09400159120559692
-0.0016744071617722511,-0.4657629430294037,-0.2324647307395935,0.018510952591896057,-0.04575103521347046,0.12327629327774048
-0.02467779442667961,-0.40610039234161377,-0.23455661535263062,0.03619122505187988,-0.06605727970600128,0.1540239453315735
-0.05891721323132515,-0.2289525419473648,-0.22295185923576355,0.021232813596725464,-0.10187608003616333,0.15784329175949097
-0.053058236837387085,-0.030280515551567078,-0.2176094502210617,-0.0002550482749938965,-0.11852702498435974,0.11986029148101807
-0.0018694244790822268,0.04669705405831337,-0.22288937866687775,0.0065625011920928955,-0.09841880202293396,0.054979920387268066
0.03402851149439812,-0.008174781687557697,-0.22770023345947266,0.03375043720006943,-0.07286997139453888,0.006339073181152344
0.022594597190618515,-0.0774107575416565,-0.21948455274105072,0.05375207960605621,-0.05305013060569763,-0.03965228796005249
0.017408400774002075,-0.19404080510139465,-0.1628602147102356,0.07853798568248749,-0.05202716588973999,-0.08000290393829346
-0.0026182529982179403,-0.33152908086776733,-0.07550018280744553,0.07026658952236176,-0.07244575023651123,-0.09711802005767822
-0.013635221868753433,-0.4584459364414215,-0.03275235369801521,0.02624499797821045,-0.10571090877056122,-0.09513568878173828
-0.05265769734978676,-0.39783775806427,-0.005752593744546175,-0.013899214565753937,-0.11839526891708374,-0.09613281488418579
-0.15868330001831055,-0.1981661021709442,0.014332765713334084,-0.01641950011253357,-0.08726811408996582,-0.135412335395813
-0.20029036700725555,-0.1141461506485939,-0.018877383321523666,-0.022130928933620453,-0.05227360129356384,-0.23150986433029175
-0.0998486876487732,-0.19197139143943787,-0.09896673262119293,-0.04313420504331589,-0.03338852524757385,-0.29744529724121094
0.031976036727428436,-0.28863993287086487,-0.18297040462493896,-0.04195208102464676,-0.0004681050777435303,-0.27550989389419556
0.10660277307033539,-0.34762513637542725,-0.25527623295783997,-0.021180294454097748,0.03800684213638306,-0.19459998607635498
0.14530299603939056,-0.44736358523368835,-0.31473878026008606,-0.012090623378753662,0.05347093939781189,-0.14751094579696655
0.1934477835893631,-0.5331584811210632,-0.3679027259349823,-0.011501505970954895,0.07070203125476837,-0.045773983001708984
0.24777965247631073,-0.48378872871398926,-0.3940470814704895,-0.014790445566177368,0.07802395522594452,0.04686063528060913
0.20920462906360626,-0.19342446327209473,-0.4252092242240906,-0.012392401695251465,0.09518730640411377,0.12228089570999146
0.08170243352651596,0.19473038613796234,-0.46682676672935486,-0.0065295398235321045,0.10815507173538208,0.14650613069534302
0.03210541978478432,0.4217507243156433,-0.4429839849472046,0.020982861518859863,0.11968132853507996,0.08486616611480713
0.05523167923092842,0.3680140972137451,-0.292191743850708,0.06715062260627747,0.12325291335582733,-0.021927356719970703
0.07315915822982788,0.11448336392641068,-0.10406511276960373,0.09780901670455933,0.13111218810081482,-0.09071791172027588
0.14326618611812592,-0.19794662296772003,0.03269069269299507,0.09104729443788528,0.1285189390182495,-0.10961151123046875
0.23468735814094543,-0.40459296107292175,0.08411677926778793,0.06567063182592392,0.13821078836917877,-0.07098197937011719
0.2565308213233948,-0.4367372393608093,0.043001092970371246,0.03973335027694702,0.14867541193962097,0.026026904582977295
0.22262388467788696,-0.35071274638175964,0.049428436905145645,0.0486958771944046,0.13639220595359802,0.11545664072036743
0.19146135449409485,-0.19408896565437317,0.11917881667613983,0.07246993482112885,0.10966569185256958,0.16672921180725098
0.12452556192874908,-0.04418672248721123,0.23187988996505737,0.0868297666311264,0.09532448649406433,0.1950070858001709
0.0014302567578852177,0.04677761718630791,0.3226431906223297,0.09164294600486755,0.08872511982917786,0.21354591846466064
-0.10674498975276947,0.09203460067510605,0.3841664493083954,0.07725384831428528,0.07861433923244476,0.20020925998687744
-0.1797333061695099,0.09786776453256607,0.3874151408672333,0.06844013929367065,0.08031006157398224,0.17082911729812622
-0.2116411179304123,0.12518081068992615,0.3515837788581848,0.048158422112464905,0.06690046191215515,0.14320635795593262
-0.20616625249385834,0.13313299417495728,0.35974425077438354,0.04610462486743927,0.03916405141353607,0.11143547296524048
-0.19041681289672852,0.165156751871109,0.4013076424598694,0.045533016324043274,0.004187867045402527,0.08803653717041016
-0.17612767219543457,0.21969537436962128,0.4485829472541809,0.043211475014686584,-0.015645533800125122,0.0626903772354126
-0.1821250468492508,0.3048141896724701,0.483589231967926,0.04202362895011902,-0.019557654857635498,0.0435636043548584
-0.24176159501075745,0.4149957299232483,0.5063635110855103,0.038102805614471436,-0.015793651342391968,-0.003983438014984131
-0.30650898814201355,0.5082425475120544,0.5251477956771851,0.04895004630088806,-0.013753384351730347,-0.07465463876724243
-0.23161979019641876,0.421970933675766,0.5751577615737915,0.053517863154411316,-0.010503947734832764,-0.161376953125
-0.03087647631764412,0.24841463565826416,0.6247659921646118,0.01733703911304474,-0.01229831576347351,-0.19204550981521606
0.10845045745372772,0.1393285095691681,0.633132815361023,-0.010064855217933655,-0.026043936610221863,-0.144025981426239
0.05371377244591713,0.19048696756362915,0.6293267011642456,-0.003870151937007904,-0.04428914189338684,-0.09991836547851562
-0.12329812347888947,0.40958815813064575,0.7067496180534363,0.04484323412179947,-0.04470580816268921,-0.1256740689277649
-0.26706236600875854,0.6412587761878967,0.8838028311729431,0.12144874781370163,-0.017010629177093506,-0.24693912267684937
-0.13193123042583466,0.5862536430358887,1.0474241971969604,0.11529561877250671,-0.005464717745780945,-0.36464643478393555
0.15428254008293152,0.405051052570343,1.0765268802642822,0.08309285342693329,0.03255949914455414,-0.3662213087081909
0.36235809326171875,0.22373799979686737,0.934445858001709,0.07944553345441818,0.08510471880435944,-0.24829775094985962
0.39428091049194336,0.06276565045118332,0.788003146648407,0.10710635036230087,0.0963098406791687,-0.09760349988937378
0.44268566370010376,-0.021183805540204048,0.7404847741127014,0.1390361338853836,0.0704956203699112,0.02984529733657837
0.5322082042694092,0.07950591295957565,0.8211221098899841,0.17989495396614075,0.06696595251560211,0.13045012950897217
0.5710461735725403,0.25399085879325867,0.9654293656349182,0.21967285871505737,0.0796961635351181,0.19999480247497559
0.4987572729587555,0.4717646837234497,1.1374353170394897,0.2302272468805313,0.10132308304309845,0.23615896701812744
0.2741307020187378,0.677479088306427,1.2975519895553589,0.21475890278816223,0.12290897965431213,0.22457218170166016
-0.054003410041332245,0.76670902967453,1.4480845928192139,0.19347764551639557,0.1339835524559021,0.15318775177001953
-0.3254319131374359,0.6804441809654236,1.567825198173523,0.16212181746959686,0.138936385512352,0.03857296705245972
-0.41093719005584717,0.5309513211250305,1.6109389066696167,0.11363604664802551,0.13442900776863098,-0.06614559888839722
-0.27073249220848083,0.2946259081363678,1.5003527402877808,0.05312943458557129,0.127810537815094,-0.1250116229057312
-0.011217797175049782,0.10101047158241272,1.264986515045166,0.003108486533164978,0.1178741306066513,-0.10596340894699097
0.17521308362483978,0.057722266763448715,1.015723705291748,-0.017025507986545563,0.08676256239414215,-0.015256226062774658
0.22061796486377716,0.21485479176044464,0.8522949814796448,-0.02179703861474991,0.03336089849472046,0.07978266477584839
0.15700975060462952,0.39036768674850464,0.8279128670692444,-0.0022907890379428864,-0.0017079710960388184,0.1195443868637085
0.04650953784584999,0.43957436084747314,0.8732897639274597,0.004668213427066803,-0.03134244680404663,0.11132371425628662
-0.01818152144551277,0.3583815097808838,0.9383395910263062,0.016085322946310043,-0.03303776681423187,0.07490628957748413
-0.04885218292474747,0.2107630968093872,0.9861551523208618,0.028283387422561646,-0.019708842039108276,0.06048595905303955
-0.10234234482049942,0.11473620682954788,0.9647983908653259,0.016475822776556015,-0.018718495965003967,0.07280415296554565
-0.138271301984787,0.07760430872440338,0.891074538230896,0.0019118934869766235,-0.01947253942489624,0.07314842939376831
-0.10258126258850098,0.03767537325620651,0.775464653968811,-0.010153181850910187,-0.025483816862106323,0.06267428398132324
-0.05001576617360115,0.0037812679074704647,0.6476268768310547,-0.010834254324436188,-0.044121578335762024,0.0680968165397644
-0.03251278027892113,-0.014503199607133865,0.5197960138320923,-0.010180599987506866,-0.07194536924362183,0.09221440553665161
-0.03375084325671196,0.02021739073097706,0.4288836121559143,-0.0005331337451934814,-0.09750407934188843,0.10174006223678589
-0.02444026805460453,0.04018719494342804,0.38442912697792053,0.0033836886286735535,-0.1162535548210144,0.08707171678543091
-0.009120565839111805,0.04863345995545387,0.3444803059101105,-0.011066410690546036,-0.12569975852966309,0.05941426753997803
0.05506419017910957,0.058968234807252884,0.31140410900115967,-0.021751046180725098,-0.12361492216587067,0.011638402938842773
0.17805509269237518,0.017686232924461365,0.2800743281841278,-0.0161886028945446,-0.11687694489955902,-0.03346139192581177
0.2923380434513092,-0.024340489879250526,0.18895223736763,0.008547469973564148,-0.09952554106712341,-0.05728411674499512
0.3819056451320648,-0.06415340304374695,0.12041150033473969,0.047345034778118134,-0.09357529878616333,-0.058679044246673584
0.365323007106781,0.08459994941949844,0.140727236866951,0.07019258290529251,-0.11866191029548645,-0.04917651414871216
0.09496720135211945,0.3856000006198883,0.3288151025772095,0.12819179892539978,-0.12704606354236603,-0.0984458327293396
-0.1315220296382904,0.4205529987812042,0.5842262506484985,0.1585903763771057,-0.11869271099567413,-0.2403530478477478
-0.06684069335460663,0.1826629936695099,0.7994620203971863,0.14210709929466248,-0.05923248827457428,-0.36021071672439575
0.14128509163856506,-0.1067662164568901,0.9112589359283447,0.11389384418725967,0.017369568347930908,-0.37236225605010986
0.34045863151550293,-0.4342478811740875,0.8632436394691467,0.08197026699781418,0.08570826053619385,-0.26915764808654785
0.4477008879184723,-0.6525824666023254,0.7423175573348999,0.05856585502624512,0.1200985461473465,-0.10817819833755493
0.500917911529541,-0.6256765723228455,0.6275080442428589,0.06254706531763077,0.12358950078487396,0.03437525033950806
0.4911375939846039,-0.3905353248119354,0.5692485570907593,0.09138055890798569,0.12340204417705536,0.13623511791229248
0.41570258140563965,-0.017279546707868576,0.5618941783905029,0.11769818514585495,0.11225314438343048,0.18055450916290283
0.2760908007621765,0.4044485092163086,0.6641542911529541,0.14123861491680145,0.11088433861732483,0.1697913408279419
0.10877704620361328,0.6791875958442688,0.7856554388999939,0.14260156452655792,0.11851823329925537,0.09706968069076538
-0.02745525911450386,0.736277163028717,0.8811280727386475,0.13724485039710999,0.1423357129096985,-0.00843799114227295
-0.09645123034715652,0.6395509243011475,0.9672258496284485,0.13502220809459686,0.16072237491607666,-0.10869729518890381
-0.09167012572288513,0.39002180099487305,0.9851130247116089,0.11705152690410614,0.16045919060707092,-0.17347347736358643
0.002385412808507681,0.08278788626194,0.9437422752380371,0.10297951847314835,0.15854817628860474,-0.18177998065948486
0.15078292787075043,-0.16478833556175232,0.8729943633079529,0.10500931739807129,0.15534844994544983,-0.10574209690093994
0.2510872483253479,-0.18482157588005066,0.7837209105491638,0.10129492729902267,0.13537877798080444,0.020394206047058105
0.293143630027771,-0.06086372584104538,0.7272060513496399,0.12267792969942093,0.11194825172424316,0.13020062446594238
0.2726888060569763,0.07302132993936539,0.7721917033195496,0.15585798025131226,0.08718499541282654,0.21058166027069092
0.14887596666812897,0.2677309811115265,0.9314550161361694,0.16658145189285278,0.05675247311592102,0.26241379976272583
-0.05920897424221039,0.49383801221847534,1.1672016382217407,0.1557351052761078,0.03162190318107605,0.27100497484207153
-0.2452993094921112,0.669987678527832,1.3810811042785645,0.1152082160115242,0.03334760665893555,0.21164435148239136
-0.3166181445121765,0.6921128034591675,1.4903475046157837,0.08105483651161194,0.05219709873199463,0.10752493143081665
-0.30422908067703247,0.5737159252166748,1.5306915044784546,0.05195654183626175,0.06733506917953491,0.026755869388580322
-0.2955920696258545,0.3973309099674225,1.4917532205581665,0.011932164430618286,0.07134892046451569,-0.02428978681564331
-0.23502486944198608,0.24573460221290588,1.3996164798736572,-0.01962520182132721,0.05296295881271362,-0.0596809983253479
-0.13470762968063354,0.23598960041999817,1.343942403793335,-0.0304175466299057,0.029443830251693726,-0.06409257650375366
-0.055088941007852554,0.3155091404914856,1.316968321800232,-0.03128041326999664,0.0020461678504943848,-0.053119659423828125
0.00991053692996502,0.3956056833267212,1.2958756685256958,-0.028614908456802368,-0.019583433866500854,-0.056375741958618164
0.10492686927318573,0.45149219036102295,1.2931684255599976,-0.023711025714874268,-0.03228498995304108,-0.07889896631240845
0.18623605370521545,0.436897337436676,1.3095815181732178,-0.01724378764629364,-0.037030115723609924,-0.08257967233657837
0.18890827894210815,0.362591952085495,1.356277346611023,-0.01306913048028946,-0.03780104219913483,-0.06251215934753418
0.1289198398590088,0.29947221279144287,1.421236515045166,-0.01115233451128006,-0.03205119073390961,-0.04078394174575806
0.11680683493614197,0.24407696723937988,1.4604034423828125,-0.017906129360198975,-0.021857768297195435,-0.03938072919845581
0.1645919382572174,0.17193247377872467,1.4691524505615234,-0.024887174367904663,0.008281126618385315,-0.03463929891586304
0.1937686651945114,0.172250434756279,1.4488533735275269,-0.04283756762742996,0.020552873611450195,-0.014956176280975342
0.19425569474697113,0.2472010850906372,1.423004388809204,-0.046557605266571045,0.020745456218719482,-0.019755780696868896
0.2042323648929596,0.3576720356941223,1.397204875946045,-0.040990233421325684,0.02044662833213806,-0.0566401481628418
0.20936113595962524,0.4976692497730255,1.3543851375579834,-0.023979566991329193,0.043418630957603455,-0.0951879620552063
0.10437419265508652,0.5943376421928406,1.3132412433624268,0.027124948799610138,0.06895612180233002,-0.12980860471725464
-0.029413433745503426,0.5655654668807983,1.2926015853881836,0.08017435669898987,0.040164217352867126,-0.2022199034690857
-0.03799936920404434,0.381831556558609,1.3907198905944824,0.1332835853099823,0.029539883136749268,-0.2608256936073303
0.12489191442728043,0.04113849997520447,1.507958173751831,0.16769593954086304,0.046260565519332886,-0.25380152463912964
0.3847039043903351,-0.275356650352478,1.5159852504730225,0.17649748921394348,0.088958740234375,-0.13789427280426025
0.5472740530967712,-0.2898213565349579,1.4429808855056763,0.1784875988960266,0.1281876415014267,0.03847086429595947
0.5760467648506165,0.012915943749248981,1.4012924432754517,0.18984316289424896,0.1293371319770813,0.1614776849746704
0.47527220845222473,0.43766218423843384,1.4875071048736572,0.20424357056617737,0.13441228866577148,0.21793228387832642
0.2772301435470581,0.7098755836486816,1.6757467985153198,0.2043035924434662,0.13391153514385223,0.2105315923690796
0.018302617594599724,0.7332152128219604,1.8777745962142944,0.18597246706485748,0.1547575145959854,0.1570948362350464
-0.24927359819412231,0.6034591794013977,2.004539966583252,0.13297683000564575,0.17972396314144135,0.09554123878479004
-0.43703100085258484,0.48685750365257263,1.9526081085205078,0.06595398485660553,0.17994801700115204,0.01684701442718506
-0.4155786335468292,0.35570746660232544,1.7313734292984009,0.018989652395248413,0.16772955656051636,-0.06557196378707886
-0.19016680121421814,0.27205890417099,1.4771462678909302,0.0065222010016441345,0.1481187492609024,-0.11019885540008545
0.07678576558828354,0.1760331392288208,1.2677550315856934,0.021689914166927338,0.11494110524654388,-0.08432352542877197
0.20512375235557556,0.22004272043704987,1.17673921585083,0.037011824548244476,0.07241669297218323,-0.0034716129302978516
0.22490555047988892,0.3900047838687897,1.1795865297317505,0.046745665371418,0.0383065789937973,0.060313284397125244
0.12835387885570526,0.5280572772026062,1.246395230293274,0.04795123636722565,0.020274654030799866,0.08954954147338867
-0.036429405212402344,0.5348465442657471,1.2854278087615967,0.052688099443912506,0.016688808798789978,0.06728208065032959
-0.12373164296150208,0.377478688955307,1.2744903564453125,0.06113818660378456,0.02242112159729004,0.013444066047668457
-0.06509716808795929,0.24126969277858734,1.232674241065979,0.060823895037174225,0.013752192258834839,-0.020465731620788574
0.04864918068051338,0.19106779992580414,1.1730091571807861,0.052112385630607605,-0.0027906596660614014,-0.0033420920372009277
0.09474258124828339,0.23898044228553772,1.1015145778656006,0.03925001621246338,-0.01638634502887726,0.043002545833587646
0.08791713416576385,0.28561466932296753,1.0369960069656372,0.041344258934259415,-0.02302926778793335,0.07137930393218994
0.058396365493535995,0.29253149032592773,1.0055569410324097,0.03964760899543762,-0.03494483232498169,0.09000533819198608
0.001691719051450491,0.2548381984233856,1.0190945863723755,0.03367086872458458,-0.05444936454296112,0.09944099187850952
-0.05998962000012398,0.2144864946603775,1.0332274436950684,0.011933583766222,-0.06679081916809082,0.09485584497451782
-0.08284875005483627,0.13932126760482788,1.024699091911316,-0.0054359883069992065,-0.07635325193405151,0.08546102046966553
-0.07908939570188522,0.044918760657310486,1.0125435590744019,-0.013295501470565796,-0.07836419343948364,0.0789981484413147
-0.0813942700624466,-0.046664364635944366,1.001727819442749,-0.03067823126912117,-0.08372819423675537,0.07937377691268921
-0.11012426018714905,-0.12414499372243881,0.9661532044410706,-0.05409058928489685,-0.09112730622291565,0.06642156839370728
-0.06716734170913696,-0.232693612575531,0.9013924598693848,-0.06830275803804398,-0.09272435307502747,0.017451226711273193
0.059261880815029144,-0.33499544858932495,0.8196243047714233,-0.07151420414447784,-0.08129328489303589,-0.024176180362701416
0.16651248931884766,-0.3781582713127136,0.7503408789634705,-0.05295654386281967,-0.07349027693271637,-0.022507548332214355
0.19871379435062408,-0.39461803436279297,0.7159929871559143,-0.010921038687229156,-0.07017958164215088,-0.003953695297241211
0.12565629184246063,-0.34904745221138,0.7608785629272461,0.02916213870048523,-0.07892349362373352,0.007408022880554199
0.015559854917228222,-0.161769837141037,0.880210280418396,0.03975744545459747,-0.09421929717063904,-0.03425025939941406
0.05131639540195465,-0.14640645682811737,0.9859665036201477,0.057334743440151215,-0.07486391067504883,-0.126784086227417
0.22295154631137848,-0.3463294208049774,1.0380630493164062,0.06442864239215851,-0.026552453637123108,-0.16029059886932373
0.32917866110801697,-0.47896191477775574,1.0058143138885498,0.03586529195308685,-0.004907011985778809,-0.09549564123153687
0.2535678446292877,-0.42763498425483704,0.9404090642929077,0.015126198530197144,-0.020300060510635376,-0.022247254848480225
0.06830833852291107,-0.2918041944503784,0.9031292796134949,0.034101516008377075,-0.02604636549949646,-0.005153536796569824
-0.11485745757818222,-0.04502728953957558,0.9322128891944885,0.06556814908981323,-0.01578161120414734,-0.09637707471847534
-0.09409020841121674,-0.06011592224240303,0.9360929727554321,0.09114131331443787,0.01457667350769043,-0.22567665576934814
0.16826525330543518,-0.29347097873687744,0.8436777591705322,0.0729220062494278,0.0587521493434906,-0.288504421710968
0.5235850214958191,-0.6334792375564575,0.6127939224243164,0.05521848797798157,0.10038939118385315,-0.21352487802505493
0.6417869925498962,-0.6584651470184326,0.4272015392780304,0.07161843776702881,0.10072493553161621,-0.03179126977920532
0.5618951916694641,-0.3621559739112854,0.3706693649291992,0.1041734516620636,0.06398355960845947,0.08433961868286133
0.4563482403755188,0.03177959844470024,0.4851461946964264,0.1450064480304718,0.05121798813343048,0.10982745885848999
0.4006075859069824,0.2974807620048523,0.6801058053970337,0.17662422358989716,0.07392843067646027,0.06794917583465576
0.38477134704589844,0.3376186788082123,0.8684779405593872,0.19453442096710205,0.11093488335609436,0.016446292400360107
0.3349357545375824,0.2530655264854431,1.041780710220337,0.1849713921546936,0.14701113104820251,0.0011319518089294434
0.2304878979921341,0.1487644612789154,1.159124732017517,0.15238019824028015,0.1552984118461609,0.009482383728027344
0.1201573982834816,0.09713935106992722,1.2415692806243896,0.12618035078048706,0.15312457084655762,0.01337975263595581
0.10366811603307724,0.11667700856924057,1.2820700407028198,0.1018814742565155,0.14287330210208893,0.010439455509185791
0.15506231784820557,0.1317090392112732,1.282509446144104,0.077985018491745,0.13573510944843292,0.01997894048690796
0.21576687693595886,0.09608005732297897,1.2717489004135132,0.05498805642127991,0.11734536290168762,0.04398244619369507
0.2216072380542755,0.06846559792757034,1.2561123371124268,0.025381192564964294,0.08509799838066101,0.07941877841949463
0.15370753407478333,0.14121441543102264,1.2396855354309082,0.016236871480941772,0.05775943398475647,0.10710060596466064
0.08387544751167297,0.30774274468421936,1.2472130060195923,0.020130649209022522,0.04289039969444275,0.09424692392349243
0.08513876795768738,0.4820127785205841,1.2653781175613403,0.0026955902576446533,0.022951394319534302,0.053574323654174805
0.10735795646905899,0.6085936427116394,1.2778379917144775,-0.0011926144361495972,0.02197033166885376,0.005491971969604492
0.11391899734735489,0.6246488094329834,1.2773512601852417,-0.0064598917961120605,0.022802144289016724,-0.035277605056762695
0.08868107199668884,0.5634539723396301,1.258452296257019,-0.01292601227760315,0.024247005581855774,-0.06864547729492188
0.10625085234642029,0.4158360958099365,1.2115999460220337,-0.010596930980682373,0.021583542227745056,-0.10537689924240112
0.19332115352153778,0.24076470732688904,1.1725486516952515,-0.00488707423210144,0.004214361310005188,-0.10960602760314941
0.28171128034591675,0.1763826310634613,1.1611618995666504,-0.0036963820457458496,-0.019357115030288696,-0.06975388526916504
0.32568225264549255,0.18438926339149475,1.1479946374893188,-0.006493270397186279,-0.03171691298484802,-0.006008565425872803
0.3133089542388916,0.22960175573825836,1.1243544816970825,-0.011972576379776001,-0.03266341984272003,0.042984604835510254
0.31265366077423096,0.24364206194877625,1.0805697441101074,-0.019517436623573303,-0.03721660375595093,0.0694928765296936
0.3073329031467438,0.2891291677951813,1.0774871110916138,-0.014772266149520874,-0.03780968487262726,0.09223371744155884
0.2697840631008148,0.3214097321033478,1.0876662731170654,-0.013491421937942505,-0.043233513832092285,0.09597069025039673
0.2132110744714737,0.39008477330207825,1.1151515245437622,-0.01698462665081024,-0.0384010374546051,0.08333706855773926
0.16927658021450043,0.43778979778289795,1.1253288984298706,-0.024413451552391052,-0.029571831226348877,0.046801090240478516
0.16398121416568756,0.39789122343063354,1.1250462532043457,-0.015193209052085876,-0.010851085186004639,-0.002956390380859375
0.19735895097255707,0.30828413367271423,1.1320205926895142,-0.013454213738441467,0.0005818009376525879,-0.027750015258789062
0.20770147442817688,0.2531089186668396,1.1370220184326172,-0.029213503003120422,-0.0037726163864135742,-0.018709778785705566
0.1820441484451294,0.29551464319229126,1.125893235206604,-0.04314999282360077,-0.0077646225690841675,-0.013494551181793213
0.17415066063404083,0.4164886772632599,1.0877968072891235,-0.05193309485912323,-0.01160341501235962,-0.05095118284225464
0.24019458889961243,0.46749237179756165,1.0325719118118286,-0.03659580647945404,-0.0030113309621810913,-0.11421847343444824
0.3154269754886627,0.451580673456192,1.000259280204773,-0.014919966459274292,0.008457750082015991,-0.14705407619476318
0.2611730396747589,0.5160550475120544,0.9970023036003113,0.00530630350112915,0.014129504561424255,-0.15324664115905762
0.1863326132297516,0.4708321988582611,0.9932045936584473,0.03399932384490967,0.018749982118606567,-0.19611310958862305
0.2663700580596924,0.22826896607875824,0.983889102935791,0.05383691191673279,0.026894718408584595,-0.2042129635810852
0.3278147876262665,0.11357136070728302,0.923278272151947,0.05832618474960327,0.0317327082157135,-0.11829036474227905
0.2458227276802063,0.1682041585445404,0.8168559670448303,0.08749406039714813,0.0318375825881958,-0.019916415214538574
0.19327056407928467,0.25559213757514954,0.7983928918838501,0.1404518038034439,0.03295934200286865,0.023807227611541748
0.29581519961357117,0.3548533022403717,0.8974860310554504,0.1583227962255478,0.02699759602546692,0.05191558599472046
0.439642071723938,0.44526219367980957,1.0386781692504883,0.1372886300086975,0.03166699409484863,0.11009871959686279
0.4516823887825012,0.5295521020889282,1.1685998439788818,0.11507813632488251,0.06125691533088684,0.17392021417617798
0.33568382263183594,0.5662184357643127,1.2564412355422974,0.09187459945678711,0.0766712874174118,0.19847482442855835
0.193308487534523,0.6111677289009094,1.3367283344268799,0.06355760991573334,0.07224054634571075,0.17700576782226562
0.029313432052731514,0.6859817504882812,1.4506440162658691,0.05810907483100891,0.06429482996463776,0.11678540706634521
-0.09472566097974777,0.7119325995445251,1.5496279001235962,0.05298697203397751,0.063038170337677,0.0174105167388916
-0.14595723152160645,0.697441041469574,1.5943856239318848,0.03562484681606293,0.07634618878364563,-0.09204554557800293
-0.07406967133283615,0.5369318723678589,1.4943573474884033,-0.00119723379611969,0.0795041173696518,-0.18301844596862793
0.1375615894794464,0.23181407153606415,1.3158639669418335,-0.00920836627483368,0.08966411650180817,-0.2028120756149292
0.31434598565101624,-0.05408149212598801,1.1685066223144531,0.004663527011871338,0.08394080400466919,-0.09869939088821411
0.3018522262573242,-0.09166500717401505,1.0940196514129639,0.014136478304862976,0.06702013313770294,-0.017054319381713867
0.18738265335559845,0.016609765589237213,1.1054021120071411,0.02719348669052124,0.02741450071334839,0.1234734058380127
0.06038130447268486,0.16677017509937286,1.1532819271087646,0.03661665320396423,0.0021132826805114746,0.20083177089691162
-0.05482424050569534,0.26415136456489563,1.1843550205230713,0.03413228690624237,-0.006908297538757324,0.22545713186264038
-0.14957387745380402,0.23810207843780518,1.1478379964828491,0.0185663104057312,0.00023353099822998047,0.216935932636261
-0.2596653699874878,0.12368622422218323,1.079615592956543,-0.0033154934644699097,0.0006731897592544556,0.19195586442947388
-0.35767662525177,0.006045361049473286,1.0198323726654053,-0.015452563762664795,-0.024058043956756592,0.1672114133834839
-0.433095246553421,-0.03602402284741402,0.9516056776046753,-0.027768343687057495,-0.05795377492904663,0.14557719230651855
-0.4790751039981842,-0.03660930320620537,0.8360128402709961,-0.038930103182792664,-0.0837101936340332,0.11506867408752441
-0.4313059151172638,-0.019028352573513985,0.6982350945472717,-0.045222580432891846,-0.11375290155410767,0.06321060657501221
-0.32477253675460815,0.07544994354248047,0.5495153665542603,-0.05159872770309448,-0.12942157685756683,0.024525582790374756
-0.22288335859775543,0.18355797231197357,0.41201356053352356,-0.0664018988609314,-0.1516740620136261,0.0031815767288208008
-0.12650974094867706,0.25541022419929504,0.3038330078125,-0.08390386402606964,-0.16447791457176208,-0.01810401678085327
-0.06788747757673264,0.22871267795562744,0.22491422295570374,-0.0927305817604065,-0.16508948802947998,-0.048121750354766846
-0.04386559873819351,0.14286702871322632,0.14428889751434326,-0.09482182562351227,-0.15784206986427307,-0.07354265451431274
0.012412533164024353,0.06652635335922241,0.008054008707404137,-0.10705479234457016,-0.15237727761268616,-0.09831303358078003
0.156675785779953,0.00618210481479764,-0.1771383434534073,-0.11821702867746353,-0.13800081610679626,-0.13190197944641113
0.34836333990097046,-0.0498470664024353,-0.3370145261287689,-0.10209524631500244,-0.1215832307934761,-0.14708060026168823
0.398904949426651,0.07167528569698334,-0.41083505749702454,-0.10136193037033081,-0.14123013615608215,-0.11360162496566772
0.25584667921066284,0.37131330370903015,-0.4303305745124817,-0.10414835065603256,-0.16713741421699524,-0.0931885838508606
0.21732273697853088,0.43645963072776794,-0.4663739502429962,-0.08440616726875305,-0.1481366902589798,-0.1854318380355835
0.3305198550224304,0.2092091590166092,-0.49004945158958435,-0.05449937283992767,-0.09098610281944275,-0.29934757947921753
0.39858829975128174,-0.06417501717805862,-0.5413609743118286,-0.0370759516954422,-0.015298008918762207,-0.27664172649383545
0.3442993760108948,-0.20957793295383453,-0.6237915754318237,-0.033110007643699646,0.0147458016872406,-0.1833585500717163
0.238224059343338,-0.2654341459274292,-0.6332136392593384,-0.013158544898033142,0.022641390562057495,-0.09556710720062256
0.18824777007102966,-0.2531867027282715,-0.5514949560165405,-0.0045861005783081055,0.02650982141494751,-0.03155463933944702
0.25954750180244446,-0.1459389477968216,-0.4656871259212494,-0.01670973002910614,0.03888949751853943,0.012229681015014648
0.42676061391830444,-0.07538382709026337,-0.4114774167537689,-0.032759055495262146,0.07674179971218109,0.07173961400985718
0.5309368371963501,-0.021119439974427223,-0.4096386134624481,-0.06153012067079544,0.1108674556016922,0.16898173093795776
0.48847872018814087,0.0790688768029213,-0.4291778802871704,-0.0878031998872757,0.11681109666824341,0.252069890499115
0.31219175457954407,0.21575742959976196,-0.4246740937232971,-0.08251815289258957,0.11923101544380188,0.2811170816421509
0.05539880692958832,0.27919065952301025,-0.3138989210128784,-0.041482605040073395,0.1051604151725769,0.23764556646347046
-0.12223515659570694,0.19147296249866486,-0.1305536925792694,-0.0092998668551445,0.08365464210510254,0.13837683200836182
-0.13478177785873413,0.06350255757570267,0.04383449628949165,-0.02020643651485443,0.08373366296291351,0.05251532793045044
-0.11877953261137009,-0.03135211393237114,0.11187568306922913,-0.059882983565330505,0.09262970089912415,0.018393516540527344
-0.12687809765338898,-0.10263755917549133,0.05413006618618965,-0.08548572659492493,0.09693494439125061,0.01630425453186035
-0.1160837709903717,-0.13941633701324463,-0.031174223870038986,-0.08908528089523315,0.09340167045593262,0.01726245880126953
-0.07111621648073196,-0.14953124523162842,-0.06624604761600494,-0.07473013550043106,0.07851684093475342,0.03454023599624634
-0.08650871366262436,-0.1687721610069275,-0.04958217591047287,-0.06977324932813644,0.06242218613624573,0.0755690336227417
-0.15311330556869507,-0.17411108314990997,-0.05706092715263367,-0.08506150543689728,0.049605756998062134,0.12053513526916504
-0.21503561735153198,-0.12246064841747284,-0.12115317583084106,-0.1042127013206482,0.04759225249290466,0.14690428972244263
-0.23426033556461334,-0.051549721509218216,-0.21985074877738953,-0.10949917137622833,0.05297398567199707,0.1674378514289856
-0.2673695385456085,0.04398418590426445,-0.3297201097011566,-0.11038731783628464,0.053132832050323486,0.19476866722106934
-0.3336147964000702,0.14844273030757904,-0.4344359338283539,-0.1144593209028244,0.041452229022979736,0.20579391717910767
-0.4009406268596649,0.21830980479717255,-0.49556824564933777,-0.11620894819498062,0.02313213050365448,0.16560131311416626
-0.4262928366661072,0.22850698232650757,-0.5015982389450073,-0.10432248562574387,0.007833302021026611,0.08402889966964722
-0.4344206154346466,0.21291419863700867,-0.5177434682846069,-0.11950162053108215,-0.011082455515861511,-0.00675123929977417
-0.3622676134109497,0.1617378294467926,-0.5703709721565247,-0.1388227641582489,-0.032268792390823364,-0.10579442977905273
-0.1683635115623474,0.14252324402332306,-0.658818244934082,-0.1524311602115631,-0.040283203125,-0.1768946647644043
0.019682561978697777,0.17049948871135712,-0.7337383031845093,-0.1505490392446518,-0.054233551025390625,-0.19674831628799438
0.13350123167037964,0.15505672991275787,-0.7405275106430054,-0.12367052584886551,-0.06207650899887085,-0.1896180510520935
0.18017104268074036,0.036085233092308044,-0.6968833804130554,-0.11766117811203003,-0.06046919524669647,-0.1621459722518921
0.15049496293067932,-0.06375233083963394,-0.6869025826454163,-0.11977578699588776,-0.055629655718803406,-0.12838321924209595
0.07548949122428894,-0.0948728546500206,-0.7187624573707581,-0.09878966212272644,-0.05374239385128021,-0.12597137689590454
-0.00817349087446928,0.04816350340843201,-0.6807013154029846,-0.03696964681148529,-0.051504164934158325,-0.15600937604904175
-0.04767632856965065,0.23351655900478363,-0.5383803844451904,0.04798656702041626,-0.044352367520332336,-0.2381020188331604
0.05959493666887283,0.18435503542423248,-0.33993709087371826,0.06986486911773682,-0.029960036277770996,-0.29776233434677124
0.24843622744083405,-0.06606007367372513,-0.1687374860048294,0.03579382598400116,-0.0018304139375686646,-0.2619807720184326
0.3295344114303589,-0.3205071985721588,-0.12619233131408691,-0.010934010148048401,0.03306823968887329,-0.1248847246170044
0.2878355383872986,-0.4962286949157715,-0.2167017012834549,-0.032525934278964996,0.05098456144332886,0.018366754055023193
0.2756255567073822,-0.5369641780853271,-0.3182078003883362,-0.013113588094711304,0.04937371611595154,0.10993790626525879
0.3850395977497101,-0.4728834927082062,-0.37218090891838074,0.0073333606123924255,0.040446579456329346,0.17039376497268677
0.4354577958583832,-0.2741105258464813,-0.3423008620738983,0.022866681218147278,0.02137768268585205,0.22846144437789917
0.2623254358768463,0.10186436772346497,-0.28861069679260254,0.01797208935022354,0.008030667901039124,0.24796032905578613
0.04770141839981079,0.3638407588005066,-0.2535693645477295,0.019588902592658997,0.019681304693222046,0.15431654453277588
-0.024034157395362854,0.38332507014274597,-0.2031460702419281,0.020072370767593384,0.044302791357040405,0.012821733951568604
-0.042902156710624695,0.24166367948055267,-0.1638474464416504,0.01083395630121231,0.06485775113105774,-0.07697218656539917
0.026809580624103546,-0.04894084855914116,-0.23150664567947388,-0.042307015508413315,0.06499047577381134,-0.11572754383087158
0.18864324688911438,-0.33444806933403015,-0.34158629179000854,-0.08090300112962723,0.06347718834877014,-0.07811719179153442
0.2633228302001953,-0.45539233088493347,-0.4593428075313568,-0.08270249515771866,0.06032317876815796,0.04208230972290039
0.22218617796897888,-0.4240950047969818,-0.5427860021591187,-0.06237979233264923,0.038972437381744385,0.15654975175857544
0.13675840198993683,-0.3089909255504608,-0.5213713049888611,-0.03788721561431885,0.0200396329164505,0.22403162717819214
-0.009029661305248737,-0.13127881288528442,-0.43082812428474426,-0.037859685719013214,-0.00408114492893219,0.2572546601295471
-0.19078555703163147,0.0331893265247345,-0.3553117513656616,-0.06332483142614365,-0.012956202030181885,0.24105513095855713
-0.31996476650238037,0.060362718999385834,-0.3557710349559784,-0.08033538609743118,0.004253506660461426,0.17531615495681763
-0.3751150965690613,-0.05059028044342995,-0.4165651798248291,-0.09195394814014435,0.022550657391548157,0.1067802906036377
-0.35885998606681824,-0.13451336324214935,-0.5446838140487671,-0.11314210295677185,0.02150210738182068,0.050095975399017334
-0.30246782302856445,-0.22397494316101074,-0.685756504535675,-0.11194944381713867,0.015187591314315796,0.033584773540496826
-0.2741490602493286,-0.2609904110431671,-0.8022845983505249,-0.08665429800748825,-0.0011668801307678223,0.04123830795288086
-0.25599807500839233,-0.24564188718795776,-0.8332926630973816,-0.052764080464839935,-0.023555323481559753,0.03960239887237549
-0.2324158251285553,-0.19186583161354065,-0.8219029903411865,-0.0445176437497139,-0.040440142154693604,0.02474665641784668
-0.16213512420654297,-0.11979182064533234,-0.8496173620223999,-0.04924968630075455,-0.037568286061286926,-0.012220025062561035
-0.05743325501680374,-0.05671980232000351,-0.9133856296539307,-0.05487427860498428,-0.029490023851394653,-0.054778337478637695
0.03926229476928711,-0.06688428670167923,-0.9870030879974365,-0.03827114403247833,-0.020285576581954956,-0.10073363780975342
0.08870812505483627,-0.17746560275554657,-1.0083869695663452,-0.003972016274929047,-0.018459171056747437,-0.13319307565689087
0.10007405281066895,-0.30101364850997925,-0.9690715670585632,0.02415865659713745,-0.0173005610704422,-0.16287237405776978
0.1496332734823227,-0.471792608499527,-0.8745852112770081,0.046917274594306946,-0.020469695329666138,-0.17783290147781372
0.24985723197460175,-0.6692920327186584,-0.7560189962387085,0.04438397288322449,-0.03235176205635071,-0.14818322658538818
0.19930917024612427,-0.5938674807548523,-0.6079645156860352,0.026357732713222504,-0.03764022886753082,-0.06662768125534058
-0.05534442886710167,-0.32115232944488525,-0.4909399151802063,0.009146876633167267,-0.019972458481788635,-0.053727149963378906
-0.19477254152297974,-0.2644120454788208,-0.4075654447078705,-0.0068708062171936035,0.011454284191131592,-0.1588110327720642
-0.11216872930526733,-0.49932289123535156,-0.33433404564857483,-0.04338653385639191,0.03791883587837219,-0.21359503269195557
-0.026091374456882477,-0.7761667370796204,-0.378146231174469,-0.08977757394313812,0.06438621878623962,-0.1544470191001892
-0.06376095116138458,-0.8937180042266846,-0.5276890993118286,-0.10999244451522827,0.07638189196586609,-0.04155188798904419
-0.10551457852125168,-0.7883541584014893,-0.6832050085067749,-0.09885028004646301,0.07626567780971527,0.04166388511657715
-0.0825217068195343,-0.5015653371810913,-0.7868198752403259,-0.0824400931596756,0.055244311690330505,0.0787733793258667
0.0053128935396671295,-0.23604358732700348,-0.8279743790626526,-0.05830368399620056,0.04137633740901947,0.0723065733909607
0.0822034478187561,-0.13642390072345734,-0.8284599184989929,-0.040146827697753906,0.059287115931510925,0.07419121265411377
0.06312603503465652,-0.10059944540262222,-0.8533186912536621,-0.04304909706115723,0.07779091596603394,0.09267532825469971
-0.04761037975549698,-0.050043489784002304,-0.8739093542098999,-0.03882661461830139,0.08223865926265717,0.09557068347930908
-0.11861656606197357,0.01222471334040165,-0.8772525787353516,-0.02600027620792389,0.07808032631874084,0.05738943815231323
-0.07137228548526764,0.027321405708789825,-0.82208251953125,0.00225675106048584,0.07546769082546234,0.0003095269203186035
0.003051198087632656,-0.028940344229340553,-0.7259902358055115,0.018697768449783325,0.06959445774555206,-0.01769334077835083
0.029019813984632492,-0.08853776007890701,-0.6338735818862915,0.017163187265396118,0.060237377882003784,-0.0014417171478271484
0.04935464635491371,-0.13764458894729614,-0.5579023957252502,0.012042924761772156,0.055522769689559937,0.025009334087371826
0.06399483978748322,-0.18002746999263763,-0.5078977942466736,0.012628957629203796,0.05722463130950928,0.06266766786575317
0.056712791323661804,-0.14841069281101227,-0.4545629322528839,0.011799022555351257,0.049712568521499634,0.10724431276321411
0.023283574730157852,-0.02273913472890854,-0.39428260922431946,-0.003183230757713318,0.024203717708587646,0.13383936882019043
0.0059303417801856995,0.10809633880853653,-0.3214147388935089,-0.006757467985153198,0.00842796266078949,0.11980289220809937
0.021124036982655525,0.13524697721004486,-0.2312384843826294,0.0018580853939056396,0.007593363523483276,0.09047263860702515
0.020125504583120346,0.07643406838178635,-0.14662493765354156,-0.006541311740875244,0.007137566804885864,0.07710784673690796
-0.0063790734857320786,0.006539676338434219,-0.09607253968715668,-0.01938118040561676,0.013160184025764465,0.08467894792556763
-0.06983350962400436,-0.011059005744755268,-0.05325426906347275,-0.016318470239639282,0.011547684669494629,0.0895611047744751
-0.11383458226919174,0.007574505638331175,-0.010540945455431938,-0.01923467218875885,-0.0004417002201080322,0.07166045904159546
-0.08231968432664871,0.030022747814655304,0.045968763530254364,-0.022874414920806885,-0.00977596640586853,0.05051034688949585
-0.06036496162414551,0.06996092945337296,0.10629209876060486,-0.035167813301086426,-0.013412445783615112,0.05054396390914917
-0.08290272951126099,0.09031853824853897,0.1223783791065216,-0.04725489020347595,-0.009754076600074768,0.04754668474197388
-0.09718822687864304,0.08301013708114624,0.10784344375133514,-0.05814417451620102,-0.009768575429916382,0.025818228721618652
-0.10223062336444855,0.11085204035043716,0.073642797768116,-0.06849740445613861,-0.011827081441879272,0.010118424892425537
