rotation_x,rotation_y,rotation_z,acceleration_x,acceleration_y,acceleration_z
-0.10123973339796066,-0.5024972558021545,0.14465583860874176,0.11090010404586792,0.10412395000457764,0.5320023894309998
-0.6270982623100281,-0.6650174260139465,0.26384061574935913,0.06319558620452881,0.020454317331314087,0.6448991298675537
-1.3100577592849731,-0.5101718306541443,-0.04427613690495491,-0.1091468334197998,-0.027771800756454468,0.6535400748252869
-1.7477333545684814,-0.21201615035533905,-0.3283877372741699,-0.17131337523460388,-0.036806508898735046,0.5119982361793518
-1.592309832572937,-0.14904308319091797,-0.2944789230823517,-0.07802841067314148,-0.004737392067909241,0.2684425711631775
-1.2130872011184692,-0.4833049774169922,-0.05372876301407814,0.026400074362754822,0.06921931356191635,0.16320288181304932
-1.217178463935852,-0.825680673122406,0.170805424451828,0.08008767664432526,0.023225195705890656,0.17441999912261963
-1.432961344718933,-0.8941047787666321,0.09720676392316818,0.040850311517715454,-0.05797351896762848,0.13802528381347656
-1.5198315382003784,-0.7567784190177917,-0.1533178687095642,-0.022746682167053223,-0.10210899263620377,-0.04693526029586792
-1.5196763277053833,-0.3964012861251831,-0.37876957654953003,-0.025971420109272003,-0.14842110872268677,-0.21096879243850708
-1.4785038232803345,0.055286671966314316,-0.36363494396209717,0.03234497457742691,-0.11057531833648682,-0.3568817377090454
-1.4811145067214966,0.10422996431589127,-0.2226138561964035,0.15375451743602753,-0.08240830153226852,-0.38923734426498413
-1.3139482736587524,-0.4186118543148041,-0.19447436928749084,0.2087363600730896,-0.12578919529914856,-0.41727036237716675
-0.7964898943901062,-0.9941534399986267,-0.19228310883045197,0.2122684121131897,-0.13911885023117065,-0.577364981174469
-0.23234611749649048,-1.2232569456100464,-0.017892399802803993,0.23773033916950226,-0.1206165999174118,-0.6826738119125366
0.21144384145736694,-0.8860746622085571,0.27052873373031616,0.2598883807659149,-0.0977611392736435,-0.6823258996009827
0.3425767719745636,-0.4886292517185211,0.5262942314147949,0.21868053078651428,-0.09040004760026932,-0.5260613560676575
0.271308958530426,-0.5640202164649963,0.6376945376396179,0.19987447559833527,-0.13918742537498474,-0.3018342852592468
0.0848810151219368,-1.1197324991226196,0.6544714570045471,0.17044803500175476,-0.17251543700695038,-0.13062447309494019
0.07594449818134308,-1.9614447355270386,0.552708089351654,0.14224369823932648,-0.16244356334209442,-0.04985964298248291
0.6467015147209167,-2.3962724208831787,0.2618268132209778,0.008762635290622711,-0.15621140599250793,-0.31076931953430176
1.0903522968292236,-2.330993890762329,0.10925769805908203,-0.06895899772644043,-0.060275301337242126,-0.4127247929573059
1.2378907203674316,-2.0825765132904053,0.2503212094306946,-0.030435949563980103,-0.029753319919109344,-0.2947985529899597
1.15205717086792,-2.189223051071167,0.5729500651359558,0.04457007348537445,-0.011533908545970917,-0.05322253704071045
1.3439990282058716,-2.6626992225646973,0.6949829459190369,0.06033644080162048,-0.02281566709280014,0.12427222728729248
2.1099348068237305,-2.996641159057617,0.3392745554447174,-0.0687282383441925,-0.07051969319581985,0.016173839569091797
2.4918792247772217,-2.8693346977233887,-0.01650669053196907,-0.18889233469963074,-0.009849436581134796,0.0035424232482910156
2.1394386291503906,-2.5434725284576416,-0.17095638811588287,-0.1219310462474823,0.01929464191198349,0.23741412162780762
1.3963334560394287,-2.196932077407837,0.0535321868956089,0.024508297443389893,0.06600652635097504,0.39524978399276733
0.5552530288696289,-2.075486421585083,0.3814326226711273,0.116219162940979,0.11105647683143616,0.5242449045181274
-0.011033682152628899,-2.121882200241089,0.5696461200714111,0.10928332805633545,0.1305493414402008,0.5401837825775146
-0.07860627770423889,-2.0613584518432617,0.6453092098236084,0.07075011730194092,0.15750713646411896,0.3702595829963684
0.1690918505191803,-1.8178704977035522,0.654080867767334,0.033866167068481445,0.20654557645320892,0.21971464157104492
0.5213115811347961,-1.891750693321228,0.7006986141204834,0.07857674360275269,0.2658114433288574,0.2294127345085144
0.8958861827850342,-2.2900993824005127,0.8676303029060364,0.194130539894104,0.32081282138824463,0.29625779390335083
1.2018991708755493,-2.7660624980926514,1.0783987045288086,0.27411818504333496,0.3972187042236328,0.35270529985427856
1.3982572555541992,-3.18316388130188,1.2328126430511475,0.29079753160476685,0.44891875982284546,0.36590301990509033
1.3693500757217407,-3.483564853668213,1.2754276990890503,0.26777541637420654,0.48062238097190857,0.3867625594139099
1.0326910018920898,-3.611837387084961,1.426937222480774,0.28413867950439453,0.5141780972480774,0.4127189517021179
0.4832458198070526,-3.5711965560913086,1.80548894405365,0.32627636194229126,0.5641148090362549,0.4080503582954407
-0.1711665242910385,-3.2427549362182617,2.2799227237701416,0.30244654417037964,0.6194589734077454,0.3409961760044098
-0.7499966621398926,-2.6826326847076416,2.737786293029785,0.2208229899406433,0.6744439005851746,0.22690331935882568
-1.1908905506134033,-2.2501580715179443,3.0139048099517822,0.0751768946647644,0.6958057284355164,0.09263265132904053
-1.5608068704605103,-1.870744228363037,3.0716381072998047,-0.14991652965545654,0.7929830551147461,0.009264051914215088
-1.8566832542419434,-1.5331642627716064,3.1636953353881836,-0.30936235189437866,0.8830443620681763,-0.06079888343811035
-1.9987666606903076,-1.328556776046753,3.346923351287842,-0.36758852005004883,0.8555344343185425,-0.1513667106628418
-1.985140085220337,-1.1464910507202148,3.4920027256011963,-0.3966742753982544,0.7419248819351196,-0.24700862169265747
-1.731510877609253,-0.815933883190155,3.4873604774475098,-0.42009270191192627,0.5838690996170044,-0.36195820569992065
-1.1418485641479492,-0.37508976459503174,3.280831813812256,-0.46284568309783936,0.4052749574184418,-0.48827463388442993
-0.3804885745048523,-0.027162136510014534,3.0335817337036133,-0.4626278877258301,0.22938275337219238,-0.5400826930999756
0.32045966386795044,0.16145309805870056,2.7341725826263428,-0.4540056586265564,0.12374889850616455,-0.4782295823097229
0.9130023717880249,0.3002244234085083,2.245741844177246,-0.5042527914047241,0.07702934741973877,-0.36848384141921997
1.2826403379440308,0.43829676508903503,1.635675072669983,-0.531943142414093,0.06113713979721069,-0.23749981820583344
1.281161904335022,0.6757721304893494,1.04336416721344,-0.48874998092651367,0.03277158737182617,-0.0678076446056366
0.8253290057182312,1.0143098831176758,0.5161098837852478,-0.39050978422164917,-0.003346264362335205,0.09189771115779877
0.04448466747999191,1.3663235902786255,0.16254070401191711,-0.24961602687835693,-0.06838607788085938,0.22740572690963745
-0.8699349164962769,1.7823693752288818,-0.004945498425513506,-0.11439657211303711,-0.11515212059020996,0.2969319522380829
-1.7602146863937378,2.1683738231658936,-0.06181890517473221,-0.025648176670074463,-0.1337648630142212,0.30400824546813965
-2.511227607727051,2.5118887424468994,-0.07471666485071182,0.017901360988616943,-0.1317347288131714,0.2733084559440613
-3.0732421875,2.78900408744812,-0.04723590239882469,0.0322609543800354,-0.13607585430145264,0.20697742700576782
-3.4103293418884277,2.9135866165161133,-0.022423099726438522,0.04097580909729004,-0.15016400814056396,0.12076085805892944
-3.5331952571868896,2.795598030090332,-0.02508406527340412,0.035793960094451904,-0.18226629495620728,0.01749761402606964
-3.5471785068511963,2.582792282104492,-0.0812234953045845,0.01703345775604248,-0.20876461267471313,-0.06470119953155518
-3.4717369079589844,2.384464740753174,-0.1545378565788269,-0.008215785026550293,-0.2114211916923523,-0.1462511420249939
-3.343101978302002,2.2921690940856934,-0.22496169805526733,-0.04275089502334595,-0.19861328601837158,-0.22615718841552734
-3.167673349380493,2.2290732860565186,-0.2512262463569641,-0.05805706977844238,-0.19128966331481934,-0.28912681341171265
-3.005052089691162,2.2241480350494385,-0.28721559047698975,-0.0835486650466919,-0.19064390659332275,-0.335252046585083
-2.825817823410034,2.188746213912964,-0.28065499663352966,-0.07966005802154541,-0.20384591817855835,-0.36753445863723755
-2.553813934326172,2.111283779144287,-0.1949390172958374,-0.07016021013259888,-0.213917076587677,-0.4004862308502197
-2.0978267192840576,1.9324679374694824,-0.09429935365915298,-0.09922981262207031,-0.22546732425689697,-0.4366053342819214
-1.4926866292953491,1.6045148372650146,0.008889947086572647,-0.1586514115333557,-0.24889880418777466,-0.4528498649597168
-0.8581640124320984,1.319451093673706,0.18672806024551392,-0.2184886932373047,-0.2663113474845886,-0.4320988655090332
-0.23955342173576355,1.0467829704284668,0.2954624593257904,-0.28318923711776733,-0.3081778883934021,-0.3959469795227051
0.21722690761089325,0.9051825404167175,0.2664487957954407,-0.37776416540145874,-0.39329981803894043,-0.32923221588134766
0.4068470597267151,0.868920624256134,0.1365981101989746,-0.4703722596168518,-0.4405714273452759,-0.20786559581756592
0.37989136576652527,0.8451457023620605,-0.15424643456935883,-0.5973138809204102,-0.4344591498374939,-0.07085417211055756
0.17116425931453705,0.8696473240852356,-0.46422722935676575,-0.724781334400177,-0.3667658567428589,0.04254378378391266
-0.12285487353801727,1.003228783607483,-0.6879637241363525,-0.7786632776260376,-0.28273534774780273,0.11557036638259888
-0.37358978390693665,1.1687335968017578,-0.9503124356269836,-0.7771075367927551,-0.2884388566017151,0.12829500436782837
-0.5295231342315674,1.283583402633667,-1.350614070892334,-0.7595716118812561,-0.3590211272239685,0.11144866049289703
-0.5588718056678772,1.4432226419448853,-1.7368271350860596,-0.7453229427337646,-0.31056249141693115,0.10783794522285461
-0.4057066738605499,1.4806675910949707,-1.9649631977081299,-0.6558882594108582,-0.23213768005371094,0.1004725843667984
-0.14152775704860687,1.3246945142745972,-2.0694642066955566,-0.5262260437011719,-0.18519020080566406,0.10620667040348053
0.12893357872962952,0.9244910478591919,-2.1588072776794434,-0.4341106414794922,-0.17471742630004883,0.12236669659614563
0.3819141983985901,0.4281657040119171,-2.1583762168884277,-0.4226626753807068,-0.06007945537567139,0.1536468267440796
0.6084702014923096,-0.09783828258514404,-2.089038133621216,-0.4106566309928894,0.05491358041763306,0.1587117612361908
0.7416060566902161,-0.5269773602485657,-2.1121909618377686,-0.4293231964111328,0.10327810049057007,0.14983808994293213
0.7983184456825256,-0.7348867058753967,-2.2623579502105713,-0.48219239711761475,0.14802497625350952,0.11642459034919739
0.8103603720664978,-0.7813576459884644,-2.4816222190856934,-0.4905932545661926,0.17228034138679504,0.0740576982498169
0.8086766004562378,-0.6631873250007629,-2.708587169647217,-0.467976450920105,0.22570672631263733,0.046147704124450684
0.7098162174224854,-0.47155001759529114,-2.8619346618652344,-0.40413373708724976,0.30188894271850586,0.04628363251686096
0.49356719851493835,-0.22441229224205017,-2.9283530712127686,-0.30603694915771484,0.3747979700565338,0.08604080975055695
0.2918763756752014,0.035024240612983704,-2.8824498653411865,-0.196738600730896,0.4380967915058136,0.10681888461112976
0.1745738983154297,0.21404312551021576,-2.731055498123169,-0.07834166288375854,0.5024380683898926,0.09561219811439514
0.16614434123039246,0.2334175407886505,-2.544801712036133,0.018465042114257812,0.5479912161827087,0.0923248678445816
0.2394486516714096,0.1043577641248703,-2.335613489151001,0.0962633490562439,0.5793300867080688,0.09685090184211731
0.34856289625167847,-0.11185144633054733,-2.1132237911224365,0.17603635787963867,0.5972679853439331,0.10049337148666382
0.44041603803634644,-0.32716235518455505,-1.8841712474822998,0.23810464143753052,0.5929933190345764,0.1103794127702713
0.46468839049339294,-0.5016134977340698,-1.6636542081832886,0.2997879385948181,0.58492511510849,0.12704014778137207
0.4418017864227295,-0.6126947402954102,-1.4543931484222412,0.34456127882003784,0.5691169500350952,0.13445712625980377
0.3463037312030792,-0.6265710592269897,-1.1765216588974,0.39967089891433716,0.5675672888755798,0.1404731273651123
0.21662214398384094,-0.5520678758621216,-0.8996466994285583,0.44926369190216064,0.5766765475273132,0.14014407992362976
0.0735238716006279,-0.46345219016075134,-0.6853978633880615,0.472248911857605,0.5623136162757874,0.13237324357032776
-0.06371653079986572,-0.34231114387512207,-0.6740053296089172,0.4311705231666565,0.5397027134895325,0.12277084589004517
-0.24632447957992554,-0.10415240377187729,-0.6701212525367737,0.4177141785621643,0.5185968279838562,0.1102520227432251
-0.5273936986923218,0.21110136806964874,-0.5021387338638306,0.469221830368042,0.5389158725738525,0.1256384700536728
-0.8525587916374207,0.4226360619068146,-0.17020922899246216,0.5416596531867981,0.5592736601829529,0.15565063059329987
-1.176839828491211,0.5052310228347778,0.3083125948905945,0.5977894067764282,0.5762828588485718,0.16895225644111633
-1.4444036483764648,0.41944408416748047,0.8161465525627136,0.6121500134468079,0.5911766886711121,0.16767781972885132
-1.6547648906707764,0.20967933535575867,1.2853264808654785,0.5794088244438171,0.6054860353469849,0.1573176383972168
-1.7476786375045776,-0.04310230538249016,1.6238125562667847,0.4993175268173218,0.6185250282287598,0.1233040988445282
-1.7559233903884888,-0.37567564845085144,1.8578181266784668,0.39169931411743164,0.6111755967140198,0.05093051493167877
-1.9504976272583008,-0.6323626637458801,2.111902952194214,0.24229884147644043,0.7077674865722656,0.025848031044006348
-2.3242554664611816,-0.6346868276596069,2.6410839557647705,0.14463520050048828,0.8524026870727539,0.01450037956237793
-2.5628700256347656,-0.5831149816513062,3.333874225616455,0.08621782064437866,0.8864595890045166,-0.07666300237178802
-2.4306559562683105,-0.6574362516403198,3.8069257736206055,-0.04700875282287598,0.77762371301651,-0.24834680557250977
-2.079251766204834,-0.5577607154846191,3.9007441997528076,-0.25052231550216675,0.5804356336593628,-0.4109712839126587
-1.7354118824005127,-0.279582142829895,3.693887948989868,-0.4081931710243225,0.303623229265213,-0.49511468410491943
-1.5388147830963135,-0.050831206142902374,3.336232900619507,-0.4895947575569153,0.024318784475326538,-0.48991793394088745
-1.2765346765518188,0.13986746966838837,2.9494707584381104,-0.5992223620414734,-0.06603202223777771,-0.48088955879211426
-0.7321783304214478,0.23921802639961243,2.49310564994812,-0.7518391609191895,-0.06088465452194214,-0.5395011901855469
-0.15384016931056976,0.27425462007522583,1.997674822807312,-0.8016558885574341,-0.07243841886520386,-0.558294415473938
0.09105698764324188,0.4477689564228058,1.4858572483062744,-0.7311573624610901,-0.1320248246192932,-0.4550408124923706
-0.01257888413965702,0.7932244539260864,1.0643932819366455,-0.5882940292358398,-0.1936919093132019,-0.3063626289367676
-0.332663357257843,1.2425110340118408,0.7282394766807556,-0.4512398838996887,-0.23555117845535278,-0.1842508316040039
-0.8110218048095703,1.6721820831298828,0.5077089667320251,-0.3162442445755005,-0.28030097484588623,-0.07684265077114105
-1.3697631359100342,2.079474925994873,0.34088101983070374,-0.2128990888595581,-0.3017094135284424,-0.0007617920637130737
-1.9272425174713135,2.3532865047454834,0.22044120728969574,-0.12949377298355103,-0.3251667618751526,0.03566257655620575
-2.428434133529663,2.4866063594818115,0.15267322957515717,-0.0637102723121643,-0.32698869705200195,0.04157149791717529
-2.789599657058716,2.4563326835632324,0.15234650671482086,-0.008555710315704346,-0.3140445947647095,0.014633208513259888
-2.9158852100372314,2.184325933456421,0.2553148567676544,0.04016751050949097,-0.31793224811553955,-0.05795025825500488
-2.8290605545043945,1.76711106300354,0.42597052454948425,0.04982274770736694,-0.31519728899002075,-0.16256295144557953
-2.5890026092529297,1.2317934036254883,0.5669185519218445,0.027471482753753662,-0.3257213830947876,-0.2713751792907715
-2.1460888385772705,0.6353926062583923,0.5638425350189209,-0.06561267375946045,-0.3494589924812317,-0.3818897604942322
-1.4665164947509766,0.10300905257463455,0.5458554029464722,-0.14770525693893433,-0.37154775857925415,-0.5080575346946716
-0.6176571846008301,-0.23516002297401428,0.5298077464103699,-0.22610843181610107,-0.39226752519607544,-0.6125879287719727
0.14382056891918182,-0.3580605983734131,0.4982701539993286,-0.2968694567680359,-0.41370660066604614,-0.6421494483947754
0.6987018585205078,-0.28946545720100403,0.41186729073524475,-0.37722110748291016,-0.4206787943840027,-0.5850753784179688
1.122148871421814,-0.19035176932811737,0.28997424244880676,-0.4338303804397583,-0.42964571714401245,-0.5027007460594177
1.461807131767273,-0.158490389585495,0.069268137216568,-0.4771882891654968,-0.44568854570388794,-0.4058611989021301
1.7411129474639893,-0.19434800744056702,-0.33118653297424316,-0.5423118472099304,-0.4542418122291565,-0.3077751398086548
1.914816975593567,-0.2839905917644501,-0.8342916965484619,-0.6009817123413086,-0.44627702236175537,-0.21541069447994232
1.8298976421356201,-0.33387669920921326,-1.2041460275650024,-0.5693188309669495,-0.3953046202659607,-0.10309219360351562
1.4665981531143188,-0.36027154326438904,-1.3721919059753418,-0.5032790899276733,-0.3102003335952759,-0.0015182942152023315
0.921687662601471,-0.3163042366504669,-1.3791775703430176,-0.5026766061782837,-0.145102858543396,0.05464756488800049
0.5838926434516907,-0.11556358635425568,-1.2528107166290283,-0.5395954847335815,0.020795106887817383,0.023251891136169434
0.6300014853477478,-0.009511495009064674,-1.1513780355453491,-0.5231842994689941,0.01713806390762329,-0.09647135436534882
0.8223587274551392,-0.1091952696442604,-1.2685348987579346,-0.46741586923599243,-0.13092952966690063,-0.17044340074062347
1.0142881870269775,-0.21878187358379364,-1.6129361391067505,-0.45664435625076294,-0.19266825914382935,-0.16549710929393768
1.2294061183929443,-0.28918811678886414,-1.8746203184127808,-0.4290763735771179,-0.12645089626312256,-0.16209959983825684
1.4443678855895996,-0.2795007824897766,-1.832112193107605,-0.32952457666397095,0.013998091220855713,-0.1424647569656372
1.6879075765609741,-0.4269144535064697,-1.659126877784729,-0.19758248329162598,0.08215206861495972,-0.12323254346847534
1.8911340236663818,-0.7564973831176758,-1.5835630893707275,-0.14791899919509888,0.09481129050254822,-0.0888029932975769
2.0300090312957764,-1.1136479377746582,-1.5813963413238525,-0.1649225950241089,0.15795773267745972,-0.05927765369415283
2.1799721717834473,-1.4477930068969727,-1.4856159687042236,-0.13513559103012085,0.23742714524269104,-0.06576064229011536
2.3247861862182617,-1.741858720779419,-1.2959011793136597,-0.06410503387451172,0.27586981654167175,-0.09880295395851135
2.383214235305786,-1.8469158411026,-1.166739821434021,-0.044301509857177734,0.3141259253025055,-0.12739136815071106
2.3320648670196533,-1.8073104619979858,-1.102102518081665,-0.03820103406906128,0.3043096959590912,-0.1415315717458725
2.191026449203491,-1.6408755779266357,-1.1445447206497192,-0.031487882137298584,0.30887559056282043,-0.1530851274728775
1.9673969745635986,-1.408048152923584,-1.2450982332229614,-0.016752183437347412,0.29933011531829834,-0.1597406268119812
1.6937505006790161,-1.1343203783035278,-1.3216228485107422,0.008040010929107666,0.3322330117225647,-0.15558303892612457
1.3948873281478882,-0.9287291765213013,-1.3293631076812744,0.07281237840652466,0.3523263931274414,-0.13921266794204712
1.1173906326293945,-0.7434989213943481,-1.2638617753982544,0.13007467985153198,0.3860516846179962,-0.13590571284294128
0.8862927556037903,-0.6067371368408203,-1.1566522121429443,0.18583011627197266,0.4106316864490509,-0.14792203903198242
0.6704090237617493,-0.4839384853839874,-1.0034247636795044,0.23470556735992432,0.4315527677536011,-0.1529083251953125
0.49754729866981506,-0.40783414244651794,-0.8371622562408447,0.29036808013916016,0.4375804662704468,-0.1656389981508255
0.35636454820632935,-0.356640100479126,-0.650029182434082,0.33373701572418213,0.42729052901268005,-0.17621690034866333
0.25320738554000854,-0.3206136226654053,-0.5121747851371765,0.3540087342262268,0.4280811846256256,-0.19115734100341797
0.19763626158237457,-0.332256942987442,-0.44413071870803833,0.350665807723999,0.4118272662162781,-0.20765185356140137
0.16657114028930664,-0.3375166654586792,-0.37016814947128296,0.3613760471343994,0.4075984060764313,-0.2249363660812378
0.11287178099155426,-0.3239559233188629,-0.28143513202667236,0.3673400282859802,0.40909624099731445,-0.2254893183708191
0.01808694563806057,-0.25614091753959656,-0.13249307870864868,0.39365458488464355,0.41395848989486694,-0.22514313459396362
-0.12086203694343567,-0.11486227810382843,0.04920508712530136,0.4100244641304016,0.4249076545238495,-0.22221142053604126
-0.25994065403938293,0.06554650515317917,0.21475748717784882,0.412071168422699,0.41819965839385986,-0.21924841403961182
-0.3809354305267334,0.2241721898317337,0.33040741086006165,0.3889017105102539,0.40282607078552246,-0.21201789379119873
-0.5118757486343384,0.33509954810142517,0.3880080282688141,0.36627197265625,0.3875328600406647,-0.1882082223892212
-0.6523230075836182,0.3975895941257477,0.46319901943206787,0.34894102811813354,0.3662205636501312,-0.16331768035888672
-0.8297134637832642,0.470653235912323,0.6149358153343201,0.35328614711761475,0.38197752833366394,-0.13875573873519897
-0.9307611584663391,0.5341209173202515,0.8138235807418823,0.3366263508796692,0.4073692560195923,-0.1348901391029358
-0.9019035696983337,0.5246725678443909,1.0431036949157715,0.30424386262893677,0.4196588397026062,-0.16269689798355103
-0.8904174566268921,0.36461785435676575,1.2410557270050049,0.2304573655128479,0.4552950859069824,-0.1581575721502304
-0.9366267919540405,0.2771342396736145,1.4416460990905762,0.10071033239364624,0.5465448498725891,-0.13287025690078735
-0.9624495506286621,0.288469135761261,1.7629684209823608,0.03125298023223877,0.5926406979560852,-0.1321561485528946
-0.9006989598274231,0.3288410007953644,2.1295523643493652,0.03673738241195679,0.5310095548629761,-0.16261953115463257
-0.761877715587616,0.34307199716567993,2.378627061843872,0.02267932891845703,0.38398441672325134,-0.19489715993404388
-0.5380439162254333,0.3964215815067291,2.4518022537231445,-0.04625380039215088,0.2834869921207428,-0.20622111856937408
-0.19346511363983154,0.3396433889865875,2.45796537399292,-0.11673605442047119,0.20649126172065735,-0.20398657023906708
0.2654799818992615,0.11217685788869858,2.5476808547973633,-0.15404683351516724,0.1728324294090271,-0.18860100209712982
0.8324049115180969,-0.23606805503368378,2.745990514755249,-0.1565845012664795,0.1405753493309021,-0.1715247631072998
1.4267821311950684,-0.5399127006530762,2.900127410888672,-0.21361809968948364,0.08199265599250793,-0.1559123992919922
1.8877650499343872,-0.7353490591049194,2.83394193649292,-0.30132949352264404,-0.017339587211608887,-0.11044846475124359
2.0440616607666016,-0.7346156239509583,2.543482780456543,-0.4036591649055481,-0.11946684122085571,-0.025585293769836426
1.8244638442993164,-0.5467700362205505,2.161592483520508,-0.46618127822875977,-0.18778133392333984,0.08002318441867828
1.3105851411819458,-0.16475482285022736,1.7643059492111206,-0.5136809945106506,-0.20949077606201172,0.17934930324554443
0.6727301478385925,0.266523152589798,1.4343122243881226,-0.5071864128112793,-0.2376173734664917,0.24025672674179077
0.0605759434401989,0.6213504076004028,1.1912785768508911,-0.45751869678497314,-0.27841395139694214,0.2524314522743225
-0.3431435227394104,0.8683735728263855,0.956079363822937,-0.42442095279693604,-0.3131299614906311,0.22340478003025055
-0.4767647683620453,0.919857382774353,0.7009130716323853,-0.42559945583343506,-0.35197359323501587,0.1507478952407837
-0.40111714601516724,0.7907324433326721,0.49836185574531555,-0.3924694061279297,-0.3908700942993164,0.09517568349838257
-0.21249549090862274,0.5482387542724609,0.4008650481700897,-0.35553884506225586,-0.4002443552017212,0.0626663863658905
0.032110270112752914,0.33024275302886963,0.36217665672302246,-0.34769535064697266,-0.38245195150375366,0.04553872346878052
0.28372883796691895,0.13334307074546814,0.2877136170864105,-0.36347126960754395,-0.3788374662399292,0.046370625495910645
0.47207966446876526,-0.03416643291711807,0.18115906417369843,-0.3875667452812195,-0.3895629048347473,0.069405198097229
0.5926506519317627,-0.17568735778331757,0.03608342632651329,-0.4005451202392578,-0.38309574127197266,0.09977596998214722
0.6488519906997681,-0.32804062962532043,-0.12351801991462708,-0.40562790632247925,-0.3872624635696411,0.13121503591537476
0.6857887506484985,-0.4973181486129761,-0.2393922209739685,-0.38185495138168335,-0.3697656989097595,0.1522597372531891
0.7702919840812683,-0.7195404171943665,-0.33232128620147705,-0.34657371044158936,-0.3513485789299011,0.14805278182029724
0.9050723314285278,-0.961042582988739,-0.4344419836997986,-0.32575494050979614,-0.32805007696151733,0.12707564234733582
1.0397306680679321,-1.1965690851211548,-0.5411413311958313,-0.3101094365119934,-0.298858642578125,0.112050861120224
1.1123474836349487,-1.3717427253723145,-0.6376675963401794,-0.3049067258834839,-0.2504345774650574,0.10784998536109924
1.1150797605514526,-1.4008846282958984,-0.6945251226425171,-0.2900099754333496,-0.1918187141418457,0.10164117813110352
1.0757219791412354,-1.3770514726638794,-0.738826334476471,-0.27015531063079834,-0.15316540002822876,0.09061659872531891
0.990840494632721,-1.3619734048843384,-0.8150379657745361,-0.2465464472770691,-0.1328631043434143,0.07805323600769043
0.8460558652877808,-1.327642798423767,-0.8889229893684387,-0.22623443603515625,-0.10355126857757568,0.06721317768096924
0.6870521306991577,-1.2709633111953735,-0.9382925033569336,-0.20450013875961304,-0.05548292398452759,0.04708552360534668
0.5487489104270935,-1.2079832553863525,-0.9229263663291931,-0.16898036003112793,-0.006552159786224365,0.015130147337913513
0.4760924279689789,-1.1533682346343994,-0.8428735733032227,-0.12221574783325195,0.03282719850540161,-0.029088735580444336
0.5002651810646057,-1.1425925493240356,-0.7352728843688965,-0.06749123334884644,0.040864527225494385,-0.08031944930553436
0.6361961960792542,-1.2734100818634033,-0.612905740737915,-0.01471865177154541,0.045634925365448,-0.12619231641292572
0.9263589978218079,-1.564713478088379,-0.47198784351348877,0.03640305995941162,0.049387335777282715,-0.17947816848754883
1.3807146549224854,-1.859742283821106,-0.312485933303833,0.08186745643615723,0.049906373023986816,-0.2475161999464035
1.9090560674667358,-2.08074951171875,-0.22112154960632324,0.09022098779678345,0.048442840576171875,-0.2983659505844116
2.231783628463745,-2.2661406993865967,-0.20010048151016235,0.0739520788192749,0.05488765239715576,-0.2884960174560547
2.214956760406494,-2.3566277027130127,-0.1550276130437851,0.014123022556304932,0.15306198596954346,-0.21187007427215576
2.073293685913086,-2.148552179336548,0.11324452608823776,-0.04219686985015869,0.29910802841186523,-0.16673779487609863
1.9833738803863525,-1.8478434085845947,0.5500383973121643,-0.002346932888031006,0.3229038715362549,-0.183596670627594
1.9756181240081787,-1.872645378112793,0.8708147406578064,0.06199127435684204,0.1623002290725708,-0.19250881671905518
2.0024759769439697,-2.082998275756836,0.8803794384002686,0.03423112630844116,0.0008962750434875488,-0.19755220413208008
1.9820048809051514,-2.156224489212036,0.6612889170646667,-0.04998195171356201,-0.062308669090270996,-0.20601189136505127
1.8300731182098389,-2.1137125492095947,0.4805561602115631,-0.06264853477478027,-0.07193785905838013,-0.2043846845626831
1.5894792079925537,-1.987623929977417,0.4586521089076996,-0.006493687629699707,-0.06637024879455566,-0.20481717586517334
1.360331416130066,-1.7978729009628296,0.5494922995567322,0.030027151107788086,-0.051544368267059326,-0.23473799228668213
1.1916030645370483,-1.6009074449539185,0.7021158337593079,0.04657965898513794,-0.05629318952560425,-0.27597618103027344
1.0738199949264526,-1.485522985458374,0.8311932682991028,0.05428457260131836,-0.09423190355300903,-0.3168748617172241
0.963329553604126,-1.3850977420806885,0.9038047790527344,0.04317432641983032,-0.12539374828338623,-0.34169650077819824
0.9721894264221191,-1.4536312818527222,0.8790271878242493,0.012417793273925781,-0.12014138698577881,-0.37692737579345703
1.0961549282073975,-1.6243233680725098,0.7602314949035645,-0.04113060235977173,-0.12028735876083374,-0.44923651218414307
1.2261114120483398,-1.6995176076889038,0.595160722732544,-0.08417582511901855,-0.12226426601409912,-0.5235902070999146
1.2989252805709839,-1.6126574277877808,0.5323670506477356,-0.09689605236053467,-0.11826878786087036,-0.5782057046890259
1.2974853515625,-1.4248905181884766,0.6014872789382935,-0.07326388359069824,-0.11470943689346313,-0.60976243019104
1.279532790184021,-1.2118401527404785,0.6759194135665894,-0.07603806257247925,-0.1202317476272583,-0.6454159021377563
1.2909129858016968,-1.0758658647537231,0.7130215167999268,-0.07950854301452637,-0.1660117506980896,-0.6638548374176025
1.375789761543274,-1.0601059198379517,0.623288631439209,-0.12710899114608765,-0.17964130640029907,-0.6665117740631104
1.544506311416626,-1.139512538909912,0.4466246962547302,-0.181105375289917,-0.19500362873077393,-0.6730378866195679
1.787103295326233,-1.2481249570846558,0.2545489966869354,-0.20968949794769287,-0.20168310403823853,-0.6759471893310547
2.0207951068878174,-1.3757246732711792,0.09209981560707092,-0.2150278091430664,-0.21380823850631714,-0.6612869501113892
2.1553256511688232,-1.5151993036270142,-0.05088922381401062,-0.22222882509231567,-0.20745378732681274,-0.6090619564056396
2.1883983612060547,-1.6058266162872314,-0.20386072993278503,-0.24334150552749634,-0.19201260805130005,-0.5480287075042725
2.170853853225708,-1.6464189291000366,-0.44171711802482605,-0.2703341245651245,-0.18739593029022217,-0.5054477453231812
2.0834174156188965,-1.679875373840332,-0.7553461194038391,-0.2982688546180725,-0.17903858423233032,-0.4672607183456421
1.9234811067581177,-1.5797545909881592,-1.0456043481826782,-0.30600303411483765,-0.15207910537719727,-0.4347715377807617
1.706958293914795,-1.3751314878463745,-1.2279249429702759,-0.2739725708961487,-0.0914994478225708,-0.41838908195495605
1.479728102684021,-1.1438499689102173,-1.372026801109314,-0.2233288288116455,-0.06543004512786865,-0.40904223918914795
1.2797619104385376,-0.9201982021331787,-1.5272388458251953,-0.1968284249305725,-0.024207234382629395,-0.400958776473999
1.1437349319458008,-0.7414055466651917,-1.6841081380844116,-0.1738206148147583,0.0128096342086792,-0.40466105937957764
1.0755013227462769,-0.6011943221092224,-1.8223258256912231,-0.1524282693862915,0.07023048400878906,-0.40261971950531006
1.045156717300415,-0.5425496697425842,-1.8995205163955688,-0.12146854400634766,0.13114577531814575,-0.3917877674102783
1.0005767345428467,-0.5849786400794983,-1.9270626306533813,-0.1005670428276062,0.21234214305877686,-0.3677339553833008
0.9031800031661987,-0.5189604163169861,-1.8722599744796753,-0.0919259786605835,0.3196336627006531,-0.3531923294067383
0.8308043479919434,-0.2798919379711151,-1.7422839403152466,-0.032491326332092285,0.328179270029068,-0.35396718978881836
0.8236449360847473,0.002292830031365156,-1.6112083196640015,0.05142176151275635,0.24496087431907654,-0.3633863925933838
0.8524349927902222,0.2678222954273224,-1.6070159673690796,0.050056397914886475,0.21195462346076965,-0.34191250801086426
0.8638900518417358,0.5179376006126404,-1.7383556365966797,-0.018896877765655518,0.2704471945762634,-0.28602302074432373
0.9121617674827576,0.7181836366653442,-1.760642409324646,-0.005898416042327881,0.3429095149040222,-0.2297893762588501
1.1000770330429077,0.8114389777183533,-1.5509361028671265,0.08656984567642212,0.39863839745521545,-0.20363867282867432
1.4591844081878662,0.6914560198783875,-1.2458312511444092,0.17181289196014404,0.40767422318458557,-0.1951608657836914
1.8860044479370117,0.358327716588974,-1.0417959690093994,0.18594437837600708,0.3981255292892456,-0.16822528839111328
2.26784348487854,0.01798519864678383,-0.9939069747924805,0.13570868968963623,0.4295485317707062,-0.12133491039276123
2.5114989280700684,-0.20866791903972626,-0.96465003490448,0.11479395627975464,0.4598037898540497,-0.06465864181518555
2.552530527114868,-0.3276684284210205,-0.8717089295387268,0.1512966752052307,0.4879876375198364,0.014934897422790527
2.43648624420166,-0.3362165093421936,-0.6973422765731812,0.1959930658340454,0.5063425302505493,0.0825122594833374
2.290566921234131,-0.26061153411865234,-0.43734633922576904,0.2400069236755371,0.5086097717285156,0.12813246250152588
2.130664110183716,-0.1943715512752533,-0.1507921814918518,0.28411781787872314,0.48616570234298706,0.1643667370080948
1.907598614692688,-0.14207355678081512,0.08107832819223404,0.30413323640823364,0.44576919078826904,0.21066361665725708
1.6707830429077148,-0.02615770883858204,0.20933596789836884,0.28138434886932373,0.41146838665008545,0.24946868419647217
1.4758405685424805,0.11033077538013458,0.25203076004981995,0.24757170677185059,0.38977256417274475,0.26685965061187744
1.216719150543213,0.2295168787240982,0.2543885409832001,0.22931158542633057,0.36260369420051575,0.29384100437164307
0.8326339721679688,0.39629289507865906,0.3151278495788574,0.24432772397994995,0.34283411502838135,0.3398459553718567
0.4017692506313324,0.581306517124176,0.45548728108406067,0.2691918611526489,0.32657867670059204,0.36429083347320557
0.005738408770412207,0.7341831922531128,0.6725422739982605,0.29351967573165894,0.3190637230873108,0.3625081777572632
-0.26381897926330566,0.8148535490036011,0.9033043384552002,0.3032364845275879,0.30212363600730896,0.3440084457397461
-0.3719780445098877,0.7535552978515625,1.098750352859497,0.29805266857147217,0.2717956602573395,0.29652369022369385
-0.3471531569957733,0.5890809297561646,1.2254078388214111,0.2723020911216736,0.22767320275306702,0.25827571749687195
-0.3002398908138275,0.42923930287361145,1.3548208475112915,0.24436604976654053,0.19893845915794373,0.23045051097869873
-0.30348458886146545,0.30117669701576233,1.5601271390914917,0.23921096324920654,0.18962517380714417,0.22400084137916565
-0.34222525358200073,0.19511522352695465,1.8231112957000732,0.2168453335762024,0.18734881281852722,0.21506954729557037
-0.3650151193141937,0.06130238249897957,2.0612952709198,0.1686989665031433,0.17797556519508362,0.18738770484924316
-0.33497464656829834,-0.10842332243919373,2.2335479259490967,0.08865714073181152,0.147788405418396,0.14753295481204987
-0.29595160484313965,-0.2600416839122772,2.3564393520355225,-0.0018215775489807129,0.12283644080162048,0.10737873613834381
-0.25772276520729065,-0.38304466009140015,2.419703245162964,-0.09197938442230225,0.08883702754974365,0.07649531960487366
-0.26005569100379944,-0.4881955087184906,2.4198853969573975,-0.1871698498725891,0.05331087112426758,0.0512249618768692
-0.31236532330513,-0.5498537421226501,2.3861992359161377,-0.2713419795036316,0.004721879959106445,0.023410439491271973
-0.4095621109008789,-0.5579674243927002,2.3639867305755615,-0.3386995196342468,-0.04347902536392212,-0.006278380751609802
-0.4586256146430969,-0.5392497777938843,2.305450677871704,-0.40851348638534546,-0.09303873777389526,-0.054465875029563904
-0.39682987332344055,-0.5243714451789856,2.183257818222046,-0.48407822847366333,-0.16862279176712036,-0.11740529537200928
-0.23160088062286377,-0.5080990195274353,1.9572771787643433,-0.5578565001487732,-0.23569923639297485,-0.173491969704628
-0.005940516013652086,-0.5145066380500793,1.6342512369155884,-0.610400378704071,-0.3172479271888733,-0.21418845653533936
0.18270565569400787,-0.49624699354171753,1.245815634727478,-0.6237848997116089,-0.38798844814300537,-0.223446786403656
0.2777377963066101,-0.5019385814666748,0.8213983774185181,-0.6207429766654968,-0.42968177795410156,-0.21940205991268158
0.1639777421951294,-0.4438396096229553,0.4976552426815033,-0.6362835764884949,-0.36895281076431274,-0.18829308450222015
0.1527419537305832,-0.17035111784934998,0.4544384479522705,-0.6054115891456604,-0.2528323531150818,-0.19798552989959717
0.3874386250972748,-0.10350450873374939,0.5305088758468628,-0.5003486275672913,-0.3086279034614563,-0.2665642499923706
0.7046018242835999,-0.32408690452575684,0.4582551121711731,-0.46502578258514404,-0.4041457772254944,-0.28563404083251953
1.1329987049102783,-0.6430595517158508,0.1905641406774521,-0.5244455933570862,-0.421314001083374,-0.27624309062957764
1.6956554651260376,-1.0171926021575928,-0.07686935365200043,-0.5651035308837891,-0.40185654163360596,-0.2842198610305786
2.1703598499298096,-1.48549485206604,-0.25449174642562866,-0.5030551552772522,-0.4017431139945984,-0.23897135257720947
2.3811981678009033,-1.901664137840271,-0.45341062545776367,-0.47018498182296753,-0.368282675743103,-0.16048812866210938
2.39863920211792,-2.1926605701446533,-0.6470584869384766,-0.505422055721283,-0.2553713321685791,-0.09144167602062225
2.3830082416534424,-2.3813507556915283,-0.7411419153213501,-0.5178593397140503,-0.12534165382385254,-0.0840679407119751
2.3659327030181885,-2.53887939453125,-0.8199276924133301,-0.4811677932739258,-0.0961950421333313,-0.11296668648719788
2.309462785720825,-2.578518867492676,-1.024314045906067,-0.4620787501335144,-0.12572598457336426,-0.13598179817199707
2.1864335536956787,-2.4499733448028564,-1.3168672323226929,-0.4516723155975342,-0.11865490674972534,-0.14726242423057556
2.002910852432251,-2.2350635528564453,-1.634184718132019,-0.42700326442718506,-0.08817487955093384,-0.14395035803318024
1.7178601026535034,-1.9663969278335571,-1.889180064201355,-0.3710852265357971,-0.03086775541305542,-0.12191163003444672
1.3680166006088257,-1.709999680519104,-2.091022491455078,-0.30454909801483154,0.03870952129364014,-0.09494630992412567
1.047189474105835,-1.4963504076004028,-2.2384450435638428,-0.24319785833358765,0.11343735456466675,-0.09040886163711548
0.7625751495361328,-1.3425160646438599,-2.298795223236084,-0.16668850183486938,0.18161222338676453,-0.11361561715602875
0.542127788066864,-1.2105612754821777,-2.282731771469116,-0.0898241400718689,0.2554658055305481,-0.14269261062145233
0.39453351497650146,-1.1172046661376953,-2.225435495376587,-0.021912217140197754,0.3073410987854004,-0.18751084804534912
0.2816758453845978,-1.01847505569458,-2.139143466949463,0.036337852478027344,0.3609372675418854,-0.2235860824584961
0.19663117825984955,-0.9409897923469543,-2.021371364593506,0.09383904933929443,0.39133307337760925,-0.24855494499206543
0.1107751876115799,-0.855183482170105,-1.8987895250320435,0.1394115686416626,0.41708728671073914,-0.27029043436050415
0.015491197817027569,-0.7593086361885071,-1.7626992464065552,0.1802513599395752,0.43028724193573,-0.2854260206222534
-0.06509628891944885,-0.6598345637321472,-1.6481753587722778,0.2119755744934082,0.44553837180137634,-0.3022053837776184
-0.1283506602048874,-0.5106659531593323,-1.5418781042099,0.23689883947372437,0.44836127758026123,-0.3202998638153076
-0.1741270273923874,-0.2918376624584198,-1.4643851518630981,0.2477501630783081,0.4533459544181824,-0.32589197158813477
-0.2884654998779297,-0.05459412559866905,-1.3627158403396606,0.27412980794906616,0.45101600885391235,-0.3073298931121826
-0.47061067819595337,0.19496683776378632,-1.2754297256469727,0.2977309226989746,0.4611293077468872,-0.26810574531555176
-0.6368146538734436,0.36334228515625,-1.182887315750122,0.32922887802124023,0.45112961530685425,-0.24448370933532715
-0.7168540358543396,0.5124936103820801,-1.0705649852752686,0.3532388210296631,0.46318668127059937,-0.24245858192443848
-0.6970857381820679,0.5918847322463989,-0.9496800303459167,0.37871187925338745,0.47268322110176086,-0.25536584854125977
-0.6195232272148132,0.6619806885719299,-0.7866203784942627,0.3885922431945801,0.5072916150093079,-0.25195544958114624
-0.49545934796333313,0.696256697177887,-0.5566321015357971,0.40643811225891113,0.5473558902740479,-0.2349247932434082
-0.33571603894233704,0.6809758543968201,-0.25547200441360474,0.437735915184021,0.5625645518302917,-0.20576143264770508
-0.10967613756656647,0.57896888256073,0.04251415655016899,0.4412488341331482,0.5697528123855591,-0.19151854515075684
0.01532893255352974,0.5025451183319092,0.2938251495361328,0.35915493965148926,0.6370294690132141,-0.15045785903930664
0.1293928176164627,0.5310506820678711,0.6296442747116089,0.3180147409439087,0.6794577836990356,-0.10135840624570847
0.35639652609825134,0.5313813090324402,1.0588152408599854,0.3381788730621338,0.6307089924812317,-0.0825994610786438
0.6086493134498596,0.4628458023071289,1.4155126810073853,0.312350869178772,0.5706493854522705,-0.0559527650475502
0.6912256479263306,0.41590261459350586,1.6711724996566772,0.25434404611587524,0.5224629640579224,0.027010157704353333
0.573370635509491,0.3539683222770691,1.8466708660125732,0.21778273582458496,0.4471340477466583,0.12867099046707153
0.28869134187698364,0.3563547432422638,2.0737240314483643,0.21059703826904297,0.38703981041908264,0.20500165224075317
-0.016212768852710724,0.4223973751068115,2.3866164684295654,0.21502041816711426,0.3358815908432007,0.22864489257335663
-0.13564853370189667,0.43079158663749695,2.6189911365509033,0.15924805402755737,0.2800114154815674,0.1946595460176468
-0.07778200507164001,0.32106849551200867,2.661742687225342,0.012615084648132324,0.23771843314170837,0.13289450109004974
-0.04081805422902107,0.22290745377540588,2.6166296005249023,-0.12774598598480225,0.21543678641319275,0.11177529394626617
-0.09082101285457611,0.14111319184303284,2.4508888721466064,-0.2501070499420166,0.195075124502182,0.11359013617038727
-0.22959591448307037,0.09046535193920135,2.258340358734131,-0.31825143098831177,0.12393233180046082,0.11227051913738251
-0.40076085925102234,0.1358465999364853,2.0611915588378906,-0.33431845903396606,0.03782808780670166,0.08550955355167389
-0.5599950551986694,0.2606163024902344,1.8106669187545776,-0.33353108167648315,-0.06345626711845398,0.05107201635837555
-0.6456353068351746,0.4694892168045044,1.4868767261505127,-0.3309836983680725,-0.1493341326713562,0.012275457382202148
-0.7195831537246704,0.6831859946250916,1.125557780265808,-0.3183947801589966,-0.20508337020874023,-0.011795029044151306
-0.8853832483291626,0.9252373576164246,0.7964223623275757,-0.28703629970550537,-0.2269342541694641,0.0014251023530960083
-1.1504433155059814,1.1183449029922485,0.5942167639732361,-0.22452270984649658,-0.22528427839279175,0.03395776450634003
-1.3575307130813599,1.277816891670227,0.49615514278411865,-0.18164849281311035,-0.20075643062591553,0.035557106137275696
-1.464044213294983,1.3256150484085083,0.49609389901161194,-0.1394914984703064,-0.19193530082702637,0.009065508842468262
-1.503307819366455,1.2809226512908936,0.5117505192756653,-0.1253933310508728,-0.20028287172317505,-0.010532736778259277
-1.5042847394943237,1.1744002103805542,0.5619642734527588,-0.1217464804649353,-0.19308483600616455,-0.035066232085227966
-1.4171199798583984,0.9738446474075317,0.5899845957756042,-0.1368446946144104,-0.21265548467636108,-0.06336508691310883
-1.2232953310012817,0.7668933868408203,0.6296148896217346,-0.1621735692024231,-0.22822225093841553,-0.10475373268127441
-0.9435444474220276,0.5473803281784058,0.7161722779273987,-0.1753719449043274,-0.2586512565612793,-0.14040325582027435
-0.6201890110969543,0.33677852153778076,0.8011794686317444,-0.194591224193573,-0.2929953932762146,-0.16130441427230835
-0.2509625256061554,0.17660322785377502,0.8215617537498474,-0.25355762243270874,-0.3379647731781006,-0.17352189123630524
0.11685056239366531,0.030036449432373047,0.7682691812515259,-0.31789153814315796,-0.3851480484008789,-0.17596377432346344
0.4126746356487274,-0.11787879467010498,0.6506487727165222,-0.3723490238189697,-0.43131786584854126,-0.14698469638824463
0.600392758846283,-0.22718629240989685,0.45644524693489075,-0.4274364113807678,-0.458998441696167,-0.09907788038253784
0.6487702131271362,-0.26523420214653015,0.17376571893692017,-0.4939669370651245,-0.45703059434890747,-0.052398085594177246
0.5609288811683655,-0.21938444674015045,-0.15898233652114868,-0.5461201667785645,-0.4308788776397705,-0.0053390562534332275
0.3572797179222107,-0.06858116388320923,-0.4036614000797272,-0.5427722334861755,-0.38215959072113037,0.027566686272621155
0.12531937658786774,0.01348261907696724,-0.5664619207382202,-0.5062488317489624,-0.32969528436660767,0.030318111181259155
-0.030491463840007782,-0.002142903860658407,-0.6682049632072449,-0.5308590531349182,-0.2231602668762207,0.007828116416931152
0.10067126899957657,0.019626110792160034,-0.599922239780426,-0.5707686543464661,-0.05937117338180542,-0.06125211715698242
0.5617696642875671,-0.04891306161880493,-0.5205404162406921,-0.548855721950531,-0.04264277219772339,-0.15003028512001038
0.9630107283592224,-0.37433749437332153,-0.6888157725334167,-0.49521803855895996,-0.18763405084609985,-0.1635606288909912
1.132191777229309,-0.6292192935943604,-1.0079271793365479,-0.4794979691505432,-0.2190573811531067,-0.07653036713600159
1.2880234718322754,-0.7374041676521301,-1.1794407367706299,-0.43985825777053833,-0.14412105083465576,-0.03868436813354492
1.4450989961624146,-0.878328263759613,-1.1788995265960693,-0.32366299629211426,-0.09932225942611694,-0.026553794741630554
1.469859004020691,-1.1657302379608154,-1.1799954175949097,-0.2413175106048584,-0.08460259437561035,0.020244359970092773
1.3964598178863525,-1.3747873306274414,-1.2168700695037842,-0.2415705919265747,-0.038433849811553955,0.055171310901641846
1.242909550666809,-1.4956480264663696,-1.2872713804244995,-0.26656460762023926,0.04412347078323364,0.049736469984054565
1.0201212167739868,-1.566955804824829,-1.3514440059661865,-0.2549205422401428,0.081531822681427,0.033229485154151917
0.8057552576065063,-1.5503965616226196,-1.4077545404434204,-0.2161843180656433,0.08461835980415344,-0.017243370413780212
0.6325505375862122,-1.3944743871688843,-1.4950779676437378,-0.19905859231948853,0.10137787461280823,-0.08546458184719086
0.5256500244140625,-1.0868053436279297,-1.5667424201965332,-0.18443363904953003,0.14472094178199768,-0.1518115997314453
0.5571420788764954,-0.815514326095581,-1.6517807245254517,-0.14406204223632812,0.18784111738204956,-0.23635293543338776
0.6225665807723999,-0.6824446320533752,-1.7489570379257202,-0.07672417163848877,0.19589602947235107,-0.27331292629241943
0.6487625241279602,-0.624058723449707,-1.8780097961425781,-0.04040801525115967,0.24734660983085632,-0.25676512718200684
0.6340495944023132,-0.6266733407974243,-1.9547755718231201,0.00627899169921875,0.2958374321460724,-0.2291443943977356
0.6225072145462036,-0.6485525965690613,-1.9579706192016602,0.07577592134475708,0.34733009338378906,-0.2098357081413269
0.6013449430465698,-0.6873054504394531,-1.900683045387268,0.1398581862449646,0.38975948095321655,-0.2043328881263733
0.5410018563270569,-0.7051185965538025,-1.7778476476669312,0.2191653847694397,0.4106423854827881,-0.1920614242553711
0.46034297347068787,-0.6580451726913452,-1.6171844005584717,0.27666765451431274,0.43208956718444824,-0.18829363584518433
0.34601983428001404,-0.5640085935592651,-1.4375766515731812,0.32369571924209595,0.44519445300102234,-0.1872403621673584
0.2253303825855255,-0.4576887786388397,-1.2409802675247192,0.36805546283721924,0.44932395219802856,-0.18558305501937866
0.13573749363422394,-0.332895427942276,-1.046868920326233,0.39349639415740967,0.45728379487991333,-0.19166964292526245
0.0519317202270031,-0.2390177994966507,-0.8574205636978149,0.4134795069694519,0.4615650773048401,-0.19181114435195923
-0.011109946295619011,-0.18036916851997375,-0.7231859564781189,0.41154372692108154,0.4556695222854614,-0.17991536855697632
-0.08924887329339981,-0.1523197591304779,-0.5714468359947205,0.41759049892425537,0.45281127095222473,-0.16838210821151733
-0.19455301761627197,-0.10910297930240631,-0.36543262004852295,0.4323241114616394,0.4698961675167084,-0.15679985284805298
-0.26110246777534485,-0.08462213724851608,-0.13473892211914062,0.4302610754966736,0.4882982671260834,-0.16348791122436523
-0.278216689825058,-0.03719300776720047,0.11056643724441528,0.4059333801269531,0.5248643159866333,-0.1810551881790161
-0.21315452456474304,0.00022508192341774702,0.3549477159976959,0.38519716262817383,0.5380710959434509,-0.20455265045166016
-0.157907173037529,-0.04891585186123848,0.5651742815971375,0.3331388831138611,0.5589059591293335,-0.2034691572189331
-0.2101403772830963,-0.0235275961458683,0.7957841157913208,0.2478482723236084,0.645329475402832,-0.16241568326950073
-0.23398205637931824,0.0962400808930397,1.199034571647644,0.2450382113456726,0.6848255395889282,-0.14769130945205688
-0.12489069253206253,0.1501801759004593,1.6535205841064453,0.2769261598587036,0.6254224181175232,-0.16798728704452515
-0.03536289930343628,0.19126777350902557,1.9652903079986572,0.21348345279693604,0.5693427324295044,-0.1533515453338623
-0.011781608685851097,0.32902991771698,2.199366331100464,0.14041292667388916,0.5203461050987244,-0.11047029495239258
0.016413243487477303,0.43665987253189087,2.383213520050049,0.11428451538085938,0.41427505016326904,-0.08354628086090088
0.08570395410060883,0.506328284740448,2.5648419857025146,0.10879838466644287,0.2900182604789734,-0.06950044631958008
0.23903289437294006,0.531340479850769,2.6827802658081055,0.07070791721343994,0.18858850002288818,-0.07011419534683228
0.46052348613739014,0.43659844994544983,2.7228047847747803,-0.013060510158538818,0.13142600655555725,-0.07026612013578415
0.7806693315505981,0.2327537089586258,2.7158539295196533,-0.11545252799987793,0.11831775307655334,-0.07062368839979172
1.2058849334716797,-0.08980274200439453,2.6490554809570312,-0.22024917602539062,0.12337061762809753,-0.0743822380900383
1.6800047159194946,-0.4295952022075653,2.511211633682251,-0.30824536085128784,0.09861856698989868,-0.0728411078453064
2.0954294204711914,-0.6169759035110474,2.2896907329559326,-0.34967947006225586,0.027163982391357422,-0.05781590938568115
2.320420026779175,-0.5190509557723999,1.8679189682006836,-0.4027203321456909,-0.07389247417449951,-0.008969783782958984
2.0992801189422607,-0.12418564409017563,1.4006026983261108,-0.40447717905044556,-0.15494787693023682,0.08954691886901855
1.4523149728775024,0.41720646619796753,0.9955834746360779,-0.36325371265411377,-0.1876036524772644,0.2314416915178299
0.6414796113967896,0.8877584934234619,0.6902992129325867,-0.2910577058792114,-0.21431231498718262,0.3378629982471466
-0.01824462227523327,1.1590529680252075,0.5228680372238159,-0.2255142331123352,-0.22328263521194458,0.34767600893974304
-0.3799663186073303,1.2236484289169312,0.46330320835113525,-0.17300039529800415,-0.21461015939712524,0.29410168528556824
-0.45663952827453613,1.1297944784164429,0.44690245389938354,-0.14939647912979126,-0.2107052206993103,0.22815099358558655
-0.31271782517433167,0.9305320978164673,0.37145841121673584,-0.16961687803268433,-0.22183656692504883,0.17497467994689941
-0.23133228719234467,0.6893090605735779,0.28708043694496155,-0.17084699869155884,-0.25050824880599976,0.17561477422714233
-0.3270331621170044,0.5062082409858704,0.23175066709518433,-0.15485036373138428,-0.2761054039001465,0.21762192249298096
-0.452011376619339,0.3967876136302948,0.22429275512695312,-0.1465398073196411,-0.28625088930130005,0.21698665618896484
-0.48747143149375916,0.3666740953922272,0.2504809498786926,-0.16474169492721558,-0.2669781446456909,0.16582241654396057
-0.3952920436859131,0.2860952615737915,0.21992596983909607,-0.19502794742584229,-0.2646063566207886,0.112314373254776
-0.21272867918014526,0.18262524902820587,0.19099131226539612,-0.22949928045272827,-0.26182204484939575,0.06926807761192322
-0.003963647410273552,0.06647401303052902,0.12447446584701538,-0.2654302716255188,-0.25908929109573364,0.04947465658187866
0.14644083380699158,-0.060442935675382614,0.0152670219540596,-0.29308152198791504,-0.27233314514160156,0.053209006786346436
0.21958430111408234,-0.16237659752368927,-0.12107696384191513,-0.31236177682876587,-0.27426445484161377,0.07287192344665527
0.25384193658828735,-0.22174061834812164,-0.30041569471359253,-0.33225351572036743,-0.2644427418708801,0.08262589573860168
0.25544700026512146,-0.24575524032115936,-0.5024744868278503,-0.3460177183151245,-0.25208163261413574,0.08360517024993896
0.18569466471672058,-0.2216886281967163,-0.7124031186103821,-0.3392685055732727,-0.24337083101272583,0.09490358829498291
0.02957749366760254,-0.12213040888309479,-0.8988429307937622,-0.3125994801521301,-0.22742140293121338,0.10754752159118652
-0.14602139592170715,-0.03494257479906082,-1.0797983407974243,-0.2807227373123169,-0.2078874111175537,0.10819914937019348
-0.3854375183582306,-0.10663885623216629,-1.269438624382019,-0.2884092330932617,-0.159193217754364,0.10439282655715942
-0.6145263314247131,-0.05112138018012047,-1.349640965461731,-0.374505877494812,0.03630751371383667,0.10039964318275452
-0.638480544090271,0.05670551210641861,-1.236098289489746,-0.3998345732688904,0.19416993856430054,0.03744027018547058
-0.5260520577430725,0.035653870552778244,-1.1581672430038452,-0.35600829124450684,0.1591922640800476,-0.037095412611961365
-0.5083450078964233,-0.031401049345731735,-1.3005422353744507,-0.29966503381729126,0.014877140522003174,-0.048237353563308716
-0.5825726389884949,0.038751181215047836,-1.7159836292266846,-0.2879507541656494,-0.07702314853668213,-0.027865633368492126
-0.6300376057624817,0.3065266013145447,-2.096914052963257,-0.2543296217918396,-0.05129814147949219,-0.0376756489276886
-0.5834264159202576,0.6240291595458984,-2.2888333797454834,-0.1769956350326538,0.06301403045654297,-0.059400320053100586
-0.45461905002593994,0.8519669771194458,-2.2821571826934814,-0.10792797803878784,0.21163028478622437,-0.06289458274841309
-0.30672383308410645,0.8459311723709106,-2.1137592792510986,-0.053553640842437744,0.3720352053642273,-0.03698405623435974
-0.15374475717544556,0.6591208577156067,-1.8251680135726929,-0.029211878776550293,0.5061098337173462,-0.004830747842788696
0.07414650917053223,0.2772451639175415,-1.4300166368484497,-0.003807663917541504,0.586260199546814,0.0030717551708221436
0.34777459502220154,-0.2452142983675003,-1.0651577711105347,0.028056561946868896,0.5658631324768066,-0.006001979112625122
0.5862405896186829,-0.6501737833023071,-0.930352509021759,0.021610677242279053,0.4866747260093689,-0.022765696048736572
0.7049054503440857,-0.8430218696594238,-0.99909508228302,-0.004697978496551514,0.400251567363739,-0.024652957916259766
0.6724059581756592,-0.8371883034706116,-1.1512733697891235,0.01039111614227295,0.34840303659439087,-0.011095821857452393
0.49389904737472534,-0.6462664008140564,-1.25557541847229,0.05604177713394165,0.33569061756134033,0.009206920862197876
0.22546523809432983,-0.35796603560447693,-1.2674565315246582,0.12290805578231812,0.357820987701416,0.030421197414398193
-0.02814769744873047,-0.06736764311790466,-1.2351365089416504,0.16282391548156738,0.3952375054359436,0.04490049183368683
-0.17481999099254608,0.09305490553379059,-1.1596710681915283,0.1929066777229309,0.4268471300601959,0.04932790994644165
-0.18285712599754333,0.10153701156377792,-1.0518817901611328,0.2183166742324829,0.460478812456131,0.038217321038246155
-0.12831789255142212,0.031089406460523605,-0.9117101430892944,0.2489616870880127,0.4802733361721039,0.034371644258499146
-0.06388425827026367,-0.09387778490781784,-0.7921426296234131,0.27268165349960327,0.4812798798084259,0.04740461707115173
-0.070347860455513,-0.1559595763683319,-0.6888208985328674,0.2846461534500122,0.4712783396244049,0.0644829273223877
-0.21124200522899628,-0.11626815795898438,-0.6052989363670349,0.29098284244537354,0.4791378378868103,0.10209459066390991
-0.45324501395225525,-0.05294075235724449,-0.5239458084106445,0.29745346307754517,0.4782097339630127,0.14027434587478638
-0.7998016476631165,0.07029516249895096,-0.41377508640289307,0.30742812156677246,0.5036327242851257,0.17117637395858765
-1.2104743719100952,0.21929775178432465,-0.2764229476451874,0.319779634475708,0.5295512676239014,0.20108163356781006
-1.6100406646728516,0.3626944422721863,-0.08537683635950089,0.3322082757949829,0.5427082777023315,0.21714818477630615
-1.9152885675430298,0.4679121673107147,0.18007934093475342,0.362162709236145,0.5433602333068848,0.20826256275177002
-2.0410289764404297,0.44030657410621643,0.44347867369651794,0.3838828206062317,0.5084574222564697,0.1834734082221985
-2.081319570541382,0.2841393053531647,0.624133825302124,0.35122376680374146,0.47250908613204956,0.15263381600379944
-2.2065813541412354,0.08778780698776245,0.6749195456504822,0.25199395418167114,0.49202996492385864,0.16220051050186157
-2.6011962890625,-0.095571368932724,0.7411696314811707,0.15236347913742065,0.5598132610321045,0.19888070225715637
-3.2366440296173096,-0.12244618684053421,0.9075495004653931,0.06547558307647705,0.6794100999832153,0.2254875898361206
-3.873204231262207,0.01653367467224598,1.1270209550857544,0.026929378509521484,0.7342878580093384,0.16719946265220642
-4.391608238220215,0.22712107002735138,1.1734988689422607,-0.06759035587310791,0.7120806574821472,0.07005584239959717
-5.165775299072266,0.5961472392082214,0.9855602383613586,-0.18762773275375366,0.6832623481750488,0.03638151288032532
-6.295228004455566,1.1776390075683594,0.6905466914176941,-0.2002469301223755,0.6273573040962219,0.07008625566959381
-7.259153842926025,1.9538236856460571,0.3460322320461273,-0.15990597009658813,0.6166955232620239,0.012608051300048828
-7.571610450744629,2.679962158203125,0.008568104356527328,-0.08434939384460449,0.6319528222084045,-0.19071437418460846
-7.187236309051514,3.1405317783355713,-0.2329070270061493,0.00755763053894043,0.6226832866668701,-0.397114634513855
-6.267741680145264,3.1814229488372803,-0.304787814617157,0.10765731334686279,0.5789105892181396,-0.5271345973014832
-5.014839172363281,2.650618314743042,-0.27483710646629333,0.16562390327453613,0.5054492950439453,-0.5831061601638794
-3.8140037059783936,1.6831305027008057,-0.29153597354888916,0.1548546552658081,0.4201458990573883,-0.5281195640563965
-2.88041353225708,0.5952604413032532,-0.34869638085365295,0.10851764678955078,0.3606886565685272,-0.4283527731895447
-2.2799651622772217,-0.4013483226299286,-0.27594003081321716,0.11190140247344971,0.31105583906173706,-0.35225337743759155
-2.0754477977752686,-1.0357543230056763,-0.044388655573129654,0.1594167947769165,0.2778431177139282,-0.3062644600868225
-2.11698055267334,-1.256925106048584,0.18408693373203278,0.16910886764526367,0.25946229696273804,-0.31018877029418945
-2.1982202529907227,-1.1540874242782593,0.2405630648136139,0.1128377914428711,0.2189134955406189,-0.3902510404586792
-2.3346660137176514,-0.7116689682006836,0.20419007539749146,0.055790483951568604,0.188587486743927,-0.4754951000213623
-2.579935073852539,-0.0523650199174881,0.19110271334648132,0.06680208444595337,0.16883796453475952,-0.5176199674606323
-2.8684332370758057,0.6704816222190857,0.20264418423175812,0.11595708131790161,0.14487296342849731,-0.5318342447280884
-3.0481674671173096,1.2230265140533447,0.23873452842235565,0.17754101753234863,0.11436054110527039,-0.5372008085250854
-3.0718719959259033,1.554126262664795,0.28201648592948914,0.23194235563278198,0.08323758840560913,-0.5566611289978027
-3.0077691078186035,1.6881767511367798,0.31022509932518005,0.2781541347503662,0.0461326539516449,-0.5561292171478271
-2.849883556365967,1.6658328771591187,0.29152438044548035,0.28988587856292725,0.02687135338783264,-0.5490769147872925
-2.554701089859009,1.5567606687545776,0.2881879508495331,0.2755930423736572,0.029524683952331543,-0.5526591539382935
-2.189365863800049,1.4123982191085815,0.38478314876556396,0.2655082941055298,0.0516219437122345,-0.5552380084991455
-1.9025397300720215,1.2745362520217896,0.5649682283401489,0.27603036165237427,0.04813256859779358,-0.5249894857406616
-1.7681639194488525,1.2179673910140991,0.7359535098075867,0.24643093347549438,0.03136762976646423,-0.4662703275680542
-1.6852635145187378,1.2645068168640137,0.9186180233955383,0.2039088010787964,0.014031529426574707,-0.4280054569244385
-1.5509424209594727,1.3541152477264404,1.11300790309906,0.1769176721572876,-0.003328263759613037,-0.4169003963470459
-1.310702919960022,1.4321112632751465,1.2900978326797485,0.1394473910331726,-0.033080995082855225,-0.41302692890167236
-1.035234808921814,1.4898912906646729,1.5128916501998901,0.0912519097328186,-0.06839793920516968,-0.3916642665863037
-0.7785978317260742,1.479244351387024,1.7445664405822754,0.03286927938461304,-0.09105008840560913,-0.3466039299964905
-0.5430609583854675,1.3524463176727295,1.9395432472229004,-0.05866086483001709,-0.11301636695861816,-0.2989983558654785
-0.29487344622612,1.12496018409729,2.021347999572754,-0.1953645944595337,-0.13703995943069458,-0.25692445039749146
0.04284767806529999,0.850777804851532,1.9433388710021973,-0.3700428009033203,-0.18492186069488525,-0.2367752194404602
0.3311525881290436,0.674137532711029,1.8028037548065186,-0.4965231418609619,-0.2510489821434021,-0.21655231714248657
0.33717864751815796,0.710985004901886,1.6409571170806885,-0.549608588218689,-0.33294254541397095,-0.14962881803512573
0.13719220459461212,0.8553605675697327,1.4461356401443481,-0.6137672662734985,-0.37890326976776123,-0.07903271913528442
0.07388187944889069,1.1207351684570312,1.219269871711731,-0.7970612049102783,-0.2595345973968506,-0.08115273714065552
0.22344237565994263,1.4898831844329834,0.9880484342575073,-0.9196096658706665,-0.170210599899292,-0.11277216672897339
0.3254869878292084,1.744346261024475,0.6272315382957458,-0.8783659338951111,-0.33660608530044556,-0.06767521798610687
0.22005625069141388,1.8697761297225952,0.12661738693714142,-0.774715006351471,-0.5452479720115662,0.065182164311409
0.11880534142255783,1.939910888671875,-0.37456002831459045,-0.7300087213516235,-0.5687578916549683,0.179214209318161
0.09379696846008301,1.88914954662323,-0.6801828742027283,-0.675076425075531,-0.4864453673362732,0.24507452547550201
0.013791490346193314,1.4993066787719727,-0.6337738633155823,-0.5569096803665161,-0.39209097623825073,0.329783171415329
-0.22125574946403503,0.7326533198356628,-0.4314967691898346,-0.4263119101524353,-0.35357582569122314,0.4513663649559021
-0.5400187373161316,-0.05596749112010002,-0.4504404664039612,-0.4092872142791748,-0.3588522672653198,0.5016083717346191
-0.7325108051300049,-0.41882920265197754,-0.7331135869026184,-0.5142202973365784,-0.37174004316329956,0.3813997805118561
-0.8236578702926636,-0.3466257154941559,-1.0459229946136475,-0.5677072405815125,-0.3329053521156311,0.20571723580360413
-0.8461614847183228,-0.039251234382390976,-1.3622006177902222,-0.5715566277503967,-0.3056994676589966,0.08684469759464264
-0.8286770582199097,0.28534185886383057,-1.6621949672698975,-0.5433822274208069,-0.27786511182785034,0.022179558873176575
-0.6823998689651489,0.46713483333587646,-1.9574205875396729,-0.5084353089332581,-0.23154646158218384,-0.019175857305526733
-0.4307876229286194,0.5440226793289185,-2.2046210765838623,-0.46982836723327637,-0.15103501081466675,-0.04576042294502258
-0.16580957174301147,0.5078058838844299,-2.4466469287872314,-0.4309290051460266,-0.07225263118743896,-0.03893929719924927
0.003670475445687771,0.3490610420703888,-2.6294522285461426,-0.38684970140457153,-0.009669482707977295,-0.00715993344783783
0.022169627249240875,0.16304892301559448,-2.7425899505615234,-0.33147794008255005,0.0651959776878357,0.027335315942764282
-0.05053266882896423,-0.03554088994860649,-2.7808871269226074,-0.28224843740463257,0.1535269021987915,0.04834982752799988
-0.12082386016845703,-0.17943787574768066,-2.7299234867095947,-0.2307857871055603,0.24552157521247864,0.03611619770526886
-0.1476116180419922,-0.27994444966316223,-2.6420037746429443,-0.17068380117416382,0.30776137113571167,-0.0043866634368896484
-0.17202527821063995,-0.28355035185813904,-2.567249298095703,-0.11803710460662842,0.33625295758247375,-0.037957727909088135
-0.2230003923177719,-0.21112275123596191,-2.491914987564087,-0.06728875637054443,0.36364367604255676,-0.051644474267959595
-0.2826747000217438,-0.12087035179138184,-2.410491466522217,-0.0017877817153930664,0.37815433740615845,-0.04901956021785736
-0.2909102737903595,-0.05250775068998337,-2.3028271198272705,0.06135201454162598,0.3907608985900879,-0.051836222410202026
-0.23851962387561798,0.017272578552365303,-2.1633737087249756,0.11774677038192749,0.41586366295814514,-0.05091714859008789
-0.17510093748569489,0.051605138927698135,-1.9551671743392944,0.1892910599708557,0.42316222190856934,-0.038223981857299805
-0.11978459358215332,0.056111615151166916,-1.704440712928772,0.2635788321495056,0.42935678362846375,-0.008156701922416687
-0.05480199307203293,0.033658742904663086,-1.4448294639587402,0.31853073835372925,0.4218563437461853,0.004837289452552795
0.00987652875483036,-0.04743998497724533,-1.277766466140747,0.3299081325531006,0.4154347777366638,0.025790661573410034
0.0022558392956852913,-0.11093095690011978,-1.0521575212478638,0.36031675338745117,0.40960946679115295,0.053637996315956116
-0.060996633023023605,-0.1350560039281845,-0.7884449362754822,0.4138554334640503,0.4192676842212677,0.07337135076522827
-0.12527519464492798,-0.1393650472164154,-0.498981773853302,0.4331655502319336,0.42281487584114075,0.07879097759723663
-0.19358666241168976,-0.12899747490882874,-0.20382870733737946,0.42974281311035156,0.4590068757534027,0.07903456687927246
-0.2805728614330292,-0.20071938633918762,0.1385028064250946,0.4347781538963318,0.4681304693222046,0.08392244577407837
-0.34271398186683655,-0.3547595143318176,0.48516547679901123,0.4372369050979614,0.478951096534729,0.07351565361022949
-0.409036248922348,-0.6062319874763489,0.7989745736122131,0.3790673017501831,0.4961392283439636,0.030224323272705078
-0.5322083234786987,-0.6988846063613892,1.1313339471817017,0.26293396949768066,0.6377596259117126,-0.011654004454612732
-0.5886406302452087,-0.6772225499153137,1.5330379009246826,0.17131203413009644,0.742932140827179,-0.08209393918514252
-0.5343497395515442,-0.48041561245918274,2.0583367347717285,0.1660914421081543,0.7371374368667603,-0.15546096861362457
-0.3898283541202545,-0.16319485008716583,2.5160505771636963,0.1310673952102661,0.6618137955665588,-0.20087307691574097
-0.1782839149236679,0.14954538643360138,2.698127031326294,0.042388081550598145,0.5273749232292175,-0.19050563871860504
-0.07203499227762222,0.32615089416503906,2.599656820297241,-0.01391589641571045,0.28188860416412354,-0.12854862213134766
-0.1866692453622818,0.3264191448688507,2.3887720108032227,-0.04230356216430664,0.09738019108772278,-0.026742100715637207
-0.38862186670303345,0.30788329243659973,2.1690378189086914,-0.090473473072052,0.026040345430374146,0.04084041714668274
-0.4604211449623108,0.2768152058124542,1.9861981868743896,-0.15350109338760376,0.04445412755012512,0.02722245454788208
-0.37987276911735535,0.1477176696062088,1.8547756671905518,-0.18039721250534058,0.04624241590499878,-0.02056044340133667
-0.3073779046535492,-0.029424114152789116,1.755651593208313,-0.15825247764587402,-0.00029984116554260254,-0.04544627666473389
-0.3398854732513428,-0.05022229626774788,1.607326626777649,-0.16424399614334106,-0.060672491788864136,-0.05650446563959122
-0.4484051465988159,0.09064456820487976,1.375799298286438,-0.1868153214454651,-0.11628186702728271,-0.06307940930128098
-0.5701828598976135,0.31201425194740295,1.1022262573242188,-0.2020818591117859,-0.16739702224731445,-0.07394217699766159
-0.6796292066574097,0.5482741594314575,0.8547235727310181,-0.18691343069076538,-0.22403132915496826,-0.08070582151412964
-0.7912387847900391,0.7497620582580566,0.6563056707382202,-0.15562206506729126,-0.2534671425819397,-0.0699237585067749
-0.9460642337799072,0.9251074194908142,0.4759109318256378,-0.13466709852218628,-0.26516932249069214,-0.05141984671354294
-1.1737960577011108,1.039043664932251,0.2863720953464508,-0.10742408037185669,-0.27676618099212646,-0.01887369155883789
-1.3821635246276855,1.1552374362945557,0.032873980700969696,-0.12331336736679077,-0.27919620275497437,-0.004743441939353943
-1.609191656112671,1.3488951921463013,-0.16016432642936707,-0.13534760475158691,-0.24353331327438354,-0.009980559349060059
-1.965264081954956,1.5753097534179688,-0.2605184018611908,-0.10220581293106079,-0.19658207893371582,0.012874141335487366
-2.4152567386627197,1.7894388437271118,-0.31634411215782166,-0.0842818021774292,-0.16258001327514648,0.02729785442352295
-2.813904047012329,1.9795033931732178,-0.3153221607208252,-0.06633150577545166,-0.11490505933761597,-0.0018830448389053345
-3.0164527893066406,2.190397024154663,-0.1945069134235382,-0.05105668306350708,-0.0591050386428833,-0.07028625905513763
-2.882938861846924,2.3028578758239746,0.03810650110244751,-0.02146005630493164,-0.024131596088409424,-0.1623859405517578
-2.477071523666382,2.1502723693847656,0.28802672028541565,-0.020839929580688477,-0.06067335605621338,-0.2425365447998047
-1.9905840158462524,1.7816866636276245,0.5192481279373169,-0.02877199649810791,-0.11833536624908447,-0.26338183879852295
-1.3860093355178833,1.2100673913955688,0.7225475311279297,-0.06171214580535889,-0.18786466121673584,-0.27370548248291016
-0.593260645866394,0.5776570439338684,0.8794882893562317,-0.13383036851882935,-0.23151594400405884,-0.3089855909347534
0.31145018339157104,0.039241231977939606,0.9733247756958008,-0.2210754156112671,-0.2693321704864502,-0.34402817487716675
1.0568287372589111,-0.28209131956100464,0.9449671506881714,-0.3077150583267212,-0.31473374366760254,-0.30727148056030273
1.5031315088272095,-0.3900989294052124,0.8215635418891907,-0.37601661682128906,-0.3485724925994873,-0.19455350935459137
1.6737475395202637,-0.3949989378452301,0.6372641324996948,-0.40104395151138306,-0.38140714168548584,-0.07157723605632782
1.6417876482009888,-0.3192438781261444,0.4443925619125366,-0.3984305262565613,-0.3953207731246948,0.03890359401702881
1.4705281257629395,-0.215298593044281,0.2377060204744339,-0.3795405626296997,-0.41324418783187866,0.12983942031860352
1.220885992050171,-0.07485757023096085,0.05349563807249069,-0.35755234956741333,-0.41862690448760986,0.19223004579544067
0.8345072269439697,-0.12747147679328918,-0.09645484387874603,-0.33546727895736694,-0.40597003698349,0.23880717158317566
0.402093768119812,-0.23388546705245972,-0.15694016218185425,-0.38766932487487793,-0.27663594484329224,0.2759208679199219
0.24856384098529816,-0.3138074576854706,-0.03252340108156204,-0.4651583433151245,-0.12251240015029907,0.20634180307388306
0.40265125036239624,-0.5830073952674866,0.08624772727489471,-0.4906511902809143,-0.10201704502105713,0.07474976778030396
0.6463437080383301,-0.954251766204834,-0.026303788647055626,-0.5212187170982361,-0.23150616884231567,-0.010201558470726013
0.8841792941093445,-1.1664295196533203,-0.4157082438468933,-0.5738600492477417,-0.31373196840286255,-0.041942477226257324
1.0904755592346191,-1.2260417938232422,-0.9873743057250977,-0.5950664281845093,-0.35583359003067017,-0.06410865485668182
1.1185688972473145,-1.1803886890411377,-1.4532068967819214,-0.5238658785820007,-0.3351967930793762,-0.053431928157806396
0.8835654854774475,-1.0416650772094727,-1.7048027515411377,-0.43683576583862305,-0.2000407576560974,0.005653709173202515
0.5942127704620361,-0.9347643852233887,-1.8133670091629028,-0.4019046425819397,-0.022058308124542236,0.0402531623840332
0.4363558888435364,-0.9183737635612488,-1.8264460563659668,-0.36811137199401855,0.11068397760391235,0.007015436887741089
0.38653284311294556,-1.0015805959701538,-1.8566977977752686,-0.32681429386138916,0.14855116605758667,-0.04771709442138672
0.3391754627227783,-0.9964463114738464,-1.9419418573379517,-0.2930741310119629,0.15673989057540894,-0.08851656317710876
0.2614327073097229,-0.8842331767082214,-2.05859112739563,-0.2596743702888489,0.1767415702342987,-0.11729204654693604
0.14081306755542755,-0.7223661541938782,-2.172276020050049,-0.20862191915512085,0.19522833824157715,-0.13091033697128296
0.00658744340762496,-0.5106561779975891,-2.2560923099517822,-0.1578810214996338,0.23436561226844788,-0.1356804519891739
-0.08273496478796005,-0.2713333070278168,-2.3440499305725098,-0.11801904439926147,0.2872776687145233,-0.15598003566265106
-0.16081275045871735,-0.058162808418273926,-2.413524866104126,-0.07558190822601318,0.3492286503314972,-0.15524886548519135
-0.22729599475860596,0.10601597279310226,-2.4604530334472656,-0.0255243182182312,0.40444639325141907,-0.14101292192935944
-0.2719954252243042,0.2256806194782257,-2.4326000213623047,0.04580658674240112,0.4545365869998932,-0.1259479969739914
-0.25298166275024414,0.294664591550827,-2.3357045650482178,0.12420833110809326,0.5036818385124207,-0.1212928295135498
-0.14595402777194977,0.31539204716682434,-2.163935422897339,0.19938939809799194,0.5382834672927856,-0.12203763425350189
-0.019320107996463776,0.24664190411567688,-1.943677306175232,0.26442134380340576,0.5612626671791077,-0.1070588231086731
0.07503160089254379,0.20376485586166382,-1.682596206665039,0.31930291652679443,0.5839362144470215,-0.07884520292282104
0.1434682309627533,0.15882517397403717,-1.3657112121582031,0.3867892622947693,0.5812048316001892,-0.05769751965999603
0.23273661732673645,0.13314874470233917,-1.022512435913086,0.4495093822479248,0.5759594440460205,-0.04789005219936371
0.361820250749588,0.0844327062368393,-0.7398996353149414,0.47210508584976196,0.5495593547821045,-0.0434061735868454
0.45564043521881104,0.0368126779794693,-0.5416204929351807,0.4686194658279419,0.5314603447914124,-0.01240009069442749
0.4708132743835449,-0.0006998063181526959,-0.3073253929615021,0.4822361469268799,0.5165477991104126,0.026764392852783203
0.38629022240638733,-0.01110031921416521,-0.0006371717900037766,0.5052559971809387,0.5186927318572998,0.06740570068359375
0.2506665587425232,-0.03995262831449509,0.3593102991580963,0.5205927491188049,0.513124406337738,0.10200916230678558
0.1228162944316864,-0.09089124947786331,0.7042564153671265,0.5076876282691956,0.5005576014518738,0.11571770906448364
0.020732639357447624,-0.14102542400360107,0.9826515316963196,0.4574592709541321,0.4890117645263672,0.11226522922515869
-0.124187171459198,-0.18981274962425232,1.1556193828582764,0.39540016651153564,0.4652288556098938,0.11181396245956421
-0.3921184241771698,-0.19675414264202118,1.3010618686676025,0.3454161286354065,0.45254087448120117,0.13203074038028717
-0.7475860118865967,-0.11896062642335892,1.4761748313903809,0.3196421265602112,0.4493183195590973,0.1384689211845398
-1.0828889608383179,0.0117874750867486,1.6845250129699707,0.29625415802001953,0.4421488046646118,0.10068859159946442
-1.4931563138961792,-0.08295853435993195,1.849713921546936,0.20778608322143555,0.4682464599609375,0.05371023714542389
-1.9985979795455933,0.0048783388920128345,2.095916986465454,0.04376131296157837,0.6644261479377747,0.04653824865818024
-2.320496082305908,0.17764024436473846,2.591672420501709,-0.025918006896972656,0.7799379825592041,-0.04372692108154297
-2.291881561279297,0.22977609932422638,3.1114723682403564,-0.047099411487579346,0.7340859174728394,-0.19277940690517426
-2.0126969814300537,0.17367644608020782,3.4098918437957764,-0.15157902240753174,0.6334196329116821,-0.29473111033439636
-1.5460619926452637,0.08403968811035156,3.4681859016418457,-0.27462655305862427,0.46542027592658997,-0.35616207122802734
-0.9662448167800903,0.08780425041913986,3.3763818740844727,-0.3954738974571228,0.2983265221118927,-0.3965151309967041
-0.36219456791877747,0.08274754136800766,3.2741873264312744,-0.44589561223983765,0.09622275829315186,-0.3961261510848999
0.2444869875907898,-0.0706954151391983,3.0564231872558594,-0.476409375667572,-0.12834787368774414,-0.36461448669433594
0.7975513339042664,-0.2686443626880646,2.6101644039154053,-0.5614023804664612,-0.2883186936378479,-0.3078106641769409
1.1807292699813843,-0.22421914339065552,2.097177743911743,-0.6136090755462646,-0.33790796995162964,-0.24272213876247406
1.2967572212219238,0.028324345126748085,1.410999059677124,-0.6505054235458374,-0.3247337341308594,-0.14900332689285278
0.9706940054893494,0.4321836531162262,0.5808829665184021,-0.6839100122451782,-0.34054380655288696,-0.00358562171459198
0.09722017496824265,0.9577478766441345,0.011171956546604633,-0.5524877309799194,-0.3574138879776001,0.18908417224884033
-1.067231297492981,1.4976392984390259,-0.30767080187797546,-0.3844836950302124,-0.3478770852088928,0.3330972194671631
-2.112004280090332,1.8715739250183105,-0.5089307427406311,-0.25904732942581177,-0.32063204050064087,0.35134994983673096
-2.833148717880249,2.0664420127868652,-0.6057336926460266,-0.16193628311157227,-0.2933737635612488,0.262825608253479
-3.209643840789795,2.166491746902466,-0.6157646179199219,-0.09116947650909424,-0.24640387296676636,0.13760465383529663
-3.205965518951416,2.167426586151123,-0.5321376323699951,-0.04370301961898804,-0.20476043224334717,-0.007491454482078552
-2.9274580478668213,1.9801867008209229,-0.40690773725509644,0.0037079453468322754,-0.21779102087020874,-0.12500154972076416
-2.5534050464630127,1.6526060104370117,-0.2711053490638733,0.034953951835632324,-0.2477250099182129,-0.18219614028930664
-2.1206562519073486,1.208917498588562,-0.16439908742904663,0.03773915767669678,-0.2775611877441406,-0.2163771390914917
-1.5882914066314697,0.7290961146354675,-0.08461523056030273,0.0013608336448669434,-0.28793543577194214,-0.262249231338501
-1.0313352346420288,0.3165495693683624,0.014176856726408005,-0.04564768075942993,-0.279640257358551,-0.3054848313331604
-0.5508399605751038,0.05694488808512688,0.16379591822624207,-0.06808924674987793,-0.2672514319419861,-0.3205763101577759
-0.18233013153076172,-0.07122532278299332,0.2939157783985138,-0.0847935676574707,-0.2961384057998657,-0.31558001041412354
0.14247512817382812,-0.10715296864509583,0.32477468252182007,-0.12922728061676025,-0.3260437846183777,-0.3029595613479614
0.42813044786453247,-0.11919554322957993,0.2444324940443039,-0.19314700365066528,-0.3569492697715759,-0.2844589352607727
0.6382895708084106,-0.13297757506370544,0.16175338625907898,-0.23247849941253662,-0.3674262762069702,-0.24551081657409668
0.7606164813041687,-0.17265552282333374,0.08304773271083832,-0.25187647342681885,-0.35868096351623535,-0.1922973394393921
0.8204118013381958,-0.2193613201379776,-0.00017045647837221622,-0.2868468165397644,-0.3334615230560303,-0.15166354179382324
0.8556233644485474,-0.2886851131916046,-0.09654885530471802,-0.32360053062438965,-0.30052465200424194,-0.12884211540222168
0.8791497945785522,-0.34324491024017334,-0.24286803603172302,-0.3705136775970459,-0.27006179094314575,-0.12577807903289795
0.8002872467041016,-0.4215128719806671,-0.42326733469963074,-0.42754560708999634,-0.22284436225891113,-0.13539743423461914
0.641371488571167,-0.41082343459129333,-0.5733943581581116,-0.5272019505500793,-0.07751339673995972,-0.1268530935049057
0.6825169920921326,-0.17512008547782898,-0.5976715087890625,-0.5863706469535828,0.06868278980255127,-0.1725321263074875
0.9272957444190979,-0.007608227897435427,-0.6397510170936584,-0.5303712487220764,0.0280495285987854,-0.2456352561712265
1.1238245964050293,0.028557047247886658,-0.8013632893562317,-0.4358174204826355,-0.10091662406921387,-0.22236007452011108
1.3556482791900635,0.04880352318286896,-1.0586316585540771,-0.38692742586135864,-0.13157051801681519,-0.1701468676328659
1.6024709939956665,-0.08670805394649506,-1.2315868139266968,-0.28141260147094727,-0.13576936721801758,-0.11430439352989197
1.799560546875,-0.3825993537902832,-1.31808340549469,-0.17380011081695557,-0.11201900243759155,-0.04866743087768555
1.9404000043869019,-0.7168238162994385,-1.323241114616394,-0.0963624119758606,-0.06574082374572754,0.0005380809307098389
1.9846155643463135,-1.0695642232894897,-1.335647463798523,-0.07073450088500977,0.007450580596923828,0.025115415453910828
1.8653525114059448,-1.3557331562042236,-1.297837495803833,-0.058792293071746826,0.09750586748123169,0.044522494077682495
1.7038993835449219,-1.5269196033477783,-1.2054811716079712,-0.04883396625518799,0.20571258664131165,0.01909281313419342
1.6422743797302246,-1.5728615522384644,-1.0886757373809814,-0.029692888259887695,0.26711031794548035,-0.048607587814331055
1.6636606454849243,-1.505483627319336,-0.9332309365272522,0.012059509754180908,0.2810460329055786,-0.12312829494476318
1.69879949092865,-1.3739005327224731,-0.7992307543754578,0.05222487449645996,0.2536401152610779,-0.16911238431930542
1.6337108612060547,-1.2094953060150146,-0.7419437170028687,0.06485891342163086,0.22880509495735168,-0.1628524512052536
1.4568930864334106,-1.0773066282272339,-0.7843887805938721,0.0589599609375,0.20297130942344666,-0.1287103295326233
1.249049186706543,-0.9856009483337402,-0.940457820892334,0.036436259746551514,0.17424827814102173,-0.10090327262878418
1.0254650115966797,-0.8796525597572327,-1.0070785284042358,0.06337112188339233,0.17905762791633606,-0.09321080148220062
0.8587849140167236,-0.7925355434417725,-1.0075466632843018,0.11129534244537354,0.20936790108680725,-0.10300372540950775
0.7573384642601013,-0.7370800971984863,-0.9690074324607849,0.14829325675964355,0.23106658458709717,-0.1305757313966751
0.680560290813446,-0.6752570271492004,-0.890979528427124,0.18167024850845337,0.2589987516403198,-0.15546882152557373
0.5967146158218384,-0.6261204481124878,-0.8154112100601196,0.21210730075836182,0.2686207890510559,-0.17112451791763306
0.5003616213798523,-0.5567424297332764,-0.7463898658752441,0.22470241785049438,0.2825070917606354,-0.1785791516304016
0.4093931317329407,-0.48903888463974,-0.6663855314254761,0.24286139011383057,0.2925291359424591,-0.18801915645599365
0.3347366452217102,-0.4366363286972046,-0.6113811135292053,0.2525741457939148,0.30393099784851074,-0.19542020559310913
0.26724767684936523,-0.3691907227039337,-0.5548461675643921,0.25534170866012573,0.31355059146881104,-0.20116734504699707
0.1653742790222168,-0.26481810212135315,-0.45261406898498535,0.27852457761764526,0.3225553035736084,-0.19971436262130737
0.025544559583067894,-0.12146417051553726,-0.36128172278404236,0.2845311164855957,0.3293660283088684,-0.18027281761169434
-0.15447144210338593,0.020215019583702087,-0.2862660586833954,0.2807766795158386,0.321799099445343,-0.15400415658950806
-0.36543330550193787,0.1326679289340973,-0.24025502800941467,0.28136885166168213,0.3157821297645569,-0.12623584270477295
-0.5550273656845093,0.2787904441356659,-0.14229656755924225,0.29776448011398315,0.3096771836280823,-0.117134690284729
-0.6332436203956604,0.38960644602775574,0.010042698122560978,0.31801533699035645,0.31702160835266113,-0.13104236125946045
-0.6168124079704285,0.42569607496261597,0.18907524645328522,0.3291029930114746,0.3232065737247467,-0.14601022005081177
-0.5804059505462646,0.4249250292778015,0.38545194268226624,0.3245759606361389,0.3308734595775604,-0.13674867153167725
-0.539423942565918,0.36280712485313416,0.5451338291168213,0.31393128633499146,0.318942666053772,-0.12165796756744385
-0.5372971892356873,0.24436542391777039,0.6768620014190674,0.2768120765686035,0.30988049507141113,-0.1094365119934082
-0.6613414883613586,0.2322361320257187,0.8687649369239807,0.18076413869857788,0.4069359302520752,-0.08132617920637131
-0.7657217383384705,0.2722035348415375,1.2146748304367065,0.13772690296173096,0.484012246131897,-0.08443938195705414
-0.784535825252533,0.2760566771030426,1.6264116764068604,0.13257843255996704,0.4577081501483917,-0.11885778605937958
-0.7087785005569458,0.2575226426124573,1.867431402206421,0.07498550415039062,0.3481318950653076,-0.15469680726528168
-0.5512116551399231,0.34511491656303406,1.874587059020996,-0.03958451747894287,0.23911002278327942,-0.17746025323867798
-0.35537925362586975,0.4576488733291626,1.777413010597229,-0.11361247301101685,0.11438599228858948,-0.1776905655860901
-0.2694362998008728,0.5487122535705566,1.6684561967849731,-0.13140124082565308,0.012056082487106323,-0.12273479998111725
-0.22366315126419067,0.6343224048614502,1.5639104843139648,-0.16132205724716187,-0.0430949330329895,-0.06209826469421387
-0.10546713322401047,0.5915274620056152,1.4808850288391113,-0.18934381008148193,-0.06428462266921997,-0.030917391180992126
0.10981728881597519,0.3111565113067627,1.4120301008224487,-0.1837063431739807,-0.10906615853309631,-0.016472458839416504
0.33028164505958557,-0.04124375805258751,1.3523757457733154,-0.16863805055618286,-0.1580299735069275,-0.004108071327209473
0.4723912477493286,-0.24065349996089935,1.3090782165527344,-0.19324839115142822,-0.16926568746566772,0.005862712860107422
0.44903242588043213,-0.2923618257045746,1.2669744491577148,-0.2214791178703308,-0.14989721775054932,0.03974069654941559
0.26537683606147766,-0.28569528460502625,1.177049160003662,-0.2513154149055481,-0.1491173505783081,0.09234829246997833
-0.021588008850812912,-0.18348941206932068,0.9738689064979553,-0.29718518257141113,-0.16853493452072144,0.11677367985248566
-0.28941866755485535,-0.013063294813036919,0.7263732552528381,-0.32838934659957886,-0.19280391931533813,0.09809595346450806
-0.446448415517807,0.1645718812942505,0.5224713683128357,-0.30927491188049316,-0.20952880382537842,0.04471464455127716
-0.4306246340274811,0.2811282277107239,0.3750363886356354,-0.26553159952163696,-0.22657060623168945,-0.016678333282470703
-0.30502617359161377,0.3209342956542969,0.2607075273990631,-0.22426581382751465,-0.2416287660598755,-0.06378518044948578
-0.11791875213384628,0.29796087741851807,0.1410652995109558,-0.20500731468200684,-0.24929088354110718,-0.07787728309631348
0.09227264672517776,0.1886359304189682,0.04523191601037979,-0.19184750318527222,-0.243136465549469,-0.07025884091854095
0.25112518668174744,0.02210882119834423,-0.012951232492923737,-0.1642775535583496,-0.23338526487350464,-0.038301438093185425
0.36034446954727173,-0.12282436341047287,-0.029691457748413086,-0.15420228242874146,-0.2122400999069214,-0.01054583489894867
0.4576548933982849,-0.21232572197914124,-0.03597685322165489,-0.15282756090164185,-0.19187593460083008,-0.005035862326622009
0.49685928225517273,-0.25843217968940735,-0.0770200863480568,-0.16216331720352173,-0.1897742748260498,0.0019468069076538086
0.5102294087409973,-0.27732929587364197,-0.1685972809791565,-0.17141401767730713,-0.19645589590072632,0.011972367763519287
0.5233942270278931,-0.3043939471244812,-0.2922598421573639,-0.17144858837127686,-0.20905262231826782,0.006688520312309265
0.5396091938018799,-0.33451592922210693,-0.4073276221752167,-0.15760129690170288,-0.1942623257637024,0.0016775280237197876
0.5745332837104797,-0.36052536964416504,-0.47733110189437866,-0.13952326774597168,-0.1629740595817566,-0.0069420188665390015
0.6189238429069519,-0.36900579929351807,-0.491559773683548,-0.11105918884277344,-0.12218672037124634,-0.02101600170135498
0.6797729134559631,-0.3766503632068634,-0.4603966474533081,-0.08456790447235107,-0.09077340364456177,-0.03228616714477539
0.7588295936584473,-0.406084805727005,-0.4139678180217743,-0.05617612600326538,-0.0615193247795105,-0.04422265291213989
0.8648726940155029,-0.4599282145500183,-0.35280945897102356,-0.0314936637878418,-0.05615341663360596,-0.05180303752422333
0.9909024834632874,-0.5346952676773071,-0.31908997893333435,-0.015761733055114746,-0.04492950439453125,-0.0549839586019516
1.0977612733840942,-0.6047892570495605,-0.25609976053237915,0.0037493109703063965,-0.04705721139907837,-0.04683578014373779
1.1868631839752197,-0.6446073651313782,-0.18245311081409454,0.03114837408065796,-0.02838844060897827,-0.03981742262840271
1.2557575702667236,-0.7272170186042786,-0.13640712201595306,0.048804402351379395,-0.05197930335998535,-0.034397467970848083
1.2651278972625732,-0.7955830097198486,-0.142560213804245,0.04631626605987549,-0.049368202686309814,-0.018655598163604736
1.2152953147888184,-0.8026199340820312,-0.14259763062000275,0.0300523042678833,-0.02501094341278076,-0.013967752456665039
1.1504756212234497,-0.7659578919410706,-0.08076103031635284,0.038048624992370605,0.008853763341903687,-0.02023470401763916
1.1109254360198975,-0.7031129002571106,0.03198608383536339,0.05306077003479004,0.0403117835521698,-0.036204710602760315
1.1203852891921997,-0.7068462371826172,0.13005712628364563,0.06421458721160889,0.03482082486152649,-0.05812416970729828
1.1288198232650757,-0.7233328223228455,0.22407090663909912,0.06027418375015259,0.03241792321205139,-0.07856486737728119
1.1590250730514526,-0.7639574408531189,0.3056061565876007,0.05086332559585571,0.04818505048751831,-0.09514735639095306
1.2281944751739502,-0.8268032073974609,0.39622244238853455,0.039586544036865234,0.0649355947971344,-0.1213906854391098
1.326740026473999,-0.9019443988800049,0.5159426927566528,0.033873140811920166,0.09291157126426697,-0.15028469264507294
1.4578044414520264,-1.0263506174087524,0.5816896557807922,0.03949439525604248,0.0801762044429779,-0.17545855045318604
1.6602033376693726,-1.1767957210540771,0.5293540358543396,0.04021310806274414,0.022051751613616943,-0.20405934751033783
1.9386862516403198,-1.303047776222229,0.45650461316108704,0.06656235456466675,-0.026002347469329834,-0.2334224432706833
2.2165679931640625,-1.4011664390563965,0.409789502620697,0.11402815580368042,-0.04303795099258423,-0.2473774403333664
2.406355619430542,-1.4922938346862793,0.40402650833129883,0.14654773473739624,-0.03183293342590332,-0.23163066804409027
2.462993860244751,-1.5610358715057373,0.4272061884403229,0.15439856052398682,0.015926003456115723,-0.19279569387435913
2.474820613861084,-1.6220625638961792,0.4235440790653229,0.14446383714675903,0.04172545671463013,-0.1700645089149475
2.4647464752197266,-1.6645773649215698,0.38370275497436523,0.12265181541442871,0.031920433044433594,-0.16488176584243774
2.3534958362579346,-1.6295260190963745,0.386794775724411,0.11772966384887695,0.037269771099090576,-0.14661484956741333
2.116602897644043,-1.5289406776428223,0.40503957867622375,0.0972406268119812,0.03549748659133911,-0.11867420375347137
1.7480448484420776,-1.438503384590149,0.3684763014316559,0.043590009212493896,0.04817754030227661,-0.08504779636859894
1.311631202697754,-1.3275346755981445,0.30803605914115906,-0.00808173418045044,0.03595846891403198,-0.08192580938339233
0.8517503142356873,-1.146928310394287,0.25089171528816223,-0.03930085897445679,0.022717714309692383,-0.10880684852600098
0.4841344356536865,-0.8552833199501038,0.21324223279953003,-0.042906761169433594,-0.00232088565826416,-0.17147542536258698
0.2976348400115967,-0.5827298164367676,0.18004779517650604,-0.03214937448501587,-0.0333942174911499,-0.24906468391418457
0.31794360280036926,-0.35854578018188477,0.1538865566253662,-0.036328136920928955,-0.019910752773284912,-0.31705528497695923
0.5497162342071533,-0.3038058280944824,0.15691450238227844,-0.0382656455039978,-0.00048786401748657227,-0.3703702688217163
0.8750461935997009,-0.41304242610931396,0.2156015783548355,-0.025719285011291504,0.017448723316192627,-0.3929678201675415
1.1890175342559814,-0.6040140986442566,0.24609830975532532,-0.03427994251251221,0.030253171920776367,-0.3826647996902466
1.4749321937561035,-0.7667346596717834,0.22990749776363373,-0.05652511119842529,0.00858771800994873,-0.3730338215827942
1.7159677743911743,-0.7873769998550415,0.20979277789592743,-0.061055779457092285,-0.003187894821166992,-0.3650115728378296
1.8891839981079102,-0.6373715996742249,0.15429668128490448,-0.06808394193649292,-0.02207660675048828,-0.3473159074783325
1.8881689310073853,-0.47301942110061646,0.14432388544082642,-0.058319807052612305,-0.017440736293792725,-0.28150689601898193
1.7725672721862793,-0.3782631456851959,0.16094820201396942,-0.03636622428894043,-0.016882121562957764,-0.19869738817214966
1.6890840530395508,-0.4322659373283386,0.1458999365568161,-0.023285210132598877,-0.04259520769119263,-0.15275847911834717
1.7396172285079956,-0.5987567901611328,0.10118120163679123,-0.029208898544311523,-0.057607412338256836,-0.15114425122737885
1.8633971214294434,-0.7749794721603394,0.09792149811983109,-0.02147543430328369,-0.036559104919433594,-0.16227024793624878
1.9794222116470337,-0.8871723413467407,0.1291487216949463,-0.009113132953643799,-0.02358192205429077,-0.16207270324230194
2.018080949783325,-0.8857793211936951,0.13139662146568298,-0.01157379150390625,-0.022738754749298096,-0.1454523205757141
1.9937269687652588,-0.836998701095581,0.08159065246582031,-0.03694963455200195,-0.02122598886489868,-0.11351031064987183
1.939994215965271,-0.7990008592605591,0.008185209706425667,-0.0535961389541626,-0.020965397357940674,-0.07970701158046722
1.858260154724121,-0.8005446195602417,-0.035033755004405975,-0.04297792911529541,-0.0112113356590271,-0.049735963344573975
1.7573697566986084,-0.7913656830787659,-0.0740518718957901,-0.03187727928161621,-0.007428556680679321,-0.023431599140167236
1.6498183012008667,-0.7748402953147888,-0.0913291797041893,-0.011121988296508789,-0.011350542306900024,-0.005054756999015808
1.5301910638809204,-0.7496706247329712,-0.10464100539684296,0.008521318435668945,-0.00870603322982788,0.009828105568885803
1.3831521272659302,-0.7368467450141907,-0.12503641843795776,0.0163877010345459,-0.004333019256591797,0.023919790983200073
1.2173935174942017,-0.7684766054153442,-0.1712137758731842,0.00922083854675293,0.0164070725440979,0.040793925523757935
1.0175409317016602,-0.8651288151741028,-0.16548770666122437,0.020304560661315918,0.02142775058746338,0.05017499625682831
0.7930139303207397,-0.9709429144859314,-0.1197148934006691,0.03425955772399902,0.055579155683517456,0.04758554697036743
0.5235422253608704,-1.1427948474884033,-0.06528380513191223,0.02712118625640869,0.0779973566532135,0.026944831013679504
0.24085605144500732,-1.0771477222442627,0.010484319180250168,-0.02923041582107544,0.1679825484752655,-0.025168001651763916
0.03843815252184868,-0.8701238632202148,0.10506695508956909,-0.044387757778167725,0.17964902520179749,-0.10620388388633728
-0.07100875675678253,-0.5899048447608948,0.08128465712070465,-0.05037897825241089,0.11753630638122559,-0.16526395082473755
-0.1888374388217926,-0.23284561932086945,-0.08068639785051346,-0.04549121856689453,0.02481675148010254,-0.19236677885055542
-0.3123714327812195,0.10834777355194092,-0.33794161677360535,-0.03521990776062012,-0.0260276198387146,-0.17507994174957275
-0.315708190202713,0.2645343542098999,-0.4563032388687134,0.012447714805603027,-0.012749642133712769,-0.16446258127689362
-0.18214328587055206,0.19728653132915497,-0.36450088024139404,0.10897505283355713,0.03264373540878296,-0.15888738632202148
0.12200558930635452,0.005609361454844475,-0.15570592880249023,0.1562584638595581,0.07981929183006287,-0.17156265676021576
0.6222936511039734,-0.25825732946395874,-0.03338226303458214,0.14280474185943604,0.07058736681938171,-0.20673751831054688
1.0177143812179565,-0.4281351566314697,-0.09707775712013245,0.07494992017745972,0.03243371844291687,-0.19470013678073883
1.1071481704711914,-0.5022432804107666,-0.28182464838027954,0.020155370235443115,0.02624651789665222,-0.10403554886579514
0.9195706844329834,-0.4906047582626343,-0.468134343624115,0.011118531227111816,0.027859658002853394,-0.012180671095848083
0.5361253023147583,-0.33540043234825134,-0.5402472615242004,0.04186218976974487,0.06740406155586243,0.04766250401735306
0.152197927236557,-0.051948755979537964,-0.4542408883571625,0.09115409851074219,0.11140567064285278,0.056399568915367126
-0.06757169216871262,0.27024561166763306,-0.2716634273529053,0.1353272795677185,0.15636926889419556,0.0061083510518074036
-0.04010143131017685,0.47160765528678894,-0.08226364850997925,0.15068352222442627,0.16186171770095825,-0.049009084701538086
0.18021893501281738,0.5077143907546997,0.09409566223621368,0.16097605228424072,0.16015416383743286,-0.08000558614730835
0.47943997383117676,0.3901979327201843,0.2837373614311218,0.18753665685653687,0.1291911005973816,-0.07344584167003632
0.8491752743721008,0.18719306588172913,0.4335997402667999,0.18285119533538818,0.1116836667060852,-0.0519871860742569
1.245769739151001,-0.06875055283308029,0.5815841555595398,0.1811976432800293,0.08387446403503418,-0.03545600175857544
1.5384056568145752,-0.26066502928733826,0.7238550186157227,0.16481375694274902,0.0764874815940857,0.002941131591796875
1.7293059825897217,-0.35594797134399414,0.8411576151847839,0.12088280916213989,0.07849019765853882,0.056977882981300354
1.8537663221359253,-0.3920375108718872,0.9104045033454895,0.06836318969726562,0.08614340424537659,0.09801627695560455
1.8755252361297607,-0.4145330786705017,0.9496974349021912,0.030125021934509277,0.06061720848083496,0.14352720975875854
1.7659088373184204,-0.39712226390838623,0.9803478717803955,0.0089949369430542,0.04669412970542908,0.2013022005558014
1.5326027870178223,-0.38163095712661743,0.9980179071426392,-0.0022292137145996094,0.012776017189025879,0.25016868114471436
1.2508528232574463,-0.2867719829082489,0.9989546537399292,-0.022642850875854492,-0.008918166160583496,0.2777426242828369
0.9860565662384033,-0.20502187311649323,0.9716315865516663,-0.038810551166534424,-0.03867647051811218,0.27613383531570435
0.7640527486801147,-0.09479479491710663,0.9249751567840576,-0.056269049644470215,-0.05878043174743652,0.26179423928260803
0.6053355932235718,-0.027804171666502953,0.8635457158088684,-0.06675010919570923,-0.07899072766304016,0.23865081369876862
0.4910871386528015,-0.04025164246559143,0.7660669684410095,-0.07238340377807617,-0.10050436854362488,0.23348559439182281
0.4067351520061493,-0.10183625668287277,0.6609383821487427,-0.0829271674156189,-0.11609011888504028,0.2207016497850418
0.2899874746799469,-0.2104974389076233,0.6254456639289856,-0.04663819074630737,-0.14305078983306885,0.21838831901550293
0.15760266780853271,-0.25237902998924255,0.5869004726409912,-0.039209961891174316,-0.1473286747932434,0.2050192952156067
0.060242705047130585,-0.2834654450416565,0.5369658470153809,-0.05223238468170166,-0.15217363834381104,0.16208350658416748
-0.04044608399271965,-0.2463979721069336,0.5581379532814026,-0.03902560472488403,-0.14737683534622192,0.12757325172424316
-0.1121557429432869,-0.1914471536874771,0.6178845167160034,-0.03307682275772095,-0.13351500034332275,0.09218509495258331
-0.10426240414381027,-0.1972176879644394,0.6752514243125916,-0.03889191150665283,-0.1372760534286499,0.05417901277542114
-0.03384819254279137,-0.2620660066604614,0.7121884822845459,-0.06916689872741699,-0.14971500635147095,0.01070857048034668
0.035821136087179184,-0.38734474778175354,0.7738943099975586,-0.08040159940719604,-0.1600196361541748,-0.008901223540306091
0.10083384066820145,-0.5563790798187256,0.8487637042999268,-0.10134804248809814,-0.16538667678833008,-0.028445005416870117
0.18929649889469147,-0.751391589641571,0.8598117828369141,-0.15173381567001343,-0.16939502954483032,-0.06015489995479584
0.30952179431915283,-0.9176795482635498,0.7895508408546448,-0.22185087203979492,-0.18426096439361572,-0.09748378396034241
0.39123451709747314,-0.9826017022132874,0.6966864466667175,-0.26714253425598145,-0.19857650995254517,-0.1337440460920334
0.3367590308189392,-1.0284322500228882,0.5411640405654907,-0.3105980157852173,-0.21714860200881958,-0.14507995545864105
0.1971965730190277,-0.873911440372467,0.35929009318351746,-0.3933497667312622,-0.16215378046035767,-0.1538638025522232
0.18067675828933716,-0.6088961958885193,0.21871063113212585,-0.4288606643676758,-0.12474185228347778,-0.212837815284729
0.26565560698509216,-0.4221954941749573,0.08160030841827393,-0.3885647654533386,-0.17626839876174927,-0.26408886909484863
0.3017711341381073,-0.2898489236831665,-0.08558334410190582,-0.3347286581993103,-0.23450392484664917,-0.26164424419403076
0.3930107057094574,-0.12942397594451904,-0.3035276532173157,-0.31608647108078003,-0.23276495933532715,-0.25631868839263916
0.5779268145561218,0.05431169643998146,-0.46628308296203613,-0.2814832329750061,-0.20139586925506592,-0.29499590396881104
0.6299019455909729,0.3919960856437683,-0.48686885833740234,-0.22925305366516113,-0.1646985411643982,-0.29190170764923096
