rotation_x,rotation_y,rotation_z,acceleration_x,acceleration_y,acceleration_z
-0.3849107623100281,-0.044582586735486984,-0.31001296639442444,-0.004359990358352661,-0.002630889415740967,0.1227598786354065
-0.46668222546577454,-0.022128881886601448,-0.22889821231365204,-0.033114850521087646,-0.019312024116516113,0.11712759733200073
-0.4537160098552704,-0.003405822440981865,-0.2736853361129761,-0.07590895891189575,-0.010971218347549438,0.06886345148086548
-0.39272528886795044,-0.060258664190769196,-0.38547855615615845,-0.09447507560253143,-0.016547590494155884,0.03577202558517456
-0.3041415214538574,-0.08511876314878464,-0.4630793035030365,-0.08354286849498749,-0.03870046138763428,0.02983182668685913
-0.250095397233963,-0.07722271233797073,-0.5440383553504944,-0.06364783644676208,-0.05387654900550842,0.02329099178314209
-0.12512630224227905,-0.06134282052516937,-0.5083693265914917,-0.036007702350616455,-0.05604565143585205,-0.006158232688903809
-0.07034949213266373,-0.14563044905662537,-0.4859420955181122,-0.05415421724319458,-0.04355341196060181,0.011519193649291992
-0.07544660568237305,-0.1474536806344986,-0.5569490790367126,-0.11283846199512482,-0.04458698630332947,0.043764710426330566
-0.07884746789932251,-0.09206593781709671,-0.6967595815658569,-0.09632585942745209,-0.0482560396194458,0.03785830736160278
-0.09875158965587616,0.003769309027120471,-0.691033124923706,-0.043977051973342896,-0.07779577374458313,0.02443397045135498
-0.1760280579328537,0.05794268101453781,-0.6591498851776123,-0.02888055145740509,-0.08305305242538452,0.024341881275177002
-0.306609570980072,0.19351546466350555,-0.5005813241004944,-0.00037960708141326904,-0.09900158643722534,0.051455676555633545
-0.6510298252105713,0.5150209665298462,-0.304186075925827,0.006042361259460449,0.0372864305973053,0.06745874881744385
-1.4124194383621216,0.49825572967529297,-0.3243158161640167,-0.07515308260917664,0.10836878418922424,-0.08167034387588501
-1.6538338661193848,0.5094965696334839,-0.5876621007919312,-0.1955762505531311,0.10939240455627441,-0.40290600061416626
-0.9454889297485352,0.39397892355918884,-1.0479646921157837,-0.15620994567871094,0.1518700122833252,-0.7166330814361572
0.19669681787490845,0.0923219695687294,-1.496988296508789,-0.02001638524234295,0.13306793570518494,-0.7321977615356445
1.0012569427490234,-0.09223973006010056,-1.5564919710159302,0.11418431997299194,0.08944001793861389,-0.3266121745109558
1.0935778617858887,-0.07613963633775711,-1.389195442199707,0.16335821151733398,0.032127559185028076,0.09296560287475586
0.6548947095870972,-0.14864005148410797,-0.984500527381897,0.21140970289707184,0.003606051206588745,0.3345273733139038
-0.17294380068778992,-0.34987425804138184,-0.449079304933548,0.2022687792778015,-0.015491724014282227,0.42964643239974976
-0.8770616054534912,-0.26168012619018555,-0.0824451744556427,0.11766736209392548,0.006197243928909302,0.31471216678619385
-0.8801252245903015,-0.056065745651721954,0.1088140532374382,0.02189256250858307,-0.0007917284965515137,0.041130244731903076
-0.5791539549827576,-0.04249429702758789,0.045830510556697845,-0.06772635877132416,0.007972270250320435,-0.08770519495010376
-0.41301989555358887,-0.12015107274055481,-0.03064573183655739,-0.05596323311328888,0.0029961764812469482,-0.08631390333175659
-0.2833073139190674,-0.3289099335670471,-0.044636331498622894,0.0006401240825653076,-0.024224817752838135,-0.11708903312683105
-0.06897900253534317,-0.44910699129104614,-0.03942052647471428,0.017719462513923645,-0.019236981868743896,-0.07236361503601074
0.04981131851673126,-0.4211346209049225,-0.013371478766202927,0.05476507544517517,-0.03282669186592102,0.05196189880371094
0.050106391310691833,-0.4233575463294983,0.017407473176717758,0.06687046587467194,-0.028081417083740234,0.13021022081375122
0.011319270357489586,-0.4181506633758545,0.1056588813662529,0.09741997718811035,-0.03997093439102173,0.14309340715408325
0.004176801536232233,-0.3778456747531891,0.15354523062705994,0.059662092477083206,-0.027291148900985718,0.14272749423980713
-0.05802415311336517,-0.33186525106430054,0.15288017690181732,0.056516483426094055,-0.02169176936149597,0.07737284898757935
0.04402845352888107,-0.4733891785144806,0.04026281461119652,0.02863672375679016,-0.021231651306152344,-0.03798168897628784
0.12625496089458466,-0.38735225796699524,-0.10748184472322464,0.04262515902519226,-0.028580427169799805,-0.009744703769683838
0.21042917668819427,-0.3626081347465515,-0.14556536078453064,0.12197492271661758,-0.05209812521934509,-0.0669940710067749
0.27319324016571045,-0.41571077704429626,-0.0754052922129631,0.18216726183891296,-0.07648628950119019,-0.09392601251602173
0.3334121108055115,-0.4262501299381256,0.013061056844890118,0.18026039004325867,-0.09492066502571106,-0.12462764978408813
0.5006470680236816,-0.34333598613739014,0.0220389012247324,0.14453165233135223,-0.07161974906921387,-0.18274497985839844
0.6514174342155457,-0.3996344804763794,0.04417738318443298,0.1616317629814148,-0.06644609570503235,-0.18950653076171875
0.6687074303627014,-0.5441387295722961,0.07884414494037628,0.159881591796875,-0.02998688817024231,-0.1713891625404358
0.7072876691818237,-0.6461102366447449,0.12194450199604034,0.1469630002975464,-0.005636423826217651,-0.09361767768859863
0.6713203191757202,-0.6554656028747559,0.196016326546669,0.1107313334941864,-0.06439226865768433,0.04837077856063843
0.500636637210846,-0.30501070618629456,0.2588519752025604,0.005061641335487366,-0.08720844984054565,0.10501736402511597
0.1636999249458313,0.12355896085500717,0.30825135111808777,-0.09745992720127106,-0.03172004222869873,0.013806343078613281
-0.4474436044692993,0.2576756477355957,0.2737118601799011,-0.02762778103351593,0.05209362506866455,-0.2920610308647156
-0.11065539717674255,-0.22723452746868134,0.14324405789375305,0.018193930387496948,0.10673788189888,-0.7310333251953125
0.9490676522254944,-0.48518267273902893,-0.16729429364204407,-0.047196850180625916,0.16711005568504333,-0.6109280586242676
1.5318785905838013,-0.26149997115135193,-0.40556707978248596,0.006364122033119202,0.1644117534160614,-0.11736679077148438
1.4849650859832764,-0.09026184678077698,-0.34995031356811523,0.1486712098121643,0.13670724630355835,0.24729067087173462
0.9198837280273438,0.1816975623369217,0.053092580288648605,0.209637850522995,0.04104745388031006,0.4522668719291687
0.13766172528266907,0.3714222311973572,0.5839141607284546,0.2476142793893814,0.02887105941772461,0.40019917488098145
-0.2639717757701874,0.5227494835853577,0.9704533219337463,0.2276722639799118,0.10811382532119751,0.11225098371505737
-0.21638123691082,0.6633135080337524,1.2532259225845337,0.1865088790655136,0.15655165910720825,-0.12883305549621582
0.07501152902841568,0.6267303824424744,1.2948188781738281,0.12483157217502594,0.2416580319404602,-0.24573969841003418
0.3395158648490906,0.4789215326309204,1.181756854057312,0.07416549324989319,0.2507220506668091,-0.1943659782409668
0.4604673385620117,0.425923228263855,1.0930324792861938,0.08042001724243164,0.20618140697479248,-0.034574270248413086
0.4427483081817627,0.492816686630249,1.1102490425109863,0.12478812038898468,0.14566493034362793,0.09063482284545898
0.3139357566833496,0.6779828667640686,1.1975613832473755,0.16675877571105957,0.11747634410858154,0.10258746147155762
0.2745119035243988,0.698074460029602,1.3594639301300049,0.19983544945716858,0.1059180498123169,0.02357041835784912
0.33435067534446716,0.7171739339828491,1.4875997304916382,0.1800180971622467,0.11927658319473267,-0.011794805526733398
0.353071004152298,0.7846987247467041,1.5469497442245483,0.1225128173828125,0.10079389810562134,0.019222557544708252
0.3043085038661957,0.6875437498092651,1.5340807437896729,0.09413906931877136,0.0974431037902832,0.014931082725524902
0.2510393559932709,0.6950477957725525,1.523859977722168,0.10175879299640656,0.07875758409500122,-0.01166379451751709
0.33171093463897705,0.7512671947479248,1.5542088747024536,0.11019301414489746,0.06175243854522705,-0.04470956325531006
0.32391035556793213,0.8428496718406677,1.5529533624649048,0.08107884228229523,0.059473395347595215,-0.03544282913208008
0.26530757546424866,0.9216751456260681,1.4893461465835571,0.035091012716293335,0.06676393747329712,-0.047246456146240234
0.2658877968788147,0.9187985062599182,1.445422649383545,0.05703058838844299,0.0671204924583435,-0.10435974597930908
0.31690624356269836,0.9453853368759155,1.4247567653656006,0.06387662887573242,0.08111673593521118,-0.13693338632583618
0.37546250224113464,1.058621883392334,1.4075021743774414,0.055089861154556274,0.09574824571609497,-0.11405056715011597
0.3904702663421631,1.2055600881576538,1.3257675170898438,0.02957172691822052,0.10341280698776245,-0.09793972969055176
0.39448606967926025,1.205971360206604,1.2803959846496582,0.02610832452774048,0.054465651512145996,-0.09504270553588867
0.40465742349624634,1.2236934900283813,1.2506388425827026,0.0242626816034317,0.017524778842926025,-0.028068482875823975
0.12175149470567703,1.4137823581695557,1.3661009073257446,0.05727532505989075,0.04495561122894287,0.08688914775848389
-0.7649000883102417,1.754743218421936,1.6334515810012817,0.1961762011051178,0.09863731265068054,0.05235898494720459
-1.3344379663467407,1.6991630792617798,2.0884392261505127,0.3263814151287079,0.15867656469345093,-0.4552065134048462
-0.6888914108276367,1.1033939123153687,2.269577980041504,0.18596427142620087,0.23491230607032776,-0.777155339717865
0.27430808544158936,0.7424286007881165,1.864792823791504,-0.015642493963241577,0.29602837562561035,-0.5605692863464355
0.6886071562767029,1.0757008790969849,1.364388346672058,-0.01732461154460907,0.2777312695980072,-0.13501042127609253
0.6113797426223755,1.2565186023712158,1.327406883239746,0.17113004624843597,0.19553792476654053,0.0491633415222168
0.13892634212970734,1.2244973182678223,1.6676249504089355,0.2674919366836548,0.16797268390655518,0.11050617694854736
-0.19989794492721558,1.158930778503418,1.9727199077606201,0.2613244652748108,0.20218327641487122,-0.004932224750518799
-0.11732015758752823,1.2402042150497437,2.081068754196167,0.13373857736587524,0.22488108277320862,-0.11226987838745117
0.13225771486759186,1.2696999311447144,2.0033321380615234,0.07091176509857178,0.23202809691429138,-0.1410994529724121
0.27081650495529175,0.9649209976196289,1.9296067953109741,0.08687488734722137,0.22227966785430908,-0.07905495166778564
0.2706851661205292,0.8808803558349609,2.007807731628418,0.12314590811729431,0.17287755012512207,0.038185060024261475
0.27971750497817993,0.8615373969078064,2.1745078563690186,0.1470988392829895,0.15184444189071655,0.05683004856109619
0.300525963306427,0.8083199858665466,2.2612552642822266,0.10507916659116745,0.1616193652153015,0.06528043746948242
0.23398138582706451,0.8474869728088379,2.214731216430664,0.036085568368434906,0.1698504090309143,0.08722192049026489
0.19748391211032867,0.7734574675559998,2.0812370777130127,0.014665186405181885,0.17161035537719727,0.057544827461242676
0.05282272771000862,0.6269476413726807,1.9912889003753662,0.023210585117340088,0.14420291781425476,0.06030017137527466
-0.12952713668346405,0.504765510559082,1.9134702682495117,0.05249445140361786,0.10694640874862671,-0.02032005786895752
-0.024357665330171585,0.45378628373146057,1.8713905811309814,0.07398493587970734,0.05998635292053223,-0.1621885895729065
0.20944000780582428,0.43267154693603516,1.7448725700378418,0.024342209100723267,0.04534986615180969,-0.20492935180664062
0.3627401292324066,0.34874382615089417,1.519524097442627,-0.025732949376106262,0.031016498804092407,-0.16715902090072632
0.3843640983104706,0.30704230070114136,1.261743187904358,-0.05078008770942688,0.00547298789024353,-0.10426199436187744
0.4170466959476471,0.3128213584423065,1.0972861051559448,-0.01964050531387329,-0.03986668586730957,-0.1004137396812439
0.40268322825431824,0.27885836362838745,1.0317460298538208,0.0077810138463974,-0.05339959263801575,-0.08249539136886597
0.3427302837371826,0.20798543095588684,0.9378151297569275,-0.02111653983592987,-0.035838425159454346,-0.09243667125701904
0.36116287112236023,0.07103810459375381,0.7863472104072571,-0.01898840069770813,-0.023365288972854614,-0.10941064357757568
0.44293856620788574,-0.07566055655479431,0.7979105710983276,0.05168621242046356,-0.05135512351989746,-0.10647010803222656
0.5238688588142395,-0.10790617018938065,0.8026615381240845,-0.015821024775505066,-0.1004924476146698,0.0063509345054626465
0.3897753953933716,0.03289346024394035,0.7478347420692444,-0.11614668369293213,-0.19296491146087646,0.14668607711791992
0.01694701611995697,0.2705402672290802,0.6912391185760498,-0.13662689924240112,-0.194492369890213,0.16455435752868652
-0.5269490480422974,0.24499176442623138,0.7427390217781067,-0.044501468539237976,-0.15624883770942688,-0.08918416500091553
-0.31342175602912903,0.1324729174375534,0.7601398825645447,0.0070807188749313354,-0.05747872591018677,-0.46127837896347046
0.44087961316108704,0.2307986170053482,0.5233903527259827,-0.09215405583381653,0.010917216539382935,-0.4767343997955322
1.0348466634750366,0.2944757342338562,0.17837199568748474,-0.09871844947338104,0.04364180564880371,-0.26589322090148926
1.1399924755096436,0.19894877076148987,0.10941819846630096,-0.009220167994499207,0.004328042268753052,0.004467308521270752
0.9466553926467896,0.16647574305534363,0.24139054119586945,-0.004103019833564758,-0.03285303711891174,0.20582568645477295
0.4962536692619324,0.33016201853752136,0.4675193428993225,-0.04702664911746979,-0.061221688985824585,0.3003440499305725
0.06112458184361458,0.30431967973709106,0.6517480611801147,-0.012276455760002136,-0.06307327747344971,0.04619777202606201
0.1413339525461197,0.018549839034676552,0.8371827006340027,-0.0220678448677063,-0.05294075608253479,-0.2206515669822693
0.4069216251373291,-0.10295167565345764,0.8435414433479309,-0.07976092398166656,0.003352820873260498,-0.24155175685882568
0.7528561353683472,-0.134895920753479,0.7082146406173706,-0.09478317201137543,0.03219199180603027,-0.22565054893493652
0.9960808753967285,-0.21102352440357208,0.6330040693283081,-0.01679399609565735,0.0504336953163147,-0.09156596660614014
0.908240795135498,-0.3202109634876251,0.6804115176200867,0.03694945573806763,0.06296545267105103,0.059028446674346924
0.8114065527915955,-0.36488571763038635,0.7319092750549316,0.013850867748260498,0.092368483543396,0.1318623423576355
0.8217180371284485,-0.27903589606285095,0.683935284614563,0.0013018548488616943,0.11996138095855713,0.10156053304672241
0.8631634712219238,-0.2836155891418457,0.6568337082862854,0.046238720417022705,0.11771690845489502,0.07197988033294678
0.8538302779197693,-0.2154737114906311,0.6171607971191406,0.06454771757125854,0.14328843355178833,0.0802544355392456
0.7548548579216003,-0.12840527296066284,0.5451926589012146,0.04869583249092102,0.1564023494720459,0.11116719245910645
0.48294663429260254,-0.011915869079530239,0.47612306475639343,0.05714893341064453,0.14547544717788696,0.13011878728866577
0.2892042100429535,-0.0033515836112201214,0.4490153193473816,0.08212199807167053,0.12977945804595947,0.034185588359832764
0.29653477668762207,-0.08065064996480942,0.46543198823928833,0.11602044105529785,0.12958621978759766,-0.06540274620056152
0.3966432809829712,-0.10984430462121964,0.3608754873275757,0.08417806029319763,0.14620989561080933,-0.0964016318321228
0.5061672329902649,0.03028242290019989,0.24465438723564148,0.09451684355735779,0.13097834587097168,-0.052443861961364746
0.5408341288566589,0.02582959271967411,0.1672285497188568,0.1288735270500183,0.11482369899749756,-0.0002617835998535156
0.4971652030944824,0.12351535260677338,0.1378786861896515,0.1344738006591797,0.11716639995574951,0.09529531002044678
0.3562571108341217,0.2506398558616638,0.13672658801078796,0.15150150656700134,0.13630998134613037,0.12961655855178833
0.21546874940395355,0.2726309299468994,0.12856236100196838,0.12362924218177795,0.14677107334136963,0.10160797834396362
0.10025312751531601,0.3591797947883606,0.03575582057237625,0.08082211017608643,0.14940452575683594,0.11328959465026855
-0.057259414345026016,0.4656319320201874,0.02982102707028389,0.11620861291885376,0.1250724196434021,0.08051013946533203
-0.2011440396308899,0.5295758247375488,0.07071138918399811,0.12135785818099976,0.11268270015716553,0.027459383010864258
-0.27196264266967773,0.683281660079956,0.002882622880861163,0.07624316215515137,0.08967691659927368,0.0011652112007141113
-0.28829261660575867,0.8826661705970764,-0.01940748281776905,0.08820414543151855,0.11201244592666626,0.020156383514404297
-0.6366220712661743,1.0038261413574219,0.014955704100430012,0.10838183760643005,0.1169290542602539,0.06236213445663452
-1.2613314390182495,0.9893590211868286,0.11967986822128296,0.16160836815834045,0.16044044494628906,-0.028640031814575195
-1.521017074584961,1.0024967193603516,0.13272841274738312,0.12003690004348755,0.16450583934783936,-0.2643147110939026
-1.1691886186599731,0.8511438965797424,0.08452083170413971,0.14301377534866333,0.12163859605789185,-0.47527003288269043
-0.6588032245635986,0.6473409533500671,0.05217669904232025,0.1914214789867401,0.08777773380279541,-0.4773526191711426
-0.20209930837154388,0.8062063455581665,0.1657865196466446,0.1992623209953308,0.02074342966079712,-0.27801287174224854
-0.07005427777767181,0.8754172921180725,0.37192314863204956,0.19946245849132538,0.012604296207427979,-0.06484442949295044
-0.39922961592674255,0.8728849291801453,0.650731086730957,0.17215678095817566,0.01709723472595215,0.08301293849945068
-0.8991764783859253,0.7743898630142212,1.0367876291275024,0.1815960705280304,0.015343546867370605,0.030452370643615723
-1.1667574644088745,0.522376298904419,1.2429341077804565,0.09291046857833862,0.052851587533950806,-0.12993979454040527
-0.9300047159194946,0.6726283431053162,1.1844420433044434,0.024663478136062622,0.053194403648376465,-0.31177234649658203
-0.3288395404815674,0.8723345398902893,1.1107121706008911,0.08429697155952454,0.03030574321746826,-0.4392737150192261
0.293528288602829,0.6535776257514954,1.1679071187973022,0.14422595500946045,0.01361173391342163,-0.37962037324905396
0.3720806837081909,0.5079222917556763,1.28224515914917,0.10799117386341095,0.012429863214492798,-0.06564348936080933
0.3004997670650482,0.5336823463439941,1.285781979560852,0.0899835079908371,0.035429030656814575,0.07869422435760498
0.30306476354599,0.5187782645225525,1.443028211593628,0.12531349062919617,0.007576167583465576,0.09910726547241211
0.3032061457633972,0.5954734683036804,1.5235042572021484,0.07298249006271362,0.03229847550392151,0.14209312200546265
0.26078683137893677,0.7378833293914795,1.5434415340423584,0.05706995725631714,0.0287017822265625,0.12002670764923096
0.23952840268611908,0.6285157203674316,1.5533360242843628,0.0387081652879715,0.03394410014152527,0.05910152196884155
0.11199143528938293,0.4353245496749878,1.5817419290542603,0.04388602077960968,0.03602629899978638,0.046114981174468994
-0.01119173876941204,0.3108285665512085,1.534515380859375,0.018450558185577393,0.04158884286880493,0.01581782102584839
-0.0107476357370615,0.307842880487442,1.4515777826309204,0.0006757229566574097,0.03975158929824829,-0.03647208213806152
0.08849707245826721,0.2725070118904114,1.3210183382034302,0.0011183619499206543,0.03250470757484436,-0.09556835889816284
0.26547080278396606,0.17093625664710999,1.1822806596755981,-0.013687700033187866,0.011936396360397339,-0.12496060132980347
0.43726542592048645,0.13946345448493958,0.9613158702850342,-0.040363848209381104,0.0018576383590698242,-0.09519261121749878
0.4602537155151367,0.13621775805950165,0.8208847641944885,0.0336022675037384,-0.03765442967414856,-0.03640085458755493
0.3445219397544861,0.1604737639427185,0.8268673419952393,0.08561678230762482,-0.0673205554485321,-0.01194840669631958
0.3623322546482086,0.10374187678098679,0.8087362051010132,0.0702427327632904,-0.05439603328704834,-0.09355401992797852
0.6024070978164673,0.11862434446811676,0.6814724206924438,0.004162982106208801,-0.08662223815917969,-0.08009952306747437
0.5479525327682495,0.23553279042243958,0.7483636736869812,-0.03368556499481201,-0.17097482085227966,0.13326096534729004
-0.08124931901693344,0.5712587833404541,0.7212660908699036,-0.11834394931793213,-0.0951799750328064,0.14522379636764526
-0.7026928663253784,0.6460233926773071,0.7520158290863037,-0.01038224995136261,-0.04005539417266846,-0.354982852935791
-0.09837298840284348,0.25234487652778625,0.8070760369300842,0.038972318172454834,0.06804981827735901,-0.8271687030792236
1.0742496252059937,0.02365749515593052,0.4918338358402252,-0.10083030164241791,0.14960640668869019,-0.69866943359375
1.498133659362793,-0.0472530871629715,0.05495177581906319,-0.07065698504447937,0.16522705554962158,-0.19516289234161377
1.3771188259124756,0.10391628742218018,-0.002406175946816802,0.046452268958091736,0.0897136926651001,0.17979490756988525
0.9092645645141602,0.3413611054420471,0.2930559515953064,0.14008064568042755,0.004391014575958252,0.3758774995803833
0.1882583498954773,0.5208325982093811,0.8335062265396118,0.2263207733631134,-0.04513862729072571,0.3936200737953186
-0.44173508882522583,0.6010050773620605,1.3183923959732056,0.224708691239357,0.01385951042175293,0.18936395645141602
-0.6547790765762329,0.7626425623893738,1.5903077125549316,0.12376455962657928,0.08348968625068665,-0.07619893550872803
-0.42560875415802,0.5686370134353638,1.5388613939285278,-0.011963024735450745,0.1614251434803009,-0.32838869094848633
0.12779201567173004,0.40650588274002075,1.1238774061203003,-0.070842444896698,0.23487195372581482,-0.39173442125320435
0.6978351473808289,0.3228481411933899,0.6050350069999695,-0.04798939824104309,0.20137429237365723,-0.2544671297073364
0.9418820142745972,0.3066510260105133,0.4720514714717865,0.07018166780471802,0.11399629712104797,0.030193567276000977
0.7872628569602966,0.3357846736907959,0.5536260008811951,0.17276662588119507,0.05996209383010864,0.22207534313201904
0.5360544323921204,0.4843273460865021,0.802994966506958,0.23248019814491272,0.006178021430969238,0.2606004476547241
0.4217083156108856,0.6088405251502991,1.0378364324569702,0.20483992993831635,0.01945173740386963,0.2065739631652832
0.37308019399642944,0.6330318450927734,1.0718331336975098,0.12951168417930603,0.05382305383682251,0.15204399824142456
0.3330264687538147,0.6428491473197937,1.0395264625549316,0.08220158517360687,0.05303281545639038,0.14642953872680664
0.23747296631336212,0.6520079970359802,1.053515076637268,0.08205138146877289,0.04500076174736023,0.09461098909378052
0.15959198772907257,0.5985355377197266,1.1597658395767212,0.14605194330215454,0.01843354105949402,0.01995629072189331
0.09839395433664322,0.6446758508682251,1.367545247077942,0.16172823309898376,-0.024815768003463745,-0.027592182159423828
0.12703588604927063,0.7555884718894958,1.465074896812439,0.1230771541595459,-0.021806836128234863,-0.06994467973709106
0.12166476994752884,0.7767477631568909,1.4735902547836304,0.07493752241134644,-0.0011715292930603027,-0.09458446502685547
0.13876473903656006,0.7105190753936768,1.4435230493545532,0.062338054180145264,0.020524531602859497,-0.13898223638534546
0.22735346853733063,0.6523047089576721,1.4137187004089355,0.08248794078826904,0.03756210207939148,-0.18263870477676392
0.32098188996315,0.6299945712089539,1.4319922924041748,0.07255932688713074,0.03616604208946228,-0.18034487962722778
0.4257514476776123,0.6934970617294312,1.3367979526519775,-0.0045098066329956055,0.06409230828285217,-0.13621395826339722
0.579874575138092,0.8331440687179565,1.0758377313613892,-0.056742340326309204,0.08331125974655151,-0.10606086254119873
0.8113186359405518,0.7779749631881714,0.9305830001831055,0.06513798236846924,0.012090325355529785,-0.1704789400100708
1.0505671501159668,0.6907660365104675,1.0408753156661987,0.11751864850521088,-0.042359232902526855,-0.06548243761062622
0.6371995210647583,0.8686872720718384,1.2322444915771484,0.06504504382610321,-0.033822059631347656,0.1429789662361145
-0.5820519924163818,0.97568279504776,1.660962700843811,0.05969478189945221,-0.037541717290878296,0.12258011102676392
-1.2739434242248535,0.7532539963722229,1.7223905324935913,0.10058054327964783,0.11401960253715515,-0.3715813159942627
-0.4165320098400116,0.6669203639030457,1.5081298351287842,0.0796143114566803,0.13717159628868103,-0.5911620855331421
1.0613758563995361,0.8414435982704163,1.0080653429031372,-0.03209301829338074,0.1674424707889557,-0.7285541296005249
1.4662107229232788,0.8231515884399414,0.6694669127464294,-0.03699105978012085,0.18438583612442017,-0.35191047191619873
0.9373769164085388,0.8363876938819885,0.6240191459655762,0.06317813694477081,0.1425231397151947,0.07183247804641724
0.20534224808216095,0.7863653898239136,0.8888823390007019,0.1936538815498352,0.07175266742706299,0.2141174077987671
-0.14097945392131805,0.7597105503082275,1.1014899015426636,0.25473254919052124,0.07965120673179626,0.10735845565795898
0.041677046567201614,0.8743552565574646,1.2033816576004028,0.21546433866024017,0.1067487895488739,-0.07210320234298706
0.5249113440513611,0.7761707901954651,1.2596232891082764,0.18242788314819336,0.10218086838722229,-0.19198274612426758
0.619098961353302,0.6469237208366394,1.3168482780456543,0.16418510675430298,0.11384856700897217,-0.07707887887954712
0.46180471777915955,0.7230296730995178,1.3489433526992798,0.14289991557598114,0.096743643283844,0.11466026306152344
0.40152034163475037,0.6859914064407349,1.3645102977752686,0.09420250356197357,0.10124993324279785,0.13790392875671387
0.3200518488883972,0.5932040214538574,1.3322545289993286,0.07471540570259094,0.10395818948745728,0.11378002166748047
0.14324234426021576,0.426827073097229,1.3028502464294434,0.06782503426074982,0.08553087711334229,0.14774203300476074
0.09261837601661682,0.29022762179374695,1.2039732933044434,0.0362481027841568,0.07816499471664429,0.11518287658691406
0.2285464107990265,0.2544304430484772,1.0907920598983765,0.03277966380119324,0.0645911693572998,0.038249075412750244
0.28256815671920776,0.32336297631263733,0.9947869777679443,0.03276318311691284,0.040853291749954224,0.06433653831481934
0.1951419562101364,0.2828095555305481,0.8760436773300171,0.018196165561676025,0.027317464351654053,0.11348819732666016
0.04664573445916176,0.16724073886871338,0.7816792130470276,-0.003407716751098633,0.01807767152786255,0.12115591764450073
-0.022410279139876366,0.050272658467292786,0.6888256072998047,0.00019477307796478271,-0.006961226463317871,0.06849551200866699
-0.024421367794275284,0.046385135501623154,0.5846726894378662,0.003366246819496155,-0.039714515209198,0.024921715259552002
0.050240885466337204,0.11221501976251602,0.4274398684501648,-0.022440388798713684,-0.06116250157356262,0.003106355667114258
0.03298421576619148,0.051373325288295746,0.32326769828796387,-0.03260064125061035,-0.07370069622993469,-0.0056462883949279785
-0.12384193390607834,-0.020177144557237625,0.30610427260398865,0.025826111435890198,-0.09348785877227783,0.008276104927062988
-0.13405176997184753,-0.09034120291471481,0.310574471950531,0.042082279920578,-0.10540860891342163,-0.060847461223602295
0.02460116147994995,-0.19870591163635254,0.25220194458961487,0.03773494064807892,-0.10386544466018677,-0.1539524793624878
0.2569969892501831,-0.23924456536769867,0.09045717120170593,-0.00928276777267456,-0.051606833934783936,-0.17327606678009033
0.30839967727661133,-0.09366112947463989,0.0024755029007792473,-0.06284314393997192,-0.08613741397857666,-0.015286803245544434
-0.06628815084695816,0.06860683113336563,-0.003978526219725609,-0.08229172229766846,-0.10152566432952881,0.17036032676696777
-0.7643886804580688,0.08065427094697952,0.1949901133775711,-0.017705857753753662,-0.10380423069000244,0.15814173221588135
-1.0162750482559204,-0.09622886776924133,0.2745131254196167,-0.012306630611419678,-0.07332968711853027,-0.11117362976074219
-0.5819692611694336,-0.2570364475250244,0.16141611337661743,-0.10174188017845154,-0.016093701124191284,-0.36994844675064087
-0.03624298796057701,-0.08231136947870255,-0.09961041063070297,-0.16664600372314453,0.04992741346359253,-0.3856448531150818
0.3916410207748413,-0.0807434543967247,-0.3349498212337494,-0.16807898879051208,0.06816571950912476,-0.2647128105163574
0.5282641649246216,-0.17750680446624756,-0.49606651067733765,-0.13590016961097717,0.06729239225387573,-0.03775334358215332
0.37605348229408264,-0.2536242604255676,-0.5962316393852234,-0.11295339465141296,0.049169063568115234,0.1823803186416626
0.03946101292967796,-0.12222182005643845,-0.4008328914642334,-0.0779913067817688,-0.02657008171081543,0.30177217721939087
-0.33597129583358765,0.12897004187107086,-0.19224190711975098,-0.08360755443572998,-0.05348452925682068,0.27857351303100586
-0.6186140179634094,0.07087188214063644,-0.10242471843957901,-0.11384451389312744,-0.0055045485496521,0.15618187189102173
-0.7790142297744751,-0.00842050090432167,-0.16417738795280457,-0.14609482884407043,0.0471842885017395,0.007813811302185059
-0.3785167932510376,-0.25429993867874146,-0.27349206805229187,-0.1603812575340271,0.059789180755615234,-0.19750994443893433
0.18630027770996094,-0.21773815155029297,-0.3487626016139984,-0.10007870197296143,0.0749056339263916,-0.2590196132659912
0.47196638584136963,-0.05290258675813675,-0.3786880075931549,-0.07429778575897217,0.05556944012641907,-0.11336177587509155
0.3192228674888611,-0.13368231058120728,-0.367570161819458,-0.055678874254226685,0.05660128593444824,0.05063009262084961
0.11298125982284546,-0.21967633068561554,-0.33030107617378235,-0.04339325428009033,0.05008429288864136,0.14009106159210205
0.06513559818267822,-0.18468913435935974,-0.23338590562343597,-0.013387978076934814,0.03104230761528015,0.1645311713218689
0.0981227234005928,-0.16602781414985657,-0.14078080654144287,0.004122912883758545,0.027141481637954712,0.1459488868713379
0.11217067390680313,-0.13610178232192993,-0.12229496240615845,-0.0396789014339447,0.027933061122894287,0.1562005877494812
-0.05466623976826668,-0.10257236659526825,-0.07744800299406052,-0.04630380868911743,0.014818787574768066,0.20164108276367188
-0.2626965641975403,-0.08305367827415466,-0.0351707898080349,-0.0441911518573761,-0.012138903141021729,0.21450269222259521
-0.3755645751953125,-0.07819987088441849,-0.019320761784911156,-0.041553765535354614,-0.013731062412261963,0.14962780475616455
-0.3356487452983856,-0.0631406158208847,-0.005476800724864006,-0.06050708889961243,-0.028390735387802124,0.08068889379501343
-0.17371207475662231,-0.029679158702492714,-0.026183288544416428,-0.04605022072792053,-0.04725942015647888,-0.0028424859046936035
-0.05145923048257828,0.052338674664497375,-0.13764208555221558,-0.10787072777748108,-0.044007062911987305,-0.009912490844726562
-0.010471640154719353,0.028584303334355354,-0.3143022358417511,-0.14744746685028076,-0.03656119108200073,0.00028502941131591797
0.02527567744255066,0.046551305800676346,-0.4083757698535919,-0.10439389944076538,-0.022598177194595337,-0.016028404235839844
0.09032455086708069,0.11143963783979416,-0.48339003324508667,-0.07330220937728882,-0.03485304117202759,-0.032668471336364746
0.26414430141448975,0.10089398175477982,-0.6755161881446838,-0.10321898758411407,-0.00622481107711792,-0.06872826814651489
0.6238171458244324,0.2033138871192932,-0.7893511056900024,-0.11196112632751465,-0.04775211215019226,-0.08590203523635864
0.8977240920066833,0.5812777280807495,-0.7369213700294495,-0.08060279488563538,-0.13160544633865356,0.04064333438873291
0.2774808406829834,0.8647540807723999,-0.5030922293663025,-0.10687375068664551,-0.11282810568809509,0.24351239204406738
-1.338011384010315,0.5663959980010986,-0.07239294052124023,-0.03248482942581177,-0.12058407068252563,0.3555625081062317
-1.9582022428512573,0.3554976284503937,0.3227757513523102,0.10629504919052124,-0.059209465980529785,-0.08840590715408325
-1.2093298435211182,0.24423329532146454,0.4008125364780426,0.03582288324832916,-0.004097461700439453,-0.5789597034454346
-0.10005741566419601,0.29430726170539856,-0.013173811137676239,-0.14972881972789764,0.0668555200099945,-0.6835151314735413
0.6422901749610901,0.03431016206741333,-0.5632562637329102,-0.2374563366174698,0.14224383234977722,-0.5277840495109558
0.6828299164772034,-0.25547605752944946,-0.8348514437675476,-0.18399494886398315,0.1459498107433319,-0.19396919012069702
0.39159178733825684,-0.379951536655426,-0.8579956889152527,-0.07377305626869202,0.13238435983657837,0.07447493076324463
0.08425123244524002,-0.15753501653671265,-0.7255825400352478,0.013718143105506897,0.09973490238189697,0.19278866052627563
-0.039866115897893906,-0.16178791224956512,-0.6858245730400085,0.0015808641910552979,0.10530585050582886,0.16583383083343506
-0.03220735117793083,-0.31266680359840393,-0.7915599346160889,-0.07232403755187988,0.1306457221508026,0.10511404275894165
-0.019253194332122803,-0.29411715269088745,-0.8269984722137451,-0.08779358863830566,0.10976937413215637,0.143297016620636
-0.11838337033987045,-0.34464550018310547,-0.7460595965385437,-0.06154927611351013,0.08366838097572327,0.1748828887939453
-0.29365861415863037,-0.4696042835712433,-0.6709293723106384,-0.04193197190761566,0.07199448347091675,0.15566110610961914
-0.34928932785987854,-0.5392545461654663,-0.7638286352157593,-0.1236090213060379,0.07886755466461182,0.12875503301620483
-0.3212798237800598,-0.6025524735450745,-0.9632917046546936,-0.18797501921653748,0.09748190641403198,0.09112048149108887
-0.32061445713043213,-0.6668819785118103,-1.0920664072036743,-0.16227947175502777,0.08915382623672485,0.07908040285110474
-0.38468414545059204,-0.702502429485321,-1.1605989933013916,-0.10896426439285278,0.0716346800327301,0.0794098973274231
-0.4399206042289734,-0.7104326486587524,-1.225041151046753,-0.09806890785694122,0.060543179512023926,0.050057411193847656
-0.40875157713890076,-0.7694401144981384,-1.302556037902832,-0.07725471258163452,0.06349578499794006,0.0026299357414245605
-0.3753278851509094,-0.8257119655609131,-1.376033067703247,-0.03836961090564728,0.07955163717269897,-0.05296981334686279
-0.32979488372802734,-0.8746484518051147,-1.4594008922576904,-0.006744250655174255,0.0623592734336853,-0.07133984565734863
-0.2173316478729248,-0.8620555400848389,-1.5444027185440063,0.0066046565771102905,0.05800759792327881,-0.07919043302536011
-0.12988367676734924,-0.9062603116035461,-1.5427302122116089,0.05427214503288269,0.03871163725852966,-0.08356881141662598
-0.09388063102960587,-0.9652983546257019,-1.4763363599777222,0.10176125168800354,0.026118844747543335,-0.08493459224700928
-0.07655952870845795,-0.9329102635383606,-1.3621817827224731,0.12548306584358215,-0.004312634468078613,-0.08038675785064697
-0.08946948498487473,-0.9594189524650574,-1.2363160848617554,0.14242331683635712,-0.027882307767868042,-0.09823179244995117
-0.1289476603269577,-0.9676685929298401,-1.1225539445877075,0.16344641149044037,-0.023006707429885864,-0.12627434730529785
-0.06316998600959778,-0.9531185030937195,-1.0371010303497314,0.1749616116285324,-0.011205583810806274,-0.16362279653549194
-0.0545659065246582,-0.9827965497970581,-0.9332552552223206,0.18268486857414246,0.0018634796142578125,-0.16209107637405396
-0.09473735094070435,-1.0583986043930054,-0.8313748240470886,0.21008411049842834,-0.002251744270324707,-0.1637173891067505
-0.007655007764697075,-0.9303117394447327,-0.7767465710639954,0.16063761711120605,-0.05478036403656006,-0.1352391242980957
-0.1835537999868393,-0.4981769025325775,-0.6549433469772339,0.0919504463672638,-0.06155017018318176,-0.0745270848274231
-0.6563214659690857,-0.3627598285675049,-0.5580310225486755,0.05625668168067932,-0.056539684534072876,-0.03115856647491455
-0.8142958283424377,-0.4251084625720978,-0.551060676574707,0.039002418518066406,0.03928232192993164,-0.23860955238342285
-0.4287174940109253,-0.5023708343505859,-0.7187865376472473,-0.011485487222671509,0.07765999436378479,-0.4059271812438965
0.2131231278181076,-0.5476563572883606,-0.9835608601570129,-0.06292441487312317,0.15373721718788147,-0.4161074757575989
0.5839754939079285,-0.6426882743835449,-1.1632946729660034,-0.05187886953353882,0.15527677536010742,-0.19986313581466675
0.5888394713401794,-0.6217555403709412,-1.282639741897583,-0.0059182047843933105,0.15993237495422363,0.1135440468788147
0.41212722659111023,-0.4246180057525635,-1.2059245109558105,0.0072547197341918945,0.10007396340370178,0.33757346868515015
0.0318375788629055,-0.2637540400028229,-0.8970766663551331,0.03333631157875061,-0.01662290096282959,0.44002705812454224
-0.43266037106513977,-0.10115589201450348,-0.5522856116294861,0.04217338562011719,-0.06796079874038696,0.449776828289032
-0.778317391872406,-0.0901598185300827,-0.23436599969863892,0.04917404055595398,-0.04575064778327942,0.303059458732605
-0.849919319152832,-0.15531744062900543,-0.025577282533049583,0.03444021940231323,-0.0023080110549926758,0.08440792560577393
-0.6914207339286804,-0.22317804396152496,-0.020857233554124832,0.00847005844116211,0.059021711349487305,-0.08783257007598877
-0.2924222946166992,-0.3474098742008209,-0.22232793271541595,-0.05729496479034424,0.09694895148277283,-0.1977350115776062
0.10744765400886536,-0.39877262711524963,-0.4504860043525696,-0.08368068933486938,0.11163017153739929,-0.1992931365966797
0.24942927062511444,-0.3430531919002533,-0.48970797657966614,-0.02548786997795105,0.06287184357643127,-0.02592867612838745
0.14980994164943695,-0.30598360300064087,-0.37432748079299927,0.05560651421546936,0.013173609972000122,0.1175583004951477
-0.06708250194787979,-0.15666049718856812,-0.19658133387565613,0.0849672257900238,-0.017414063215255737,0.1942083239555359
-0.2507907748222351,-0.053563643246889114,-0.08462616801261902,0.0688018798828125,-0.026338577270507812,0.19601255655288696
-0.3427809774875641,-0.05150189623236656,-0.09819143265485764,0.04249674081802368,-0.002704113721847534,0.12187159061431885
-0.19048474729061127,0.07091112434864044,-0.16966699063777924,0.02056431770324707,-0.009417742490768433,0.0328829288482666
-0.03458714112639427,0.14894385635852814,-0.1315116584300995,0.057668447494506836,-0.03939858078956604,-0.002534329891204834
0.042118921875953674,0.12134118378162384,0.034802645444869995,0.13278606534004211,-0.09467971324920654,-0.02077460289001465
0.10596346855163574,0.28281769156455994,0.15025964379310608,0.11590147018432617,-0.10387873649597168,-0.01374506950378418
0.09733506292104721,0.38348227739334106,0.17145931720733643,0.06171843409538269,-0.09652110934257507,0.017367422580718994
0.12663394212722778,0.4039590060710907,0.16630975902080536,0.03262177109718323,-0.07218235731124878,-0.003439188003540039
0.162515789270401,0.45034259557724,0.23101788759231567,0.04228033125400543,-0.08189818263053894,-0.010356426239013672
0.13730598986148834,0.4643092453479767,0.3074103891849518,0.043221667408943176,-0.09371837973594666,0.001258552074432373
0.07173755019903183,0.5377001166343689,0.31954264640808105,-0.003576606512069702,-0.09841093420982361,0.027201473712921143
0.05731610581278801,0.6516777276992798,0.2870963513851166,-0.040345191955566406,-0.07700374722480774,0.005760014057159424
0.21570786833763123,0.6356364488601685,0.2643881142139435,-0.038740068674087524,-0.07791492342948914,-0.0925741195678711
0.2822589874267578,0.8015751838684082,0.2483319491147995,-0.07332448661327362,-0.06298920512199402,-0.051719069480895996
-0.2711968421936035,0.7774788737297058,0.2761801481246948,-0.08975228667259216,0.0025874674320220947,0.09636390209197998
-1.1538950204849243,0.7514097690582275,0.5091548562049866,0.0035361945629119873,-0.009712636470794678,0.13944458961486816
-1.2056424617767334,0.8272239565849304,0.7094998359680176,0.0507853627204895,-0.02829989790916443,-0.17866533994674683
-0.5064219236373901,0.8616535067558289,0.6770687103271484,-0.0293276309967041,0.0006787478923797607,-0.5094497203826904
0.2186664342880249,0.8648161292076111,0.3555172085762024,-0.15030771493911743,0.05701291561126709,-0.5136182904243469
0.5243799686431885,0.6113048791885376,0.13152271509170532,-0.15319257974624634,0.08275318145751953,-0.349265992641449
0.4696260392665863,0.49836036562919617,0.0614750050008297,-0.08698120713233948,0.07617133855819702,-0.08979862928390503
0.32174673676490784,0.478189080953598,0.11009376496076584,-0.03307369351387024,0.05140802264213562,0.05870473384857178
0.2583182156085968,0.3279454708099365,0.20917414128780365,0.01159636676311493,0.0603119432926178,0.05836528539657593
0.09865061938762665,0.1965988129377365,0.37262260913848877,0.04499831050634384,0.06627795100212097,0.07011055946350098
0.027386222034692764,0.24406366050243378,0.4799683392047882,0.03267531096935272,0.05549630522727966,0.09328508377075195
0.04312416538596153,0.23951664566993713,0.5091503262519836,-0.017070621252059937,0.04807582497596741,0.03976041078567505
0.09157317876815796,0.17187431454658508,0.45362982153892517,-0.05139368772506714,0.04530760645866394,0.015512406826019287
0.30621302127838135,0.22805483639240265,0.3198212683200836,-0.09439994394779205,0.04608088731765747,-0.01160132884979248
0.5929510593414307,0.13625213503837585,0.23611120879650116,-0.08243948221206665,0.050928473472595215,-0.05574721097946167
0.5973369479179382,0.027972538024187088,0.23875020444393158,-0.0352301150560379,0.0352666974067688,0.017152786254882812
0.48324793577194214,-0.08404402434825897,0.23745903372764587,-0.04037429392337799,0.028647810220718384,0.09579586982727051
0.4209931492805481,-0.09684863686561584,0.15976332128047943,-0.07093631476163864,0.024959832429885864,0.12562483549118042
0.38588640093803406,-0.02830728143453598,0.033341117203235626,-0.11080741882324219,0.02580869197845459,0.14877623319625854
0.28985947370529175,0.07503004372119904,-0.09853984415531158,-0.11946500837802887,0.03161567449569702,0.17362791299819946
0.3577260971069336,0.07134270668029785,-0.1760110706090927,-0.11548353731632233,0.02299201488494873,0.10539650917053223
0.4074611961841583,0.0713932141661644,-0.30717331171035767,-0.10972876846790314,0.017307430505752563,0.06051069498062134
0.3678625822067261,0.3196293115615845,-0.58390873670578,-0.17156757414340973,0.036188602447509766,0.1285439133644104
0.5107192397117615,0.7071053385734558,-0.8795579075813293,-0.19588813185691833,0.04079762101173401,0.08682948350906372
0.7927566766738892,0.7262546420097351,-1.0838960409164429,-0.20342527329921722,0.010794639587402344,-0.037122130393981934
0.7652718424797058,0.15907685458660126,-1.166594386100769,-0.17281347513198853,-0.016782760620117188,-0.08677536249160767
0.5047295093536377,-0.30461257696151733,-1.2353341579437256,-0.17438213527202606,-0.02912592887878418,-0.01641470193862915
0.3275856673717499,-0.3427146375179291,-1.2948685884475708,-0.17166373133659363,-0.04535329341888428,0.02604907751083374
0.4553326964378357,-0.2799361050128937,-1.4160552024841309,-0.19914038479328156,-0.03115445375442505,-0.09056973457336426
0.6835489273071289,-0.3841145932674408,-1.589224934577942,-0.2337426245212555,0.02151048183441162,-0.2036527395248413
0.829262912273407,-0.6710605025291443,-1.7447222471237183,-0.24111232161521912,0.07917499542236328,-0.21659260988235474
0.7986668348312378,-0.8885412216186523,-1.8322826623916626,-0.2520008683204651,0.06566333770751953,-0.10842561721801758
0.44817957282066345,-0.8716697692871094,-1.9159477949142456,-0.30726394057273865,0.04427546262741089,0.05826258659362793
-0.2608793377876282,-0.8846284747123718,-1.970314621925354,-0.3210499882698059,0.06189316511154175,0.11214065551757812
-0.9567898511886597,-1.0679692029953003,-1.9941768646240234,-0.2566832900047302,0.09396278858184814,-0.016387939453125
-0.7687547206878662,-1.403132438659668,-1.9516899585723877,-0.1493072509765625,0.13293981552124023,-0.43060266971588135
-0.1866156905889511,-1.3306525945663452,-2.0424270629882812,-0.19840878248214722,0.1448102593421936,-0.577880322933197
0.16311515867710114,-1.0019581317901611,-2.2022483348846436,-0.25506162643432617,0.18358886241912842,-0.4158831834793091
0.30209675431251526,-1.0631986856460571,-2.2391130924224854,-0.24560077488422394,0.23890763521194458,-0.2986423969268799
0.13828149437904358,-1.3041387796401978,-2.148676633834839,-0.1818293035030365,0.24297559261322021,-0.15581375360488892
-0.01268179714679718,-1.3028324842453003,-2.103423833847046,-0.17896299064159393,0.2678612470626831,-0.0470508337020874
0.07422560453414917,-1.2462668418884277,-2.072359323501587,-0.2029808759689331,0.2979322075843811,-0.06946688890457153
0.12440913170576096,-1.3207601308822632,-2.0480754375457764,-0.20206360518932343,0.33874523639678955,-0.11230844259262085
0.012779860757291317,-1.4462168216705322,-2.0561490058898926,-0.2116292119026184,0.3731340169906616,-0.088778555393219
-0.025731220841407776,-1.6043156385421753,-2.0698351860046387,-0.23112612962722778,0.37665629386901855,-0.09341466426849365
-0.06784959882497787,-1.7528935670852661,-2.071031332015991,-0.2280440479516983,0.3534075617790222,-0.1028032898902893
0.009432384744286537,-1.5025255680084229,-2.2174413204193115,-0.2863464653491974,0.3610702157020569,-0.07892012596130371
0.29211848974227905,-1.2799072265625,-2.3193297386169434,-0.3008319139480591,0.3382689952850342,-0.16393405199050903
0.40472841262817383,-1.2354233264923096,-2.3392858505249023,-0.2849457859992981,0.3180701732635498,-0.19039440155029297
0.12256120890378952,-1.3249419927597046,-2.2913906574249268,-0.2621527314186096,0.28484445810317993,-0.09215521812438965
-0.14094938337802887,-1.458318829536438,-2.1551122665405273,-0.23636554181575775,0.24410241842269897,-0.10028117895126343
-0.31637993454933167,-1.6420977115631104,-1.9449189901351929,-0.17740526795387268,0.19415539503097534,-0.21708494424819946
-0.2081405520439148,-1.4846856594085693,-1.9284857511520386,-0.22319531440734863,0.19420135021209717,-0.30883854627609253
0.087977834045887,-1.2839076519012451,-2.0517594814300537,-0.2958815395832062,0.22969913482666016,-0.38120508193969727
0.2958299219608307,-1.2445684671401978,-2.184807538986206,-0.30401867628097534,0.27977651357650757,-0.367806077003479
0.24774427711963654,-1.363481879234314,-2.194594144821167,-0.22611859440803528,0.2725973129272461,-0.2535019516944885
0.11032886058092117,-1.5556105375289917,-2.1870758533477783,-0.17130790650844574,0.2892225980758667,-0.14051228761672974
0.05321758612990379,-1.4761512279510498,-2.214874505996704,-0.1626218855381012,0.30372536182403564,-0.06353312730789185
0.11287745833396912,-1.340373158454895,-2.324697256088257,-0.2008814811706543,0.31693804264068604,-0.036822736263275146
0.14742563664913177,-1.234432339668274,-2.495170831680298,-0.23251323401927948,0.33194273710250854,-0.020018041133880615
0.09983896464109421,-1.2196356058120728,-2.55157732963562,-0.1990678310394287,0.30674540996551514,0.009278833866119385
-0.02061304822564125,-1.299808144569397,-2.403470277786255,-0.08758463710546494,0.25044429302215576,0.022253215312957764
-0.1876976639032364,-1.3498109579086304,-2.2002639770507812,-0.03705642372369766,0.1997564435005188,0.05022090673446655
-0.3916749656200409,-1.44189453125,-2.039511203765869,-0.05807541310787201,0.13825809955596924,0.07795023918151855
-0.7396640181541443,-1.138841152191162,-1.9057345390319824,-0.10772647708654404,0.11537402868270874,0.11552715301513672
-1.2892283201217651,-1.0433316230773926,-1.880440354347229,-0.1058516725897789,0.16829204559326172,0.058201491832733154
-1.3188596963882446,-1.380411148071289,-1.8795489072799683,-0.037846170365810394,0.20879724621772766,-0.26319074630737305
-0.6445185542106628,-1.6039845943450928,-2.048386812210083,-0.028554394841194153,0.2149292230606079,-0.4969196319580078
0.07586169987916946,-1.3974946737289429,-2.2300539016723633,-0.04540245234966278,0.2005903124809265,-0.39832550287246704
0.16736504435539246,-1.0607080459594727,-2.3193507194519043,0.0009295865893363953,0.17240086197853088,-0.038704872131347656
-0.06159140169620514,-1.0660426616668701,-2.1700756549835205,0.07424795627593994,0.10894843935966492,0.1317935585975647
-0.4254831373691559,-1.1257110834121704,-1.934980034828186,0.1056889146566391,0.0391961932182312,0.18573087453842163
-0.665248453617096,-1.1568787097930908,-1.6988742351531982,0.13950781524181366,-0.0033941268920898438,0.1258918046951294
-0.7584618330001831,-1.402418613433838,-1.450796127319336,0.17922359704971313,-0.013836503028869629,-0.05960440635681152
-1.0001246929168701,-1.2485157251358032,-1.351319432258606,0.17632684111595154,0.0031706690788269043,-0.06280219554901123
-0.6757391095161438,-0.8719289302825928,-1.4084587097167969,0.11431129276752472,0.03440886735916138,-0.203119158744812
-0.07566492259502411,-0.7157145142555237,-1.536819577217102,0.07013042271137238,0.040614187717437744,-0.3342227339744568
0.10787025839090347,-0.8693439960479736,-1.6264607906341553,0.1008933037519455,0.05820035934448242,-0.252654492855072
-0.020754020661115646,-0.9084832668304443,-1.6446387767791748,0.1370023638010025,0.038191795349121094,-0.018043339252471924
-0.16908808052539825,-0.836737334728241,-1.5713281631469727,0.1636732667684555,0.005969047546386719,0.11678159236907959
-0.3647926151752472,-0.7137351632118225,-1.4912158250808716,0.17452649772167206,-0.01503250002861023,0.1822165846824646
-0.5041326284408569,-0.5948310494422913,-1.4718211889266968,0.14559657871723175,-0.014604717493057251,0.17112654447555542
-0.5007467269897461,-0.5984359383583069,-1.3623104095458984,0.16281317174434662,-0.0297698974609375,0.07208800315856934
-0.3723228871822357,-0.6105371117591858,-1.1969345808029175,0.19483430683612823,-0.08848923444747925,-0.023511886596679688
-0.24920447170734406,-0.5487309098243713,-1.2156751155853271,0.12345007061958313,-0.0857047438621521,-0.05611461400985718
-0.20143865048885345,-0.5649661421775818,-1.2820825576782227,0.05024857819080353,-0.07977122068405151,-0.021854102611541748
-0.1957939863204956,-0.6293823719024658,-1.2688747644424438,0.06663382053375244,-0.08786427974700928,-0.0062874555587768555
-0.14434325695037842,-0.635576069355011,-1.11331307888031,0.1268489807844162,-0.12221235036849976,0.013637125492095947
-0.02094949595630169,-0.5634265542030334,-0.8951498866081238,0.1749374270439148,-0.15628603100776672,-0.004758894443511963
0.03399575874209404,-0.5135898590087891,-0.7551255226135254,0.15205657482147217,-0.16729885339736938,-0.007782578468322754
0.02497449517250061,-0.5825943350791931,-0.7073672413825989,0.10410435497760773,-0.15637624263763428,-0.011151552200317383
0.015868622809648514,-0.6924194097518921,-0.684606671333313,0.0602952241897583,-0.1530342698097229,-0.02792668342590332
0.1363065093755722,-0.7329472303390503,-0.54386305809021,0.10675983130931854,-0.1504354476928711,-0.08707529306411743
0.3150484263896942,-0.8383044600486755,-0.3757649064064026,0.14428584277629852,-0.1604551076889038,-0.1590633988380432
0.41978275775909424,-0.7528535723686218,-0.31829363107681274,0.07387372851371765,-0.15583202242851257,-0.11325043439865112
0.15810443460941315,-0.4202379286289215,-0.26491332054138184,-0.0089796781539917,-0.18777263164520264,0.06545418500900269
-0.37111738324165344,-0.45318982005119324,-0.18598122894763947,0.0051471516489982605,-0.12610560655593872,0.05042672157287598
-0.5479099750518799,-0.688673734664917,-0.18370209634304047,0.04504658281803131,-0.05866798758506775,-0.17891031503677368
0.05809883773326874,-0.6712824106216431,-0.4556025564670563,-0.038096606731414795,0.004551827907562256,-0.3502858877182007
0.8067640662193298,-0.6354414820671082,-0.5672509074211121,-0.04167243838310242,-0.009784340858459473,-0.2943159341812134
0.8959034085273743,-0.34189367294311523,-0.6008437871932983,-0.046532124280929565,-0.03972408175468445,0.046027421951293945
0.4392950236797333,0.12054545432329178,-0.5378921627998352,-0.0688779354095459,-0.014863342046737671,0.27901458740234375
-0.29311808943748474,-0.09212698042392731,-0.3750440776348114,-0.06737059354782104,-0.0425872802734375,0.28620821237564087
-0.89406418800354,-0.4385263919830322,-0.2550561726093292,-0.0036699026823043823,0.02777111530303955,0.09549969434738159
-0.7144835591316223,-0.49576854705810547,-0.14415070414543152,0.039852842688560486,0.006439030170440674,-0.16427409648895264
-0.07628921419382095,-0.274653822183609,-0.12158109992742538,0.04457741975784302,0.003402888774871826,-0.31604164838790894
0.4975845515727997,0.09294238686561584,-0.19617432355880737,0.005602478981018066,0.05702286958694458,-0.23035168647766113
0.46190527081489563,-0.11110690981149673,-0.22877827286720276,0.00019662082195281982,0.06998011469841003,-0.041675031185150146
0.19322960078716278,-0.4054085314273834,-0.34766507148742676,0.0002069026231765747,0.0841546356678009,0.0729857087135315
0.23238207399845123,-0.28118541836738586,-0.38485175371170044,-0.004429295659065247,0.05977475643157959,0.09737503528594971
0.4301796555519104,-0.1380234956741333,-0.2688726484775543,0.0674336701631546,0.0253942608833313,0.04559445381164551
0.4858584403991699,-0.13550442457199097,-0.12147527933120728,0.10248127579689026,0.04266536235809326,0.052315354347229004
0.4384765326976776,-0.16710834205150604,-0.05120363086462021,0.07421226799488068,0.05247083306312561,0.0950503945350647
0.4379812479019165,-0.1347886621952057,0.023276731371879578,0.06885534524917603,0.03130215406417847,0.09391438961029053
0.3519822359085083,-0.06870193034410477,0.04072165861725807,0.06124201416969299,0.0343816876411438,0.09728455543518066
0.2681290805339813,-0.011875263415277004,0.07745889574289322,0.04868857562541962,0.016499996185302734,0.0873759388923645
0.2868386209011078,0.01945505477488041,0.14935384690761566,0.07559947669506073,-0.017602980136871338,-0.0039383769035339355
0.3107752799987793,-0.07476691156625748,0.2506844103336334,0.10509558022022247,-0.05020681023597717,-0.08012622594833374
0.14951744675636292,-0.062037236988544464,0.3552590310573578,0.1227036565542221,-0.05355450510978699,-0.04281133413314819
0.061067719012498856,0.12992379069328308,0.41125333309173584,0.13225015997886658,-0.0265691876411438,-0.02843719720840454
0.30743157863616943,0.2563022971153259,0.3751041889190674,0.0937158614397049,-0.023419559001922607,-0.13595426082611084
0.6030765771865845,0.24038094282150269,0.3709050416946411,0.10023495554924011,-0.043437957763671875,-0.1977066993713379
0.7110049724578857,0.37406283617019653,0.41109994053840637,0.10339571535587311,-0.1003715991973877,-0.09734666347503662
0.38611364364624023,0.6493749618530273,0.5926491022109985,0.10463854670524597,-0.09941399097442627,0.09840619564056396
-0.5277045369148254,0.7627899646759033,0.8385524153709412,0.08553551137447357,-0.07758009433746338,0.24527007341384888
-1.130399227142334,0.4179699718952179,0.8306140899658203,0.05670854449272156,0.0024484097957611084,0.00400698184967041
-0.6778450608253479,-0.22288911044597626,0.6609909534454346,0.06537842750549316,0.009653627872467041,-0.41292035579681396
0.25492507219314575,-0.16884884238243103,0.5257371664047241,0.06803682446479797,-0.006547451019287109,-0.5308888554573059
0.7609977722167969,0.36303114891052246,0.528407633304596,0.14773008227348328,-0.06817716360092163,-0.2593432068824768
0.7610326409339905,0.4601728618144989,0.5676788687705994,0.18457671999931335,-0.02624291181564331,-0.07564747333526611
0.4842185974121094,0.35862401127815247,0.8268356919288635,0.2954558730125427,-0.007933706045150757,-0.033296823501586914
0.41624513268470764,0.3978128135204315,1.284572958946228,0.45154935121536255,-0.06600958108901978,-0.07232969999313354
0.6238163709640503,0.4138007164001465,1.3972965478897095,0.3428340554237366,-0.04619377851486206,-0.1388789415359497
0.8203395009040833,0.23799386620521545,1.3275285959243774,0.2129216194152832,0.01841452717781067,-0.09693747758865356
0.8498444557189941,0.05517500638961792,1.3272067308425903,0.1844179928302765,0.06344074010848999,0.012636303901672363
0.6468948721885681,-0.08767860382795334,1.3654975891113281,0.17016851902008057,0.09338438510894775,0.17406421899795532
0.5067601799964905,-0.15884535014629364,1.3378347158432007,0.12594246864318848,0.11872786283493042,0.2287399172782898
0.577991783618927,-0.18359434604644775,1.161544680595398,0.04830269515514374,0.11535704135894775,0.1975610852241516
0.5698649287223816,-0.15181361138820648,0.8302351236343384,-0.026898354291915894,0.10925808548927307,0.21724170446395874
0.35039737820625305,-0.17052224278450012,0.6168298721313477,-0.005499720573425293,0.09739527106285095,0.2537769079208374
-0.09996828436851501,-0.3170056641101837,0.49173927307128906,0.035429179668426514,0.09418374300003052,0.2759072780609131
-0.35771575570106506,-0.4395097494125366,0.25518104434013367,0.015143394470214844,0.06412944197654724,0.18127644062042236
-0.2453514188528061,-0.5630126595497131,0.11186964064836502,0.031985729932785034,-0.0012709498405456543,0.017239689826965332
0.04644925892353058,-0.5643810629844666,0.17557497322559357,0.13654440641403198,-0.08169513940811157,-0.0948561429977417
0.2476542890071869,-0.5026158690452576,0.26275768876075745,0.1635938584804535,-0.08937346935272217,-0.11144983768463135
0.14971674978733063,-0.6459482908248901,0.29961833357810974,0.14300879836082458,-0.08884292840957642,-0.05451810359954834
-0.1414746195077896,-0.9943658709526062,0.28652530908584595,0.13482460379600525,-0.08773636817932129,-0.05347323417663574
-0.25333598256111145,-1.0382479429244995,0.22129660844802856,0.13670524954795837,-0.07835549116134644,-0.07185614109039307
0.009972577914595604,-0.7381516695022583,0.20084017515182495,0.1824606955051422,-0.04864415526390076,-0.16387760639190674
0.5506647229194641,-0.5239314436912537,0.32982563972473145,0.20608210563659668,-0.06943827867507935,-0.27530330419540405
0.7661918997764587,-0.2669700086116791,0.5770547389984131,0.22971364855766296,-0.12035202980041504,-0.14730244874954224
0.13429567217826843,0.1304592490196228,0.8719577193260193,0.1667816936969757,-0.029104769229888916,0.1319960355758667
-0.7482302188873291,0.25458380579948425,0.8758798241615295,0.0808708667755127,0.05555117130279541,0.17362916469573975
-0.8970917463302612,0.2684047222137451,0.5305805802345276,-0.08015289902687073,0.14958694577217102,-0.10666126012802124
-0.3009115755558014,0.1616605520248413,0.21662485599517822,-0.05211177468299866,0.15187391638755798,-0.39769303798675537
0.4031051993370056,0.5121362805366516,0.1362779289484024,0.02444663643836975,0.13760298490524292,-0.37838613986968994
0.760410726070404,0.7549716830253601,0.3296392261981964,0.10134723782539368,0.07312139868736267,-0.16929543018341064
0.4374096691608429,0.8800131678581238,0.5321117043495178,0.06091257929801941,0.08100101351737976,0.10473328828811646
-0.2034590095281601,1.001937747001648,0.7036489844322205,-0.02102029323577881,0.06440168619155884,0.2729605436325073
-0.6288602352142334,1.0242747068405151,0.7328857779502869,-0.06809478998184204,0.11855208873748779,0.2142924666404724
-0.5096709132194519,0.8630922436714172,0.7621548175811768,-0.04309535026550293,0.16807055473327637,-0.05479353666305542
-0.06824688613414764,0.7970104813575745,0.6910548806190491,-0.012873232364654541,0.19175589084625244,-0.21183598041534424
0.3900947570800781,0.7786425352096558,0.6439488530158997,-0.023282021284103394,0.19334542751312256,-0.195112407207489
0.4458067715167999,0.7488638758659363,0.6401581168174744,-0.023242712020874023,0.15304714441299438,0.002300858497619629
0.2403377741575241,0.6325995922088623,0.6429139375686646,-0.03419235348701477,0.14529526233673096,0.1422182321548462
0.1324176788330078,0.5926582217216492,0.5999068021774292,-0.06621202826499939,0.13293325901031494,0.16533076763153076
0.2792491912841797,0.6521564722061157,0.47515782713890076,-0.11167219281196594,0.14610227942466736,0.08932721614837646
0.4721732437610626,0.7581869959831238,0.42479488253593445,-0.0986386239528656,0.12642866373062134,0.0451200008392334
0.4658316671848297,0.7526189088821411,0.49491772055625916,-0.05538251996040344,0.10475882887840271,0.08039319515228271
0.30633047223091125,0.684296190738678,0.672907292842865,-0.02832016348838806,0.06866788864135742,0.12287294864654541
0.1164947897195816,0.7177817225456238,0.7945826053619385,-0.06872740387916565,0.052415698766708374,0.14900058507919312
0.09963370859622955,0.7406474947929382,0.7729988694190979,-0.14246606826782227,0.06648886203765869,0.0824541449546814
0.20918135344982147,0.7394134402275085,0.6539562940597534,-0.20220568776130676,0.06368204951286316,-0.009318768978118896
0.24393224716186523,0.739317774772644,0.5935810208320618,-0.19451171159744263,0.03554922342300415,-0.02526998519897461
0.13303853571414948,0.8499305844306946,0.6760199069976807,-0.12216824293136597,-0.007587432861328125,0.025825440883636475
-0.04106801748275757,0.9330387711524963,0.733082115650177,-0.11612904071807861,-0.010293781757354736,0.05470454692840576
-0.05314319580793381,0.875714898109436,0.7350674271583557,-0.14771270751953125,-0.005467653274536133,-0.013640046119689941
0.008708108216524124,0.9524067044258118,0.671634316444397,-0.19381611049175262,0.0020160973072052,-0.03716689348220825
-0.002170481951907277,0.9991821646690369,0.5702188014984131,-0.2320302277803421,0.014151066541671753,-0.02634286880493164
0.06689033657312393,0.9945952296257019,0.4301876723766327,-0.2528955936431885,-0.002393364906311035,-0.07089477777481079
0.055942878127098083,1.1377873420715332,0.41358286142349243,-0.2692817151546478,-0.09282922744750977,-0.02041459083557129
-0.32977280020713806,1.3685187101364136,0.39728981256484985,-0.26525646448135376,-0.07035791873931885,0.10943931341171265
-1.0737574100494385,1.152906060218811,0.5324353575706482,-0.15654438734054565,-0.018194109201431274,0.09767812490463257
-1.2984519004821777,0.8150424957275391,0.5491275787353516,-0.12279874086380005,0.0010239481925964355,-0.16268277168273926
-0.6897246241569519,0.8023064136505127,0.4025193154811859,-0.17039808630943298,0.007982522249221802,-0.4235510230064392
-0.06892532855272293,0.6435241103172302,0.35184958577156067,-0.1729072779417038,-0.01427239179611206,-0.4967283606529236
0.08951552957296371,0.2745325267314911,0.3020349144935608,-0.1477794051170349,-0.020224690437316895,-0.3593316674232483
0.23185113072395325,0.19701161980628967,0.1637323498725891,-0.16847583651542664,0.021230041980743408,-0.22368186712265015
0.39341866970062256,0.23675376176834106,0.011066059581935406,-0.17006653547286987,0.05743229389190674,-0.12326008081436157
0.3106515407562256,0.21149270236492157,-0.09274943917989731,-0.1219366267323494,0.07126116752624512,0.0044708251953125
0.34495028853416443,0.1268252283334732,-0.21836918592453003,-0.09079981595277786,0.08133894205093384,0.050429701805114746
0.4860508143901825,0.08181096613407135,-0.27711421251296997,-0.08783993870019913,0.06980249285697937,0.082774817943573
0.37227362394332886,-0.044410478323698044,-0.19461071491241455,-0.04665087163448334,0.03274482488632202,0.19980812072753906
0.13075950741767883,-0.1700146496295929,-0.12760932743549347,-0.030579760670661926,0.013512998819351196,0.29698026180267334
0.04922888055443764,-0.3218570351600647,-0.13970887660980225,-0.07276815176010132,0.002307713031768799,0.2613052725791931
0.0631178691983223,-0.3049072027206421,-0.18329976499080658,-0.10674305260181427,0.00042125582695007324,0.21632224321365356
0.01346216257661581,-0.16501212120056152,-0.15947498381137848,-0.07808300852775574,-0.0023777782917022705,0.2312280535697937
-0.0806502029299736,-0.17315730452537537,-0.1697080135345459,-0.09184181690216064,0.010795921087265015,0.21298986673355103
-0.15738487243652344,-0.3915523886680603,-0.2084595263004303,-0.10927321016788483,0.03672471642494202,0.13997870683670044
-0.21071647107601166,-0.5212427973747253,-0.31275808811187744,-0.11492779850959778,0.0371776819229126,0.10301274061203003
-0.20122839510440826,-0.35227492451667786,-0.560338020324707,-0.19200626015663147,0.055908918380737305,0.13511556386947632
-0.1535835862159729,-0.31686586141586304,-0.8043298721313477,-0.23045839369297028,0.05521532893180847,0.09731084108352661
-0.25294333696365356,-0.34143564105033875,-0.9956017732620239,-0.2207772433757782,0.056678980588912964,0.10053467750549316
-0.30527135729789734,-0.38329172134399414,-1.0890705585479736,-0.20045989751815796,0.011195838451385498,0.09481114149093628
-0.32019126415252686,-0.3647133708000183,-1.0765718221664429,-0.1619357168674469,-0.02845698595046997,0.0699225664138794
-0.3921121060848236,-0.34969475865364075,-1.051663875579834,-0.1594473272562027,-0.0699458122253418,0.06850683689117432
-0.42983120679855347,-0.424811989068985,-1.067992925643921,-0.18753236532211304,-0.07231312990188599,0.006465315818786621
-0.46994349360466003,-0.5637286901473999,-1.0912481546401978,-0.188923180103302,-0.06594148278236389,-0.059869468212127686
-0.46326184272766113,-0.7053894996643066,-1.0925356149673462,-0.16071033477783203,-0.04873749613761902,-0.12168776988983154
-0.3050172030925751,-0.8720951080322266,-1.1749967336654663,-0.1547410786151886,-0.014618098735809326,-0.19923299551010132
-0.04170406982302666,-0.8680033087730408,-1.2333815097808838,-0.2096652239561081,-0.008540630340576172,-0.2010623812675476
-0.2268698513507843,-0.630455493927002,-1.1556217670440674,-0.22637724876403809,-0.0990149974822998,0.005373060703277588
-0.8053064942359924,-0.6298972368240356,-1.1139400005340576,-0.224237859249115,-0.025444507598876953,0.06012082099914551
-0.9168347716331482,-0.7516312003135681,-1.1736719608306885,-0.21038101613521576,0.05375939607620239,-0.1966952085494995
-0.2756083905696869,-0.6873934268951416,-1.4223116636276245,-0.25825512409210205,0.17069318890571594,-0.4776277542114258
0.3863508999347687,-0.5661175847053528,-1.760434865951538,-0.3213329315185547,0.21612730622291565,-0.44286322593688965
0.3373171091079712,-0.5256921052932739,-1.8402643203735352,-0.27821213006973267,0.17686372995376587,-0.12886422872543335
-0.21679994463920593,-0.4337310194969177,-1.7223540544509888,-0.19440945982933044,0.16012045741081238,0.10045909881591797
-0.9923012852668762,-0.3122851550579071,-1.5461915731430054,-0.1440490037202835,0.14363789558410645,0.17244553565979004
-1.254776120185852,-0.4367509186267853,-1.4694677591323853,-0.1198965311050415,0.23927521705627441,-0.11736679077148438
-0.7184470891952515,-0.5165542364120483,-1.6141281127929688,-0.14020447432994843,0.29335182905197144,-0.4201393127441406
0.12493040412664413,-0.2671721279621124,-1.920531988143921,-0.2066723108291626,0.34089672565460205,-0.46639740467071533
0.5423764586448669,-0.2772144675254822,-2.0588784217834473,-0.17912842333316803,0.31894123554229736,-0.29635608196258545
0.3665023148059845,-0.48323893547058105,-2.006584405899048,-0.07573914527893066,0.26429682970046997,-0.008385419845581055
0.09812624752521515,-0.5385271310806274,-1.7911746501922607,0.012020587921142578,0.1810147762298584,0.18292826414108276
0.09648558497428894,-0.49703556299209595,-1.5753967761993408,0.026926398277282715,0.14696785807609558,0.18159741163253784
0.3541131615638733,-0.44413235783576965,-1.484040379524231,-0.027360349893569946,0.1766381859779358,0.09024113416671753
