rotation_x,rotation_y,rotation_z,acceleration_x,acceleration_y,acceleration_z
-0.040844183415174484,0.26689717173576355,-0.021766018122434616,-0.031353577971458435,0.06668350100517273,0.14582741260528564
-0.3262466788291931,0.5407363176345825,-0.06353352963924408,-0.04898539185523987,0.06646797060966492,0.1002158522605896
-0.29789310693740845,0.5276276469230652,-0.059723347425460815,-0.02334439754486084,0.08385252952575684,-0.02827852964401245
-0.055720314383506775,0.30484291911125183,0.026632511988282204,0.002364516258239746,0.09418711066246033,-0.09067106246948242
0.15255074203014374,-0.08496229350566864,0.12650702893733978,0.012882769107818604,0.09845298528671265,-0.036501944065093994
0.13721826672554016,-0.29741284251213074,0.22424021363258362,-0.02402016520500183,0.08458700776100159,0.1056365966796875
-0.0064782919362187386,-0.21315893530845642,0.23523074388504028,-0.07920974493026733,0.06624391674995422,0.20398223400115967
-0.10294206440448761,-0.05675758421421051,0.1785093992948532,-0.10018716752529144,0.07084843516349792,0.22096550464630127
-0.15553665161132812,0.11584529280662537,0.1049012616276741,-0.11154916882514954,0.068266361951828,0.21109724044799805
-0.20522955060005188,0.25772756338119507,0.02820305898785591,-0.11963178217411041,0.05189967155456543,0.17943555116653442
-0.21965813636779785,0.2878139317035675,-0.03615933656692505,-0.11686089634895325,0.04110902547836304,0.1233869194984436
-0.20557454228401184,0.19207221269607544,-0.08160964399576187,-0.11392922699451447,0.032030969858169556,0.08693850040435791
-0.19930846989154816,0.04710780084133148,-0.1376560628414154,-0.12471619248390198,0.018082231283187866,0.08072274923324585
-0.23571276664733887,-0.0010375309502705932,-0.17053508758544922,-0.12162220478057861,0.005974471569061279,0.09776747226715088
-0.24998100101947784,0.016730835661292076,-0.18931570649147034,-0.11815783381462097,-0.008368968963623047,0.0757150650024414
-0.21389217674732208,0.06668011844158173,-0.1608797013759613,-0.1001550555229187,-0.015510201454162598,0.05470621585845947
-0.2258276343345642,0.142047718167305,-0.13398697972297668,-0.1037200540304184,-0.018256306648254395,0.0524255633354187
-0.27779239416122437,0.22745004296302795,-0.1763792335987091,-0.1149907186627388,0.00012570619583129883,0.029826700687408447
-0.2981085181236267,0.3135739862918854,-0.25341489911079407,-0.10802492499351501,0.0319695770740509,-0.016068875789642334
-0.333614706993103,0.37356510758399963,-0.36291322112083435,-0.08578339964151382,0.054807230830192566,-0.06262153387069702
-0.37031352519989014,0.3791950047016144,-0.46391335129737854,-0.05996989458799362,0.04656417667865753,-0.12081187963485718
-0.3090387284755707,0.308617502450943,-0.48462554812431335,-0.03620415925979614,0.010632619261741638,-0.18433547019958496
-0.28375014662742615,0.26780247688293457,-0.35582780838012695,0.019314467906951904,-0.017922982573509216,-0.19844591617584229
-0.37507951259613037,0.2375182807445526,-0.1510113924741745,0.06081106513738632,-0.031185626983642578,-0.2000136375427246
-0.45184096693992615,0.20467433333396912,0.0735151618719101,0.0737585723400116,-0.024203866720199585,-0.23751300573349
-0.4033479690551758,0.083541139960289,0.2369120568037033,0.04909282922744751,-0.026241526007652283,-0.26489657163619995
-0.2497229427099228,-0.08846722543239594,0.29506897926330566,0.012507550418376923,-0.014421120285987854,-0.23194676637649536
-0.06150621920824051,-0.26519283652305603,0.24662502110004425,-0.01643555611371994,-0.009573549032211304,-0.14555859565734863
0.07702915370464325,-0.37406405806541443,0.1724219024181366,-0.00017218291759490967,-0.006501317024230957,-0.029208064079284668
0.15810248255729675,-0.3528497517108917,0.12547335028648376,0.03336821496486664,-0.011621162295341492,0.07429218292236328
0.22958312928676605,-0.21696025133132935,0.15063582360744476,0.06477145850658417,-0.018921494483947754,0.13274484872817993
0.24384766817092896,-0.04528577998280525,0.2482599914073944,0.07967916876077652,-0.023809075355529785,0.16467440128326416
0.14145100116729736,0.07585396617650986,0.3174918293952942,0.05790622532367706,-0.010970816016197205,0.16905230283737183
-0.02569156140089035,0.16236327588558197,0.30680087208747864,0.03603482246398926,0.03575897216796875,0.1271710991859436
-0.1512124091386795,0.13035264611244202,0.2552259862422943,0.03484591096639633,0.08079257607460022,0.061924636363983154
-0.23058488965034485,0.05352495238184929,0.18312706053256989,0.01866000145673752,0.0890645682811737,0.010423600673675537
-0.2620859444141388,-0.033325910568237305,0.07543473690748215,-0.00764109194278717,0.07902891933917999,-0.01833641529083252
-0.21174228191375732,-0.13522988557815552,-0.101620614528656,-0.031057290732860565,0.06760823726654053,-0.03229379653930664
-0.10156502574682236,-0.22556716203689575,-0.3180246949195862,-0.024346210062503815,0.05840104818344116,-0.006796598434448242
-0.009724419564008713,-0.18090032041072845,-0.46223410964012146,0.006613440811634064,0.03531767427921295,0.052958130836486816
0.004859971348196268,-0.02493184432387352,-0.5047686100006104,0.03229699283838272,-0.002499416470527649,0.11080306768417358
-0.04259667918086052,0.17066751420497894,-0.4953799545764923,0.041574493050575256,-0.02784740924835205,0.138477623462677
-0.11549904197454453,0.2800028324127197,-0.4607647955417633,0.046135060489177704,-0.0470481812953949,0.1276099681854248
-0.16466180980205536,0.25785279273986816,-0.3933863639831543,0.0600958988070488,-0.058039724826812744,0.09173816442489624
-0.18464510142803192,0.13984359800815582,-0.2789934277534485,0.06910631060600281,-0.06543204188346863,0.056428611278533936
-0.18338187038898468,0.022802498191595078,-0.16436493396759033,0.06596590578556061,-0.07154302299022675,0.030352234840393066
-0.14033566415309906,-0.024683617055416107,-0.10074952244758606,0.04273242503404617,-0.0646914690732956,0.020071446895599365
-0.06521596014499664,-0.05823895335197449,-0.09713181108236313,0.012898609042167664,-0.06507672369480133,0.01745086908340454
0.0022641103714704514,-0.10799534618854523,-0.11668577790260315,0.0051573216915130615,-0.06592151522636414,0.0351254940032959
-0.011359184049069881,-0.1469563990831375,-0.11548596620559692,0.01248759776353836,-0.0727885365486145,0.047951459884643555
-0.005762571003288031,-0.18437641859054565,-0.08945415914058685,0.013564378023147583,-0.08370473980903625,0.03526860475540161
0.041297659277915955,-0.20018638670444489,-0.04744493588805199,0.005075685679912567,-0.0772564709186554,0.02140986919403076
0.06897635012865067,-0.2345782369375229,-0.05656299367547035,-0.008878648281097412,-0.06644536554813385,0.014494061470031738
0.07014959305524826,-0.27256375551223755,-0.0892760157585144,-0.006548546254634857,-0.05608011782169342,0.003984034061431885
0.0685005635023117,-0.2921134829521179,-0.12064006924629211,-0.0025708377361297607,-0.04957331717014313,-0.021438419818878174
0.07000502943992615,-0.2816024422645569,-0.1447797566652298,0.016626447439193726,-0.033981531858444214,-0.05289989709854126
0.09216633439064026,-0.26850923895835876,-0.14895693957805634,0.03145330399274826,-0.028783604502677917,-0.09016752243041992
0.11421739310026169,-0.31389665603637695,-0.10620635747909546,0.018897250294685364,-0.05366414785385132,-0.09583842754364014
0.06224900856614113,-0.3443938195705414,-0.0402480810880661,0.0030847489833831787,-0.06750060617923737,-0.0863533616065979
-0.04618093743920326,-0.3068183660507202,0.047902800142765045,0.014335736632347107,-0.04903276264667511,-0.08947604894638062
-0.11956397444009781,-0.2741270363330841,0.11014889925718307,0.011346638202667236,-0.021904438734054565,-0.12026911973953247
-0.15037775039672852,-0.23808962106704712,0.14456374943256378,0.0011045336723327637,0.004861176013946533,-0.15182769298553467
-0.16961129009723663,-0.2035110890865326,0.12194598466157913,-0.02054201066493988,0.022991672158241272,-0.17283344268798828
-0.1773393154144287,-0.18213120102882385,0.06383079290390015,-0.03388647735118866,0.050246208906173706,-0.18601399660110474
-0.11562317609786987,-0.2922403812408447,-0.023694980889558792,-0.02988642454147339,0.08106525242328644,-0.17881065607070923
0.019241848960518837,-0.50661301612854,-0.16325221955776215,-0.026401326060295105,0.10399162769317627,-0.10961300134658813
0.12496373057365417,-0.6280477643013,-0.3240952789783478,-0.009289458394050598,0.10772325098514557,0.01604926586151123
0.16746766865253448,-0.5023462772369385,-0.4338759481906891,0.007101371884346008,0.08208195865154266,0.12254726886749268
0.12707872688770294,-0.2013978809118271,-0.4812287986278534,0.03558805584907532,0.06730054318904877,0.18375056982040405
0.03178739175200462,0.09011209011077881,-0.46304818987846375,0.06952281296253204,0.06399299204349518,0.18467700481414795
-0.06468390673398972,0.2761498689651489,-0.3741608262062073,0.08636350929737091,0.04464598000049591,0.12124115228652954
-0.0875382274389267,0.3128187954425812,-0.20879369974136353,0.10726325213909149,0.03368154168128967,0.030769765377044678
-0.10324260592460632,0.26501205563545227,0.00766014726832509,0.11406451463699341,0.04240703582763672,-0.03225594758987427
-0.07503287494182587,0.10566391795873642,0.1442551165819168,0.07925984263420105,0.04796592891216278,-0.06714111566543579
0.032193686813116074,-0.10291827470064163,0.20019413530826569,0.033523887395858765,0.049756526947021484,-0.057506263256073
0.09763015061616898,-0.22216567397117615,0.17636457085609436,-0.0008919239044189453,0.04203683137893677,0.01124119758605957
0.10989382117986679,-0.14945894479751587,0.10958179086446762,0.0022030025720596313,0.022404387593269348,0.0673905611038208
0.17386159300804138,0.008582953363656998,0.12743844091892242,0.03933213651180267,0.012457877397537231,0.07819753885269165
0.24215732514858246,0.08415435999631882,0.2313745766878128,0.06503616273403168,0.009637504816055298,0.0951194167137146
0.2021642029285431,0.0778021588921547,0.3543398976325989,0.061453744769096375,0.009386613965034485,0.12766247987747192
0.08909549564123154,0.06303396075963974,0.4457383453845978,0.03774169087409973,0.0096818208694458,0.14685606956481934
-0.004323356784880161,0.0913730189204216,0.4656825661659241,0.007505953311920166,0.010603457689285278,0.12914639711380005
0.003981488291174173,0.14052367210388184,0.42871201038360596,-0.012768477201461792,0.016887754201889038,0.08363896608352661
0.11657312512397766,0.16483239829540253,0.3661438524723053,-0.017613425850868225,0.01946677267551422,0.04385262727737427
0.22235806286334991,0.18986114859580994,0.3416013717651367,-0.01697923243045807,0.013734638690948486,0.04711967706680298
0.21522307395935059,0.2108926773071289,0.36235371232032776,-0.013710454106330872,-0.0005774646997451782,0.07143241167068481
0.11325892806053162,0.2486281543970108,0.40461841225624084,-0.026198744773864746,-0.00968661904335022,0.06951528787612915
0.01678759977221489,0.31705304980278015,0.4155311584472656,-0.04922594130039215,-0.016695648431777954,0.0263938307762146
-0.03797410428524017,0.35665827989578247,0.4491244852542877,-0.020425081253051758,0.00807732343673706,-0.04509150981903076
-0.038427941501140594,0.19279810786247253,0.45162150263786316,0.0055280327796936035,0.03567485511302948,-0.10198009014129639
0.031960297375917435,0.062171898782253265,0.4547984302043915,-0.007089629769325256,0.023935556411743164,-0.13012397289276123
0.14366918802261353,0.029255662113428116,0.48233410716056824,-0.027690723538398743,-0.009296566247940063,-0.12198859453201294
0.18365958333015442,0.1426571011543274,0.496263712644577,-0.005270257592201233,-0.017530709505081177,-0.08344012498855591
0.07992540299892426,0.4709205627441406,0.6033328771591187,0.04611195623874664,0.0005305558443069458,-0.07231998443603516
-0.041261039674282074,0.7240591049194336,0.8026340007781982,0.07492141425609589,0.01555873453617096,-0.14958906173706055
0.014053171500563622,0.6287128925323486,0.9324033856391907,0.035747230052948,0.025914758443832397,-0.25665920972824097
0.19748245179653168,0.35283133387565613,0.932921826839447,0.013475887477397919,0.06524090468883514,-0.27291518449783325
0.3379582166671753,0.1020389050245285,0.8805491328239441,0.02524051070213318,0.09671518206596375,-0.18505573272705078
0.2732536792755127,-0.0367429293692112,0.8585335612297058,0.03562633693218231,0.07562407851219177,-0.06288886070251465
0.18158966302871704,-0.11837261915206909,0.8870870471000671,0.055146291851997375,0.04662217199802399,0.008002817630767822
0.18790945410728455,-0.13289058208465576,0.9475501775741577,0.07484765350818634,0.05433185398578644,0.04557603597640991
0.19643665850162506,-0.03372150659561157,0.9075905084609985,0.05160790681838989,0.06624655425548553,0.08644086122512817
0.12932123243808746,0.11080755293369293,0.7459366321563721,0.03186148405075073,0.07745851576328278,0.11218535900115967
0.06416867673397064,0.1520732045173645,0.5167407393455505,0.02420113980770111,0.07691709697246552,0.09888565540313721
0.041752103716135025,0.12846186757087708,0.31121495366096497,0.03368698060512543,0.05450063943862915,0.07912081480026245
0.06412431597709656,0.1368521749973297,0.20847994089126587,0.0472235381603241,0.010191872715950012,0.08350008726119995
0.06678421795368195,0.1710316240787506,0.2026914656162262,0.058417901396751404,-0.022349417209625244,0.10442739725112915
0.055744145065546036,0.18676427006721497,0.2112204134464264,0.047360509634017944,-0.04093633592128754,0.12570106983184814
0.043898191303014755,0.22155430912971497,0.2016272097826004,0.03278598189353943,-0.04248218238353729,0.14269959926605225
0.004499159753322601,0.29733237624168396,0.17733830213546753,0.025643661618232727,-0.04411621391773224,0.14556819200515747
-0.04855026304721832,0.34341076016426086,0.18246513605117798,0.042401015758514404,-0.046660155057907104,0.12257373332977295
-0.11190880835056305,0.3428117632865906,0.23650123178958893,0.06773078441619873,-0.05084419250488281,0.08176231384277344
-0.1592606157064438,0.29007723927497864,0.3226269781589508,0.08102119714021683,-0.061496347188949585,0.02256643772125244
-0.13764886558055878,0.11291862279176712,0.40707340836524963,0.0848766416311264,-0.05355435609817505,-0.02493518590927124
-0.0014689841773360968,-0.11634255200624466,0.42940250039100647,0.05651339888572693,-0.03880384564399719,-0.03056436777114868
0.10129229724407196,-0.2740784287452698,0.386370450258255,0.026489295065402985,-0.03161691129207611,0.042934536933898926
0.06954225152730942,-0.24782058596611023,0.3156460225582123,0.013262748718261719,-0.04922841489315033,0.12947940826416016
0.00037093786522746086,-0.14144036173820496,0.2691209316253662,0.010423272848129272,-0.0676216334104538,0.15893232822418213
-0.04152347147464752,-0.058172937482595444,0.23453518748283386,0.010090187191963196,-0.08167588710784912,0.13213461637496948
-0.030729636549949646,-0.03241182491183281,0.19075365364551544,0.009482592344284058,-0.08536957204341888,0.07917588949203491
-0.001097802072763443,-0.020966337993741035,0.10580624639987946,0.010813295841217041,-0.06927183270454407,0.03369182348251343
0.022204406559467316,-0.030777715146541595,-0.008969876915216446,0.03763905167579651,-0.050710439682006836,-0.016222238540649414
0.09565399587154388,-0.10888809710741043,-0.07676860690116882,0.07605606317520142,-0.03469417989253998,-0.06072437763214111
0.12832839787006378,-0.2028406411409378,-0.08628761768341064,0.08310788869857788,-0.05516296625137329,-0.06823587417602539
0.09586294740438461,-0.2206166833639145,0.005290165077894926,0.07962103188037872,-0.10850653052330017,-0.07101285457611084
-0.00748608261346817,-0.08262179046869278,0.19444677233695984,0.07066379487514496,-0.097620889544487,-0.10088980197906494
-0.10001015663146973,-0.0628182590007782,0.29644984006881714,0.046277597546577454,-0.02372315526008606,-0.1655227541923523
-0.12203594297170639,-0.2141544371843338,0.2802046537399292,-0.004162043333053589,0.013104364275932312,-0.2092633843421936
-0.09935067594051361,-0.2784636318683624,0.21061041951179504,-0.04994630813598633,0.015249893069267273,-0.21139025688171387
-0.0843108519911766,-0.2245069146156311,0.12289221584796906,-0.04372280836105347,0.03331662714481354,-0.19485801458358765
-0.07606364041566849,-0.1736866980791092,0.03719053789973259,-0.029873162508010864,0.04837627708911896,-0.17792868614196777
-0.010112131014466286,-0.20763157308101654,-0.03452173247933388,-0.0207444429397583,0.05104529857635498,-0.15189087390899658
0.10213226824998856,-0.310986191034317,-0.10994093120098114,-0.009125590324401855,0.0664370059967041,-0.08461934328079224
0.17394019663333893,-0.3800044655799866,-0.18490584194660187,-0.002531290054321289,0.07519297301769257,0.015536129474639893
0.1474704146385193,-0.2787739932537079,-0.22896616160869598,0.005040198564529419,0.06939257681369781,0.10302513837814331
0.05380690097808838,0.029532089829444885,-0.23005788028240204,0.016637593507766724,0.07607334852218628,0.13381201028823853
-0.006875482387840748,0.3313750922679901,-0.23402804136276245,0.0239076167345047,0.08721475303173065,0.08933961391448975
-0.020302122458815575,0.43509039282798767,-0.23443441092967987,0.044357672333717346,0.11144685745239258,0.004565417766571045
-0.012427201494574547,0.37825578451156616,-0.19359996914863586,0.05639006197452545,0.11053547263145447,-0.06315058469772339
0.08219091594219208,0.21973833441734314,-0.1550445854663849,0.05059520900249481,0.0966729074716568,-0.09538793563842773
0.161397784948349,0.004477849695831537,-0.09663115441799164,0.05022624135017395,0.09200595319271088,-0.06089991331100464
0.16149744391441345,-0.14399462938308716,-0.0549750030040741,0.0527527779340744,0.0758841335773468,0.014149963855743408
0.1152784526348114,-0.10389725118875504,-0.0014455020427703857,0.054485708475112915,0.0497099906206131,0.08107227087020874
0.11923001706600189,0.06240023300051689,0.07327965646982193,0.05306233465671539,0.03183978796005249,0.10553795099258423
0.17149221897125244,0.20129498839378357,0.13537169992923737,0.04525496065616608,0.02933463454246521,0.1072419285774231
0.1948694884777069,0.15698258578777313,0.15483085811138153,0.042692095041275024,0.0387471467256546,0.11104381084442139
0.15021313726902008,-0.01740456558763981,0.16991296410560608,0.05327203869819641,0.042611777782440186,0.1303555965423584
0.039082176983356476,-0.12167081236839294,0.21987198293209076,0.06366196274757385,0.01853625476360321,0.16303205490112305
-0.045223042368888855,-0.05409013107419014,0.3323843479156494,0.06370362639427185,-0.02272242307662964,0.15593856573104858
-0.04688131436705589,0.04151339456439018,0.4609728753566742,0.05524510145187378,-0.04523418843746185,0.11576193571090698
-0.017992250621318817,0.07560546696186066,0.541266143321991,0.040615975856781006,-0.040328413248062134,0.07914406061172485
-0.04014638811349869,0.04524165391921997,0.5708949565887451,0.03969527781009674,-0.025727689266204834,0.05680912733078003
-0.09994103759527206,0.03790049999952316,0.6041421294212341,0.04289829730987549,-0.038700178265571594,0.020447492599487305
-0.1093645989894867,0.039241284132003784,0.6736516952514648,0.04129980504512787,-0.057421550154685974,-0.030076205730438232
-0.06865431368350983,0.059090495109558105,0.7124840617179871,0.026801064610481262,-0.054470598697662354,-0.07681524753570557
0.037011485546827316,0.06124843284487724,0.6360079050064087,0.005444437265396118,-0.03486575186252594,-0.11455929279327393
0.17583273351192474,0.0716787651181221,0.5164822936058044,0.009491339325904846,-0.014736190438270569,-0.12030154466629028
0.2516406178474426,0.1277880221605301,0.4497886300086975,0.02860875427722931,-0.017093241214752197,-0.08187264204025269
0.23151716589927673,0.2544039785861969,0.4704769253730774,0.048662737011909485,-0.03403526544570923,-0.0537261962890625
0.19717280566692352,0.30714383721351624,0.5207037329673767,0.06838920712471008,-0.017229795455932617,-0.06476771831512451
0.19570346176624298,0.31473779678344727,0.5764147043228149,0.06297732889652252,-0.010977327823638916,-0.06949055194854736
0.08592145889997482,0.43125829100608826,0.6537866592407227,0.06606525182723999,-0.005735054612159729,-0.06701892614364624
-0.08452382683753967,0.4997890293598175,0.7720293998718262,0.11407634615898132,0.01573719084262848,-0.09936875104904175
-0.17535844445228577,0.43310868740081787,0.9895391464233398,0.13414999842643738,0.020963996648788452,-0.16199392080307007
-0.12746842205524445,0.3231434226036072,1.1296731233596802,0.08142009377479553,0.011159583926200867,-0.19812875986099243
0.0106043154373765,0.2136823534965515,1.1186813116073608,0.04834228754043579,0.03843705356121063,-0.19074946641921997
0.21290814876556396,0.03362017124891281,0.9929909706115723,0.04677259922027588,0.07729612290859222,-0.15094298124313354
0.4388122260570526,-0.06590183824300766,0.8930857181549072,0.04474852979183197,0.07496936619281769,-0.05462980270385742
0.51158207654953,0.08759785443544388,0.8631035089492798,0.04985564947128296,0.059919267892837524,0.053883135318756104
0.3902735710144043,0.38127267360687256,0.8826340436935425,0.056956857442855835,0.05391108989715576,0.10420197248458862
0.21012839674949646,0.5423769950866699,0.9473708868026733,0.06798939406871796,0.06110416352748871,0.062480390071868896
0.12428657710552216,0.4284653663635254,1.046482801437378,0.05961225926876068,0.07424794137477875,-0.017523884773254395
0.15246151387691498,0.10032187402248383,1.0755289793014526,0.018680915236473083,0.08037078380584717,-0.03451132774353027
0.19706913828849792,-0.17787915468215942,1.0101503133773804,-0.04053223133087158,0.07910044491291046,0.03599280118942261
0.18676266074180603,-0.26729220151901245,0.8850703835487366,-0.06599792838096619,0.07032394409179688,0.13838881254196167
0.1312570422887802,-0.14318518340587616,0.7793191075325012,-0.0676870048046112,0.053171306848526,0.2114551067352295
0.0830499678850174,0.06508813798427582,0.7205270528793335,-0.07948456704616547,0.02455882728099823,0.22887229919433594
0.021907715126872063,0.22583308815956116,0.6803002953529358,-0.08870840072631836,0.007403239607810974,0.20572584867477417
-0.02984638884663582,0.21671977639198303,0.6181879043579102,-0.0898192822933197,0.013892799615859985,0.16456657648086548
-0.09189294278621674,0.13536955416202545,0.5408862829208374,-0.09369021654129028,0.026025280356407166,0.13504111766815186
-0.19864718616008759,0.10728973150253296,0.4576672315597534,-0.10266967117786407,0.025347143411636353,0.11693614721298218
-0.28745588660240173,0.12668433785438538,0.3734113872051239,-0.09819233417510986,0.02106460928916931,0.0715712308883667
-0.2519746720790863,0.11578989773988724,0.2601913511753082,-0.11584757268428802,0.01114565134048462,0.014344274997711182
-0.12219128012657166,0.06091996654868126,0.08886541426181793,-0.13541458547115326,0.009277179837226868,-0.015426695346832275
-0.02686297707259655,0.001012118998914957,-0.09980695694684982,-0.13776269555091858,0.003174498677253723,-0.004071593284606934
-0.015833161771297455,-0.017304394394159317,-0.25816595554351807,-0.12026816606521606,-0.0100480318069458,0.015817224979400635
-0.0011107854079455137,-0.048871174454689026,-0.3781757056713104,-0.09683066606521606,-0.026702880859375,0.0064542293548583984
0.046905506402254105,-0.10866310447454453,-0.4351845979690552,-0.06254437565803528,-0.037605658173561096,0.004556119441986084
0.06309113651514053,-0.11634339392185211,-0.4332231879234314,-0.043668851256370544,-0.05402286350727081,0.018681883811950684
0.04241762310266495,-0.09843634068965912,-0.40864142775535583,-0.031471431255340576,-0.06309771537780762,0.02963268756866455
0.004665255080908537,-0.06446994096040726,-0.3516255021095276,-0.02161860466003418,-0.05885954201221466,0.031674981117248535
-0.03492420166730881,-0.05774196237325668,-0.3282964527606964,-0.027290374040603638,-0.04652717709541321,0.01342916488647461
-0.006276594940572977,-0.14042255282402039,-0.3479795455932617,-0.030315086245536804,-0.02466985583305359,-0.04164963960647583
0.032826922833919525,-0.3303978741168976,-0.359343022108078,-0.03241932392120361,-0.011097431182861328,-0.06171196699142456
-0.041047103703022,-0.45253750681877136,-0.35860005021095276,-0.05255977809429169,-0.028273433446884155,-0.024030685424804688
-0.1842225342988968,-0.3336498439311981,-0.39039167761802673,-0.05037549138069153,-0.034622639417648315,-0.01372385025024414
-0.24089021980762482,-0.14592081308364868,-0.3758082091808319,-0.0019310414791107178,-0.0033370554447174072,-0.06830751895904541
-0.21744178235530853,-0.038757894188165665,-0.31685566902160645,0.012514427304267883,0.014066517353057861,-0.12807023525238037
-0.21612538397312164,-0.015466156415641308,-0.28207850456237793,-0.02073538303375244,0.018962398171424866,-0.1614864468574524
-0.24256756901741028,-0.08525611460208893,-0.3292383551597595,-0.04074506461620331,0.047001346945762634,-0.18748337030410767
-0.22194485366344452,-0.23390524089336395,-0.43903061747550964,-0.04188266396522522,0.05768243968486786,-0.19551414251327515
-0.1470516175031662,-0.34719347953796387,-0.5310941934585571,-0.024326488375663757,0.07748252153396606,-0.18539750576019287
-0.06507305055856705,-0.37097859382629395,-0.600598931312561,0.0006835609674453735,0.08560466766357422,-0.11930054426193237
0.0011573010124266148,-0.33171018958091736,-0.629371702671051,0.016026824712753296,0.08479636907577515,-0.0173988938331604
-0.03795987740159035,-0.1355997920036316,-0.5975812077522278,0.017775103449821472,0.07549579441547394,0.08203595876693726
-0.17217718064785004,0.18032708764076233,-0.5684311389923096,0.010534331202507019,0.059164464473724365,0.13489282131195068
-0.22711259126663208,0.36008816957473755,-0.538566529750824,0.017512217164039612,0.05993694067001343,0.08155322074890137
-0.12464315444231033,0.3025781810283661,-0.49652349948883057,0.03244270384311676,0.07924365997314453,-0.03651827573776245
-0.02399451844394207,0.13095828890800476,-0.44895806908607483,0.04496760666370392,0.10489152371883392,-0.09628039598464966
0.014688167721033096,-0.10614290088415146,-0.4348600506782532,0.041070520877838135,0.11647123098373413,-0.10174334049224854
0.0016478938050568104,-0.21989095211029053,-0.4370453357696533,0.023009538650512695,0.10191327333450317,-0.04954332113265991
0.01088404469192028,-0.2115093618631363,-0.451508104801178,0.008038565516471863,0.07557019591331482,0.019358932971954346
0.04593360796570778,-0.10420284420251846,-0.44863203167915344,0.007861971855163574,0.05971400439739227,0.07768410444259644
0.0425507053732872,0.03448411822319031,-0.4371960163116455,7.778406143188477e-05,0.046601563692092896,0.12604361772537231
-0.004522485658526421,0.1370423436164856,-0.40742161870002747,-0.0067631155252456665,0.03270646929740906,0.15611839294433594
-0.062395043671131134,0.205965057015419,-0.3729107081890106,-0.01474010944366455,0.028036057949066162,0.15945899486541748
-0.09753357619047165,0.24263539910316467,-0.36808279156684875,-0.03213101625442505,0.020870372653007507,0.1369522213935852
-0.06336565315723419,0.20531143248081207,-0.37669649720191956,-0.04559904336929321,0.024988383054733276,0.09183180332183838
-0.02038215845823288,0.11766418069601059,-0.3640628159046173,-0.03979770839214325,0.02885591983795166,0.06083029508590698
-0.01987813226878643,0.06319960951805115,-0.3534400761127472,-0.042943984270095825,0.023321926593780518,0.05490189790725708
-0.025259260088205338,0.06804307550191879,-0.3130330741405487,-0.04495280981063843,0.007255762815475464,0.05579173564910889
-0.016383139416575432,0.06160671263933182,-0.23815563321113586,-0.04330505430698395,-0.006283819675445557,0.0457729697227478
0.005465828813612461,0.07762102782726288,-0.19121351838111877,-0.06844116747379303,-0.02048616111278534,0.010431826114654541
0.07680581510066986,0.0971825122833252,-0.21231238543987274,-0.08869670331478119,-0.013714790344238281,-0.026349306106567383
0.1326335072517395,0.11743463575839996,-0.2676723301410675,-0.08607617020606995,0.004478245973587036,-0.045496582984924316
0.12182313203811646,0.10511081665754318,-0.2912082076072693,-0.05025334656238556,0.02319951355457306,-0.05422055721282959
0.07801300287246704,0.051392361521720886,-0.21925607323646545,-0.025896862149238586,0.021844372153282166,-0.07145416736602783
0.06657105684280396,-0.02723044343292713,-0.1282898634672165,-0.04031558334827423,0.013027548789978027,-0.08080708980560303
0.07274337112903595,-0.0712018758058548,-0.09967982769012451,-0.05394159257411957,0.024761974811553955,-0.06950998306274414
0.05916411802172661,-0.058210812509059906,-0.10925450921058655,-0.05547522008419037,0.02626262605190277,-0.03788644075393677
0.0005575735121965408,0.15379945933818817,-0.12453587353229523,-0.04948420822620392,0.020117953419685364,-0.034392356872558594
-0.012794907204806805,0.3625721037387848,-0.08509238809347153,-0.0048487186431884766,0.03524889051914215,-0.08632361888885498
0.01319839060306549,0.32705214619636536,0.03159692510962486,0.022414445877075195,0.05040311813354492,-0.13633066415786743
0.018561895936727524,0.13047930598258972,0.12884044647216797,-0.004145637154579163,0.03666268289089203,-0.13187390565872192
-0.029550354927778244,-0.02951967716217041,0.1810753494501114,-0.02875707298517227,0.03760364651679993,-0.08944821357727051
-0.05632035806775093,-0.0954182893037796,0.14255382120609283,-0.039780519902706146,0.043009936809539795,-0.06310468912124634
0.048741307109594345,-0.08530166000127792,0.04539772495627403,-0.04501698911190033,0.04843507707118988,-0.050275981426239014
0.2374139279127121,-0.031072381883859634,-0.050714269280433655,-0.04125293344259262,0.05625085532665253,-0.021543383598327637
0.35809561610221863,-0.026108374819159508,-0.129858136177063,-0.022579267621040344,0.06512179970741272,0.03331470489501953
0.3215843737125397,-0.032324109226465225,-0.17866097390651703,-0.019222237169742584,0.06537933647632599,0.08959704637527466
0.1834309697151184,0.004839018918573856,-0.22537761926651,-0.018243320286273956,0.06173679232597351,0.1024211049079895
0.06207728385925293,0.010368145070970058,-0.26111894845962524,-0.006689585745334625,0.06832659244537354,0.0775027871131897
-0.005919984076172113,0.011261451058089733,-0.29297611117362976,-0.018289558589458466,0.06847396492958069,0.04803967475891113
-0.008750722743570805,0.0016044602962210774,-0.36432039737701416,-0.05536997318267822,0.0597873330116272,0.03445017337799072
0.013958582654595375,-0.05253820866346359,-0.4719211161136627,-0.08740262687206268,0.06413529813289642,0.047033071517944336
0.016825037077069283,-0.10558459907770157,-0.6232877373695374,-0.11211059987545013,0.06784090399742126,0.08620613813400269
-0.029423551633954048,-0.10790374130010605,-0.769953191280365,-0.12271536886692047,0.05761200189590454,0.12484776973724365
-0.08794227242469788,-0.024030881002545357,-0.8665472269058228,-0.1301196813583374,0.030239760875701904,0.13805097341537476
-0.14648912847042084,0.055552851408720016,-0.8997427225112915,-0.118134044110775,0.015801385045051575,0.12357723712921143
-0.20161345601081848,0.05983656644821167,-0.9102164506912231,-0.10695220530033112,0.027899712324142456,0.0896233320236206
-0.22742685675621033,-0.03296973928809166,-0.9727530479431152,-0.11907096952199936,0.0401645302772522,0.051543235778808594
-0.21991242468357086,-0.1816912740468979,-1.0783212184906006,-0.12823547422885895,0.047301992774009705,0.03029632568359375
-0.21026626229286194,-0.2726409435272217,-1.1879453659057617,-0.12605269253253937,0.05322183668613434,0.0462152361869812
-0.2391766756772995,-0.26984477043151855,-1.266356348991394,-0.10807393491268158,0.04712945222854614,0.0704839825630188
-0.2625392973423004,-0.23300889134407043,-1.3045746088027954,-0.09469829499721527,0.04356452822685242,0.08008283376693726
-0.2783866822719574,-0.1970536857843399,-1.3388495445251465,-0.09490516781806946,0.044647037982940674,0.08177435398101807
-0.2882442772388458,-0.19409652054309845,-1.3998984098434448,-0.098271943628788,0.046040281653404236,0.06794458627700806
-0.27642717957496643,-0.21917200088500977,-1.4723639488220215,-0.09655545651912689,0.043543145060539246,0.033004939556121826
-0.2415676862001419,-0.2574869394302368,-1.5302966833114624,-0.08143174648284912,0.03893639147281647,0.004603326320648193
-0.1798703372478485,-0.26807117462158203,-1.5595383644104004,-0.06206889450550079,0.0368046760559082,-0.02313464879989624
-0.12697188556194305,-0.2873944044113159,-1.5425975322723389,-0.036931395530700684,0.03258006274700165,-0.037020981311798096
-0.11142163723707199,-0.32250720262527466,-1.4812886714935303,-0.028848111629486084,0.022917553782463074,-0.04719275236129761
-0.12341128289699554,-0.34554192423820496,-1.4189976453781128,-0.031332649290561676,0.02461889386177063,-0.06947863101959229
-0.11272348463535309,-0.4244539141654968,-1.3886417150497437,-0.03253261744976044,0.04023520648479462,-0.10410195589065552
-0.053449470549821854,-0.5584794282913208,-1.3764714002609253,-0.034451089799404144,0.056864604353904724,-0.12448042631149292
0.05240906402468681,-0.6526457667350769,-1.390008568763733,-0.043609753251075745,0.06262719631195068,-0.1017795205116272
0.06720428913831711,-0.6341487765312195,-1.3994730710983276,-0.06820427626371384,0.05277833342552185,-0.03101527690887451
-0.05493795499205589,-0.4577432870864868,-1.410213828086853,-0.08884690701961517,0.04042983055114746,0.00774461030960083
-0.21641750633716583,-0.26424485445022583,-1.3928754329681396,-0.07580532133579254,0.044863566756248474,-0.0390583872795105
-0.26266488432884216,-0.25513991713523865,-1.3310984373092651,-0.049069494009017944,0.07774975895881653,-0.13773685693740845
-0.19235654175281525,-0.4127110242843628,-1.3060840368270874,-0.05661527067422867,0.10320296883583069,-0.1922776699066162
-0.11702577769756317,-0.5791649222373962,-1.3630622625350952,-0.08530720323324203,0.13040441274642944,-0.17847442626953125
-0.10486550629138947,-0.6320356130599976,-1.4703608751296997,-0.08839131891727448,0.1556256115436554,-0.11103534698486328
-0.11316277831792831,-0.5797237157821655,-1.5703010559082031,-0.07749531418085098,0.16063804924488068,-0.04547774791717529
-0.05558571591973305,-0.4476616680622101,-1.624996304512024,-0.06602013856172562,0.1517626941204071,0.00047665834426879883
-0.0072943828999996185,-0.2947165369987488,-1.6295126676559448,-0.05736306309700012,0.14980730414390564,0.044735848903656006
-0.043463822454214096,-0.21720372140407562,-1.6104780435562134,-0.049107372760772705,0.1538855880498886,0.08066576719284058
-0.10992388427257538,-0.20951494574546814,-1.5857206583023071,-0.05630997568368912,0.15453632175922394,0.09509080648422241
-0.18769747018814087,-0.20502188801765442,-1.53751802444458,-0.06370974332094193,0.1620711237192154,0.09596216678619385
-0.2823694944381714,-0.23242442309856415,-1.4982514381408691,-0.07255958020687103,0.16891247034072876,0.0818173885345459
-0.3521770238876343,-0.2746359705924988,-1.4893659353256226,-0.07513798028230667,0.17061953246593475,0.04569375514984131
-0.33812326192855835,-0.3066343665122986,-1.486865758895874,-0.07609318196773529,0.16002115607261658,0.003247857093811035
-0.27326229214668274,-0.31931936740875244,-1.4719985723495483,-0.0776933878660202,0.14673177897930145,-0.01561284065246582
-0.23555301129817963,-0.34271666407585144,-1.4418001174926758,-0.07439273595809937,0.1362040489912033,-0.010659396648406982
-0.20706787705421448,-0.3870469927787781,-1.4157817363739014,-0.07727863639593124,0.12662164866924286,0.008469879627227783
-0.21369794011116028,-0.4165271520614624,-1.3755347728729248,-0.07253803312778473,0.12354776263237,0.0406191349029541
-0.2669948637485504,-0.39794841408729553,-1.3532240390777588,-0.07044732570648193,0.1147616058588028,0.06542843580245972
-0.29296886920928955,-0.343558132648468,-1.3355536460876465,-0.07784578204154968,0.10267005860805511,0.07022899389266968
-0.28121763467788696,-0.2808355391025543,-1.2983523607254028,-0.07561051100492477,0.09145177900791168,0.06335979700088501
-0.2956652045249939,-0.2076103687286377,-1.2377032041549683,-0.0723976194858551,0.08492974936962128,0.057007551193237305
-0.30533066391944885,-0.17393895983695984,-1.1864707469940186,-0.07503141462802887,0.07926447689533234,0.028445839881896973
-0.2535814642906189,-0.20850904285907745,-1.1404330730438232,-0.07576040178537369,0.08255501091480255,-0.0029422640800476074
-0.1946069598197937,-0.2326342910528183,-1.1289118528366089,-0.08643630146980286,0.08128316700458527,-0.0036519765853881836
-0.19386392831802368,-0.22423456609249115,-1.1108381748199463,-0.08154807239770889,0.07695695757865906,0.011640191078186035
-0.20372381806373596,-0.1993928849697113,-1.0946940183639526,-0.07422295212745667,0.06096057593822479,0.005355536937713623
-0.1518339067697525,-0.1250317394733429,-1.0297216176986694,-0.05994348227977753,0.042389705777168274,-0.016006767749786377
-0.07433395832777023,-0.037492915987968445,-0.9465150237083435,-0.059856899082660675,0.02765120565891266,-0.03409159183502197
-0.025673208758234978,0.0024667521938681602,-0.8816819190979004,-0.060625746846199036,0.034306928515434265,-0.05148136615753174
0.0008397717028856277,-0.05973095819354057,-0.8402034640312195,-0.05255207419395447,0.04473640024662018,-0.058001577854156494
-0.005627835169434547,-0.10626145452260971,-0.7918127775192261,-0.052224934101104736,0.049173250794410706,-0.04201287031173706
-0.026564622297883034,-0.07964878529310226,-0.7501606345176697,-0.06016989052295685,0.03974044322967529,-0.02994358539581299
-0.028591513633728027,0.022833872586488724,-0.736361563205719,-0.07823427021503448,0.020595207810401917,-0.044475257396698
-0.03980161249637604,0.20274728536605835,-0.6997261047363281,-0.06225544214248657,0.01332862675189972,-0.0847669243812561
-0.0817101001739502,0.33946654200553894,-0.5999545454978943,-0.006238684058189392,0.03584079444408417,-0.17082417011260986
-0.06166784092783928,0.21527235209941864,-0.4883168041706085,-0.006697297096252441,0.03159873187541962,-0.2549787759780884
0.00826404057443142,-0.09024878591299057,-0.44821128249168396,-0.04076375812292099,0.05034583806991577,-0.26630228757858276
0.07300376147031784,-0.4373216927051544,-0.5317501425743103,-0.05970567464828491,0.06997248530387878,-0.19488632678985596
0.15607811510562897,-0.660621166229248,-0.680389940738678,-0.04877752065658569,0.06816361844539642,-0.06205761432647705
0.19978927075862885,-0.6478049159049988,-0.733936071395874,-0.014812096953392029,0.04394286870956421,0.0824664831161499
0.18472281098365784,-0.4471200108528137,-0.6847351789474487,0.01979362964630127,0.015009582042694092,0.17776328325271606
0.14368616044521332,-0.1335780769586563,-0.5568962693214417,0.03704585134983063,-0.005997747182846069,0.21679836511611938
0.11100374162197113,0.1994374394416809,-0.4193226993083954,0.020285747945308685,-7.520616054534912e-05,0.1893068552017212
0.06933121383190155,0.31131768226623535,-0.3547821640968323,-0.004485487937927246,0.040532782673835754,0.11858981847763062
-0.011604645289480686,0.13952606916427612,-0.39025819301605225,-0.024943538010120392,0.07846617698669434,0.04281926155090332
-0.05139825493097305,-0.08530591428279877,-0.5201436877250671,-0.04955639690160751,0.09844988584518433,-0.02371317148208618
-0.04123983904719353,-0.1376975029706955,-0.6590177416801453,-0.039768487215042114,0.10922452807426453,-0.06706351041793823
-0.033405378460884094,-0.08359099924564362,-0.7623339295387268,-0.00897977501153946,0.11200465261936188,-0.0882641077041626
-0.01287272572517395,-0.01354257483035326,-0.8442826271057129,-0.019778884947299957,0.10130274295806885,-0.09855878353118896
0.031896185129880905,-0.08744404464960098,-0.9263765215873718,-0.03944755345582962,0.09888897836208344,-0.08129936456680298
0.053770098835229874,-0.26569652557373047,-1.049961805343628,-0.06979235261678696,0.09991347789764404,-0.009670794010162354
0.0025239940732717514,-0.3426586985588074,-1.180893898010254,-0.09029603749513626,0.09040863811969757,0.08381527662277222
-0.0628906786441803,-0.2838227450847626,-1.292492151260376,-0.09654548764228821,0.0651082992553711,0.1431119441986084
-0.08943218737840652,-0.12934039533138275,-1.3420870304107666,-0.0989949181675911,0.03680361807346344,0.16092348098754883
-0.1147562563419342,0.0003827516920864582,-1.360172152519226,-0.1031704917550087,0.018481865525245667,0.16285502910614014
-0.1737266331911087,0.06858349591493607,-1.3734387159347534,-0.11124911159276962,0.019762501120567322,0.14828968048095703
-0.2510697543621063,-0.00482799531891942,-1.4003872871398926,-0.11658016592264175,0.036627382040023804,0.11365967988967896
-0.28187254071235657,-0.14735130965709686,-1.4666237831115723,-0.12183529883623123,0.054322049021720886,0.07664525508880615
-0.30091890692710876,-0.20884937047958374,-1.5110384225845337,-0.11329352855682373,0.05945459008216858,0.05388075113296509
-0.3459828794002533,-0.1787927746772766,-1.5482789278030396,-0.10482287406921387,0.05372978746891022,0.010752439498901367
-0.3209170699119568,-0.16394950449466705,-1.5979819297790527,-0.10649064183235168,0.05455486476421356,-0.05933195352554321
-0.2495632916688919,-0.20622973144054413,-1.6474720239639282,-0.11145564913749695,0.054906874895095825,-0.11164218187332153
-0.14885519444942474,-0.34872904419898987,-1.7124778032302856,-0.11331721395254135,0.0497426837682724,-0.13593697547912598
-0.07827673852443695,-0.5330790877342224,-1.758000135421753,-0.09010206162929535,0.06204943358898163,-0.11495953798294067
-0.08038599044084549,-0.6274784207344055,-1.7927314043045044,-0.0749143734574318,0.062016576528549194,-0.06354761123657227
-0.09896162152290344,-0.5817213654518127,-1.8251447677612305,-0.06210305914282799,0.060877785086631775,-0.03253215551376343
-0.08219031244516373,-0.4883180260658264,-1.8548078536987305,-0.04495522752404213,0.06778575479984283,-0.03807574510574341
-0.04613129049539566,-0.4573131799697876,-1.8807852268218994,-0.034483250230550766,0.08055128157138824,-0.04817992448806763
-0.018766406923532486,-0.47549599409103394,-1.9338816404342651,-0.03547043725848198,0.09194189310073853,-0.05386072397232056
0.010494876652956009,-0.5406203269958496,-1.9937514066696167,-0.026240356266498566,0.11201876401901245,-0.042450785636901855
0.022034844383597374,-0.6192053556442261,-2.0519418716430664,-0.012798655778169632,0.12778666615486145,-0.0036885738372802734
-0.010101174004375935,-0.6519156098365784,-2.066689968109131,-0.000384405255317688,0.13239876925945282,0.057992756366729736
-0.12649394571781158,-0.5373263359069824,-1.997343897819519,0.003117106854915619,0.1253795623779297,0.10791540145874023
-0.29161328077316284,-0.296428382396698,-1.8940041065216064,-0.01996316760778427,0.11403051018714905,0.10953664779663086
-0.37022462487220764,-0.11258061975240707,-1.8023654222488403,-0.034953854978084564,0.12811560928821564,0.020137429237365723
-0.33923372626304626,-0.1779671013355255,-1.7503958940505981,-0.06974675506353378,0.1519586443901062,-0.06454914808273315
-0.30642297863960266,-0.33037954568862915,-1.7713584899902344,-0.10763770341873169,0.16347531974315643,-0.08311885595321655
-0.31964629888534546,-0.43795838952064514,-1.8059985637664795,-0.11421972513198853,0.16410651803016663,-0.06348425149917603
-0.3549240529537201,-0.44539469480514526,-1.8163610696792603,-0.09820325672626495,0.16101562976837158,-0.046012699604034424
-0.3439088463783264,-0.45045459270477295,-1.7938376665115356,-0.08008552342653275,0.15749359130859375,-0.04185748100280762
-0.2749372720718384,-0.49320289492607117,-1.756931185722351,-0.07809208333492279,0.14927677810192108,-0.021414875984191895
-0.23346193134784698,-0.5518565773963928,-1.7247345447540283,-0.0892391949892044,0.13662229478359222,0.04172450304031372
-0.2696897089481354,-0.5186211466789246,-1.7273964881896973,-0.1082209050655365,0.13425131142139435,0.10547447204589844
-0.3275523781776428,-0.41659629344940186,-1.746719479560852,-0.11653117090463638,0.1262301504611969,0.13476985692977905
-0.3639323115348816,-0.2645845115184784,-1.764581322669983,-0.1162860095500946,0.11902503669261932,0.12190616130828857
-0.38265663385391235,-0.14066404104232788,-1.764121413230896,-0.11023154109716415,0.10858479142189026,0.090495765209198
-0.38298219442367554,-0.060567520558834076,-1.7399497032165527,-0.10971584916114807,0.0958152711391449,0.04247409105300903
-0.3735124170780182,-0.07799740135669708,-1.6941567659378052,-0.09903492033481598,0.08987438678741455,-0.0006753802299499512
-0.3843865990638733,-0.12644080817699432,-1.6141390800476074,-0.0826861634850502,0.0866747796535492,-0.01886659860610962
-0.4264194667339325,-0.10065332055091858,-1.5304765701293945,-0.08766988664865494,0.0834895670413971,-0.04285383224487305
-0.42024898529052734,-0.06906185299158096,-1.4898496866226196,-0.10170403122901917,0.0734301507472992,-0.09283435344696045
-0.3215499818325043,-0.10804709047079086,-1.4464027881622314,-0.10712028294801712,0.07342882454395294,-0.12656253576278687
-0.2230474203824997,-0.19257792830467224,-1.4249261617660522,-0.11699866503477097,0.07207535207271576,-0.11534988880157471
-0.19632627069950104,-0.27504098415374756,-1.4277456998825073,-0.11376647651195526,0.07866005599498749,-0.06405782699584961
-0.1984008401632309,-0.3170327842235565,-1.4450428485870361,-0.10255017131567001,0.07725855708122253,-0.023956894874572754
-0.1769203245639801,-0.32877764105796814,-1.449816107749939,-0.08853140473365784,0.0628359243273735,0.011029243469238281
-0.1523449569940567,-0.23299528658390045,-1.4285818338394165,-0.06909249722957611,0.04573466628789902,0.02649456262588501
-0.10581137984991074,-0.185373455286026,-1.3992226123809814,-0.04917365685105324,0.029527708888053894,0.03596484661102295
-0.08155455440282822,-0.1358148157596588,-1.3128626346588135,-0.03490586206316948,0.018009141087532043,0.04068410396575928
-0.06886279582977295,-0.16886699199676514,-1.2320562601089478,-0.02270454540848732,-0.004906713962554932,0.0411185622215271
-0.06359349191188812,-0.1496436446905136,-1.116562843322754,-0.01818723976612091,-0.017769165337085724,0.058153748512268066
-0.09233511984348297,-0.048565756529569626,-0.9768156409263611,-0.017420694231987,-0.030839920043945312,0.059829890727996826
-0.10522376000881195,0.0480373278260231,-0.8602102994918823,-0.02120138332247734,-0.03533113747835159,0.027640819549560547
-0.05561358109116554,0.1363755315542221,-0.7209869623184204,-0.022066816687583923,-0.030258744955062866,-0.020621001720428467
-0.007677469402551651,0.09255874902009964,-0.5976737141609192,-0.0353042334318161,-0.023934774100780487,-0.05744779109954834
-0.009298130869865417,0.0157102569937706,-0.505166232585907,-0.050916943699121475,-0.006065934896469116,-0.06506723165512085
0.006776304449886084,-0.07434768229722977,-0.45179104804992676,-0.07423949241638184,0.0001695007085800171,-0.06180119514465332
0.05037888512015343,-0.12887151539325714,-0.4406493902206421,-0.09379889070987701,-0.0044821202754974365,-0.05101114511489868
0.015528173185884953,-0.022021280601620674,-0.40950673818588257,-0.08644478768110275,-0.003599889576435089,-0.02412891387939453
-0.06134713813662529,0.15712308883666992,-0.361795037984848,-0.07943147420883179,-0.00451447069644928,-0.048760294914245605
-0.040807098150253296,0.1589137762784958,-0.3325594365596771,-0.06589601933956146,0.014159373939037323,-0.12482565641403198
0.06911175698041916,-0.02117818035185337,-0.33601176738739014,-0.06568248569965363,0.03542381525039673,-0.16809630393981934
0.1477297693490982,-0.20911316573619843,-0.36582961678504944,-0.06866540014743805,0.041754350066185,-0.11564290523529053
0.11745339632034302,-0.2197420299053192,-0.3998061716556549,-0.053868379443883896,0.034949347376823425,-0.027649521827697754
0.06976047903299332,-0.10912734270095825,-0.3811168968677521,-0.025195516645908356,0.018693923950195312,0.018202483654022217
0.09232831001281738,-0.032979488372802734,-0.3250913918018341,-0.013979978859424591,-0.0010873973369598389,0.02237778902053833
0.1350441426038742,-0.014219366945326328,-0.2679016888141632,-0.016914930194616318,-0.00327339768409729,0.03381752967834473
0.11720941215753555,-0.01914397068321705,-0.2583341598510742,-0.031306397169828415,-0.004745602607727051,0.04555231332778931
0.08325197547674179,-0.03679726645350456,-0.2926785349845886,-0.03647394850850105,0.00741983950138092,0.028873085975646973
0.1169266402721405,-0.04357856884598732,-0.3525432348251343,-0.029159538447856903,0.013472184538841248,-0.009695827960968018
0.1865529865026474,-0.08489992469549179,-0.39545002579689026,-0.010114770382642746,0.0142488032579422,-0.02724665403366089
0.2523074448108673,-0.11590331792831421,-0.40355485677719116,0.011632062494754791,0.015728577971458435,-0.01909172534942627
0.24719983339309692,-0.1490008682012558,-0.3652583062648773,0.03449568152427673,0.03236667811870575,0.013150393962860107
0.16334214806556702,-0.17767789959907532,-0.33500486612319946,0.036490894854068756,0.04591695964336395,0.04300427436828613
0.04820480942726135,-0.18578454852104187,-0.3356722891330719,0.024883121252059937,0.06039641797542572,0.04832017421722412
-0.005821976810693741,-0.15739372372627258,-0.41635388135910034,0.007278069853782654,0.07074528932571411,0.01806926727294922
0.019287528470158577,-0.13566187024116516,-0.5526567697525024,0.0060760267078876495,0.08515942096710205,-0.005702495574951172
0.08019465208053589,-0.11520253121852875,-0.7198949456214905,0.0015594176948070526,0.08606298267841339,-0.004685938358306885
0.08883310854434967,-0.09663337469100952,-0.8607411980628967,0.006176840513944626,0.06428313255310059,0.03231537342071533
0.02009722776710987,-0.11963562667369843,-0.925466775894165,0.020964443683624268,0.030596941709518433,0.07441860437393188
-0.0841580405831337,-0.10202832520008087,-0.9040274620056152,0.03207719326019287,-0.00467294454574585,0.10236740112304688
-0.18321359157562256,-0.01349983736872673,-0.8653113842010498,0.030445285141468048,-0.017432495951652527,0.10753375291824341
-0.21979311108589172,0.05666071176528931,-0.8486353754997253,0.030539825558662415,-0.022317036986351013,0.089588463306427
-0.16322584450244904,0.060286398977041245,-0.8661666512489319,0.025126531720161438,-0.018101587891578674,0.05182766914367676
-0.06670012325048447,0.013132859021425247,-0.8948922753334045,0.003603767603635788,-0.018383339047431946,0.027845799922943115
-0.05313665792346001,-0.06618986278772354,-0.8613682389259338,0.006232433021068573,-0.02188698947429657,0.047640442848205566
-0.1363675594329834,-0.09811306744813919,-0.7855485081672668,0.018229026347398758,-0.033345431089401245,0.09217232465744019
-0.22695393860340118,-0.06944796442985535,-0.6936594843864441,0.02574259415268898,-0.038484275341033936,0.11480838060379028
-0.22848013043403625,-0.04311791807413101,-0.6350454688072205,0.016947343945503235,-0.042327284812927246,0.09247219562530518
-0.1631215512752533,-0.06687067449092865,-0.6486669778823853,-0.008600655943155289,-0.03231219947338104,0.05693322420120239
-0.1151970624923706,-0.11665645986795425,-0.6947224736213684,-0.03016725555062294,-0.02093726396560669,0.04551374912261963
-0.12386348843574524,-0.16669388115406036,-0.720355749130249,-0.03370431810617447,-0.026534855365753174,0.05851304531097412
-0.18205079436302185,-0.20399723947048187,-0.6844749450683594,-0.017385322600603104,-0.045048102736473083,0.06995415687561035
-0.22067059576511383,-0.20153921842575073,-0.6338297724723816,-0.007397688925266266,-0.06722740828990936,0.06654667854309082
-0.21601906418800354,-0.1988479048013687,-0.6145336031913757,-0.012345008552074432,-0.0768989622592926,0.04098993539810181
-0.18630026280879974,-0.22940455377101898,-0.6468443870544434,-0.022299475967884064,-0.07473033666610718,0.01107853651046753
-0.1331835240125656,-0.2392379343509674,-0.697115957736969,-0.023201685398817062,-0.08142077922821045,-0.012295305728912354
-0.06085972860455513,-0.2292456477880478,-0.7388739585876465,-0.015874993056058884,-0.0871279239654541,-0.03867924213409424
0.002563741523772478,-0.23057310283184052,-0.7169742584228516,0.01869717240333557,-0.08834268152713776,-0.05956238508224487
0.037305187433958054,-0.25668686628341675,-0.6430784463882446,0.06048925593495369,-0.0842377245426178,-0.07479965686798096
0.06638288497924805,-0.2861185371875763,-0.5537928342819214,0.08286354690790176,-0.08485542237758636,-0.0818738341331482
0.11205682158470154,-0.39486441016197205,-0.45443135499954224,0.09406181424856186,-0.07951821386814117,-0.08420902490615845
0.14964523911476135,-0.514178991317749,-0.3837015926837921,0.09067951887845993,-0.0688048005104065,-0.06213194131851196
0.06506551802158356,-0.45994478464126587,-0.2914617359638214,0.05193763226270676,-0.08340790867805481,0.027322053909301758
-0.1037672683596611,-0.22490617632865906,-0.1895143836736679,0.05763161927461624,-0.08047078549861908,0.02666032314300537
-0.19079379737377167,-0.043840065598487854,-0.035731930285692215,0.07269901037216187,-0.0560341477394104,-0.05796456336975098
-0.165731742978096,-0.014260266907513142,0.07950299978256226,0.03433404117822647,-0.027122780680656433,-0.1537994146347046
-0.11651606112718582,-0.04889537766575813,0.07013535499572754,-0.017058275640010834,0.012525081634521484,-0.20898962020874023
-0.05797593295574188,-0.1537303626537323,-0.03154764696955681,-0.05136222392320633,0.05504225194454193,-0.2265937328338623
0.08119964599609375,-0.3646461069583893,-0.19098718464374542,-0.062018319964408875,0.08794829249382019,-0.20073843002319336
0.23736855387687683,-0.6204875111579895,-0.31884193420410156,-0.04418113827705383,0.10387733578681946,-0.08775240182876587
0.2905460596084595,-0.6456678509712219,-0.37265050411224365,-0.01996023952960968,0.09234774112701416,0.05926460027694702
0.23974543809890747,-0.44288378953933716,-0.3696838319301605,0.0013045966625213623,0.08022591471672058,0.1559351086616516
0.08873462677001953,-0.013801896013319492,-0.3584451973438263,0.0015841424465179443,0.08058534562587738,0.17729008197784424
-0.042908936738967896,0.3289541006088257,-0.35965830087661743,0.009053975343704224,0.09416526556015015,0.08473634719848633
-0.020551003515720367,0.3437374234199524,-0.34670132398605347,0.04617314785718918,0.12034839391708374,-0.04827547073364258
0.07084297388792038,0.16401146352291107,-0.2831420302391052,0.07008561491966248,0.14391747117042542,-0.11646968126296997
0.1219048723578453,-0.12016564607620239,-0.2287880778312683,0.07339692115783691,0.14588434994220734,-0.11377239227294922
0.08470893651247025,-0.3400138020515442,-0.17662785947322845,0.06555885076522827,0.13271455466747284,-0.04755234718322754
0.014692550525069237,-0.3719293177127838,-0.15926304459571838,0.05686037242412567,0.11312463879585266,0.025054752826690674
0.013475276529788971,-0.24817202985286713,-0.16860438883304596,0.05113700032234192,0.09608924388885498,0.07520818710327148
0.048416104167699814,0.004690472036600113,-0.175462543964386,0.04386802017688751,0.07991975545883179,0.10264962911605835
0.07842924445867538,0.17515765130519867,-0.17063158750534058,0.042053788900375366,0.05454377830028534,0.08296072483062744
0.10769238322973251,0.13406211137771606,-0.12822285294532776,0.03610050678253174,0.050832316279411316,0.05384606122970581
0.06272640079259872,-0.020693568512797356,-0.09557904303073883,0.022292211651802063,0.042256444692611694,0.05596572160720825
0.0009243427775800228,-0.09797220677137375,-0.07276029884815216,0.011386394500732422,0.02265220880508423,0.06512951850891113
-0.011459410190582275,-0.04878516122698784,-0.028966234996914864,0.013296708464622498,0.009645983576774597,0.06410235166549683
0.015225546434521675,0.06121009588241577,0.02346121147274971,0.0030316710472106934,-0.004612088203430176,0.05689895153045654
0.026172440499067307,0.11838220059871674,0.05713457986712456,-0.012473911046981812,-0.007280007004737854,0.04935663938522339
0.01321103423833847,0.08801539242267609,0.056009843945503235,-0.025234311819076538,0.00012837350368499756,0.03834813833236694
-0.007291030138731003,0.004242371767759323,0.04910220205783844,-0.02705708146095276,0.0010418444871902466,0.03593742847442627
-0.04261443763971329,-0.005107226315885782,0.06604627519845963,-0.026767954230308533,-0.006927609443664551,0.041426777839660645
-0.06126752868294716,0.05849863961338997,0.06962166726589203,-0.029622480273246765,-0.01064850389957428,0.03810936212539673
-0.04175172373652458,0.09481203556060791,0.051224712282419205,-0.034377552568912506,-0.0034269243478775024,0.02763521671295166
-0.026282288134098053,0.08249156922101974,0.006132474169135094,-0.04247310012578964,0.002642884850502014,0.02980494499206543
-0.041080791503190994,0.053594596683979034,-0.06903119385242462,-0.05055032670497894,-0.0010325759649276733,0.03261911869049072
-0.05111236125230789,0.04595918580889702,-0.12052186578512192,-0.045529164373874664,-0.014754921197891235,0.035358428955078125
-0.05135749652981758,0.06004349887371063,-0.13411743938922882,-0.033997729420661926,-0.03549852967262268,0.043234169483184814
-0.06409554183483124,0.11553053557872772,-0.10478631407022476,-0.02449149638414383,-0.04934057593345642,0.05503201484680176
-0.0979633778333664,0.1760759949684143,-0.05856453999876976,-0.02582545578479767,-0.05744524300098419,0.05702763795852661
-0.1454414576292038,0.21949535608291626,-0.04169385880231857,-0.041211992502212524,-0.057556867599487305,0.034896016120910645
-0.14643195271492004,0.19576454162597656,-0.06099961698055267,-0.05525343120098114,-0.05295245349407196,-0.009413719177246094
-0.08533310145139694,0.15274156630039215,-0.09482647478580475,-0.05833389610052109,-0.05056162178516388,-0.04194861650466919
-0.04896843433380127,0.13898341357707977,-0.1332004815340042,-0.05610915273427963,-0.056934654712677,-0.04568338394165039
-0.01526577491313219,0.16166050732135773,-0.1499764770269394,-0.03760078549385071,-0.06363944709300995,-0.05264902114868164
0.02932802215218544,0.1805870234966278,-0.12106834352016449,-0.01870700716972351,-0.06271158158779144,-0.056575000286102295
0.06604249775409698,0.1659288853406906,-0.0910336822271347,-0.013346917927265167,-0.05876237154006958,-0.054075777530670166
0.09915858507156372,0.11175523698329926,-0.09019209444522858,-0.0034744814038276672,-0.046739280223846436,-0.04240065813064575
0.1230485662817955,0.08529921621084213,-0.07002827525138855,0.0027338936924934387,-0.048983752727508545,-0.01518028974533081
0.03609521687030792,0.2643539607524872,-0.010607303120195866,0.00856982171535492,-0.05502787232398987,-0.002413630485534668
-0.047590889036655426,0.3657066822052002,0.05963649973273277,0.04178716242313385,-0.03710073232650757,-0.06740003824234009
0.04196423664689064,0.25853264331817627,0.14762364327907562,0.04597635567188263,-0.0031887441873550415,-0.1439945101737976
0.1978427916765213,0.017903104424476624,0.15272536873817444,0.0073576420545578,0.0067190974950790405,-0.11724156141281128
0.15812619030475616,-0.0025946926325559616,0.13419665396213531,0.0024958401918411255,0.025012359023094177,-0.009634613990783691
0.026413390412926674,0.14334043860435486,0.13766981661319733,0.01752687245607376,0.020098894834518433,0.024207115173339844
0.03755723685026169,0.22434242069721222,0.19822818040847778,0.026513822376728058,0.02649742364883423,-0.020955443382263184
0.17396971583366394,0.1592540144920349,0.23258857429027557,0.007924087345600128,0.0450080931186676,-0.04450416564941406
0.2478605955839157,0.022699745371937752,0.19154809415340424,-0.010587498545646667,0.06986072659492493,-0.011833429336547852
0.24236147105693817,-0.09414930641651154,0.09832340478897095,-0.020881295204162598,0.08599364757537842,0.026536405086517334
0.23041702806949615,-0.08075311779975891,0.0028693112544715405,-0.018827833235263824,0.07909415662288666,0.04950052499771118
0.18335959315299988,0.0497010312974453,-0.007859683595597744,0.013946600258350372,0.06802234053611755,0.0587315559387207
0.11011781543493271,0.15894527733325958,0.056395187973976135,0.03858468681573868,0.056421905755996704,0.03285163640975952
0.06347944587469101,0.1270250678062439,0.1462964117527008,0.02920449525117874,0.051259830594062805,-0.013085544109344482
0.04939262568950653,-0.018109289929270744,0.15455986559391022,-0.00855967402458191,0.06361216306686401,-0.04248911142349243
0.06178709492087364,-0.19100157916545868,0.047833673655986786,-0.03689969331026077,0.07419449090957642,-0.030820906162261963
0.0848662480711937,-0.30368489027023315,-0.07914171367883682,-0.05112730711698532,0.05998606979846954,0.016808629035949707
0.058535873889923096,-0.2817382216453552,-0.17783093452453613,-0.04610545188188553,0.026899248361587524,0.07438158988952637
0.060585469007492065,-0.13088469207286835,-0.238240048289299,-0.026335813105106354,-0.0014207810163497925,0.10021823644638062
0.0953759104013443,0.05065954104065895,-0.25108659267425537,0.004621841013431549,-0.005583241581916809,0.09592574834823608
0.09167692810297012,0.09720444679260254,-0.2300368845462799,0.02413836121559143,-0.012097030878067017,0.08520007133483887
0.02048533782362938,0.016778497025370598,-0.17814093828201294,0.031082503497600555,-0.0177907794713974,0.08231145143508911
-0.067927785217762,-0.09127353131771088,-0.13028089702129364,0.0316152423620224,-0.014606744050979614,0.08039635419845581
-0.12196322530508041,-0.13831163942813873,-0.11342304199934006,0.02603677660226822,-0.014569088816642761,0.07134252786636353
-0.11570244282484055,-0.15739858150482178,-0.11417757719755173,0.0189456045627594,-0.02298504114151001,0.06170684099197388
-0.07725841552019119,-0.13024529814720154,-0.13367779552936554,0.007153749465942383,-0.03182080388069153,0.05859827995300293
-0.04406308755278587,-0.0756014809012413,-0.15978781878948212,0.002392694354057312,-0.03681910037994385,0.06743127107620239
-0.03823001682758331,-0.050221532583236694,-0.184212327003479,0.009522639214992523,-0.03884713351726532,0.0687401294708252
-0.041910506784915924,-0.06061745062470436,-0.18790826201438904,0.012628182768821716,-0.04731681942939758,0.06678956747055054
-0.06635042279958725,-0.08150642365217209,-0.17550085484981537,0.02214162051677704,-0.06263543665409088,0.06226658821105957
-0.0704742968082428,-0.07338454574346542,-0.12102960050106049,0.03325074911117554,-0.06917992234230042,0.04315072298049927
-0.05328157916665077,-0.05193397030234337,-0.07705733925104141,0.023866690695285797,-0.07106593251228333,0.02304285764694214
-0.03401577100157738,-0.034994736313819885,-0.07048153132200241,0.011892043054103851,-0.06588985025882721,-0.0005332231521606445
-0.0030231093987822533,-0.06358425319194794,-0.07158929854631424,0.013685345649719238,-0.060318827629089355,-0.032232046127319336
0.031173013150691986,-0.12783078849315643,-0.07261133939027786,0.01580231636762619,-0.06042258441448212,-0.04500603675842285
0.03137414529919624,-0.1784471720457077,-0.04717445373535156,0.02263934165239334,-0.06570534408092499,-0.03635483980178833
0.024142557755112648,-0.20243483781814575,-0.008275805041193962,0.028622999787330627,-0.06555390357971191,-0.034857094287872314
0.052345432341098785,-0.20903468132019043,0.025088010355830193,0.035110220313072205,-0.05994735658168793,-0.03522658348083496
0.08030268549919128,-0.21216420829296112,0.05045709013938904,0.04110392928123474,-0.0403423011302948,-0.020665764808654785
0.06532783806324005,-0.20982471108436584,0.07484646886587143,0.02162579447031021,-0.04437537491321564,0.010938584804534912
-0.03547428175806999,-0.030531365424394608,0.09776035696268082,-0.00029137730598449707,-0.04751907289028168,0.014838695526123047
-0.13245001435279846,0.05715518817305565,0.08525902777910233,0.012379683554172516,-0.03084142506122589,-0.04738885164260864
-0.12196193635463715,-0.0257090013474226,0.11213652044534683,0.034458257257938385,-0.011983305215835571,-0.12744194269180298
-0.04898899048566818,-0.15157142281532288,0.16260893642902374,0.033231399953365326,-0.012842461466789246,-0.14580780267715454
-0.02918759547173977,-0.19241435825824738,0.21491794288158417,0.03803589940071106,0.0005092471837997437,-0.1136939525604248
-0.043246421962976456,-0.19591854512691498,0.2420443594455719,0.03362163156270981,0.017579257488250732,-0.07746315002441406
-0.0635070726275444,-0.18688872456550598,0.2500763535499573,0.01813483238220215,0.02615511417388916,-0.05092817544937134
-0.0839308649301529,-0.18223664164543152,0.22614295780658722,0.006123974919319153,0.03334146738052368,-0.036702096462249756
-0.056196097284555435,-0.18737460672855377,0.16345663368701935,0.006281495094299316,0.04548296332359314,-0.0401691198348999
0.03457549214363098,-0.2158542275428772,0.07093992829322815,0.0066331177949905396,0.05349700152873993,-0.0277864933013916
0.11700646579265594,-0.1655764877796173,-0.016212180256843567,0.008163854479789734,0.05756348371505737,0.010335266590118408
0.1305714100599289,-0.06480198353528976,-0.08875013142824173,0.017035648226737976,0.05943237245082855,0.05062055587768555
0.0665069967508316,0.065242238342762,-0.15000708401203156,0.038900986313819885,0.0726301372051239,0.06386184692382812
-0.013803552836179733,0.12278972566127777,-0.15075479447841644,0.08401978015899658,0.07945334911346436,0.04463016986846924
-0.05941358953714371,0.1520577371120453,-0.06781981885433197,0.10888364911079407,0.06884068250656128,0.007394075393676758
-0.07711546123027802,0.1425687074661255,0.03652054816484451,0.11168566346168518,0.06285972893238068,-0.0284004807472229
-0.04810183495283127,0.07005967199802399,0.07834648340940475,0.08947953581809998,0.07083703577518463,-0.045507967472076416
-0.007926788181066513,-0.022782497107982635,0.062997005879879,0.07091319561004639,0.07608741521835327,-0.019785284996032715
0.006660718936473131,-0.04258012771606445,0.026456588879227638,0.05405512452125549,0.05588933825492859,0.02899545431137085
0.03650698810815811,0.014680990017950535,0.01769796758890152,0.05300207436084747,0.031580910086631775,0.07004129886627197
0.05583043396472931,0.1245201826095581,0.07051610201597214,0.05788734555244446,0.013381749391555786,0.10173946619033813
0.03488379344344139,0.20808348059654236,0.1400316059589386,0.054276540875434875,-0.00224187970161438,0.11472463607788086
-0.009847252629697323,0.24704726040363312,0.21798273921012878,0.04918361455202103,-0.009554222226142883,0.09834688901901245
-0.027050040662288666,0.25483760237693787,0.27226924896240234,0.035038985311985016,-0.013237431645393372,0.05819672346115112
0.006255578715354204,0.23502260446548462,0.30627989768981934,0.02022196352481842,-0.018988385796546936,0.020876944065093994
0.05608402565121651,0.20384690165519714,0.32504454255104065,0.015638083219528198,-0.023854762315750122,0.002026975154876709
0.08226114511489868,0.157844677567482,0.37518611550331116,0.02410341054201126,-0.024033576250076294,0.003180086612701416
0.0960579365491867,0.13205528259277344,0.4386555850505829,0.01597917079925537,-0.03328022360801697,0.014713466167449951
0.09667373448610306,0.1602558046579361,0.4846195578575134,0.0017199516296386719,-0.031856968998909,0.02563023567199707
0.09494274109601974,0.19498926401138306,0.48976969718933105,-0.013744086027145386,-0.030952975153923035,0.020842432975769043
0.11230677366256714,0.23233047127723694,0.4547474980354309,-0.02381070703268051,-0.027307718992233276,-0.000383913516998291
0.14148196578025818,0.21272088587284088,0.43949389457702637,-0.008881576359272003,-0.027622774243354797,-0.025320231914520264
0.1674564629793167,0.1873907744884491,0.4563063681125641,0.0023896098136901855,-0.036295607686042786,-0.040633976459503174
0.20664620399475098,0.15441451966762543,0.48180389404296875,0.004904434084892273,-0.04243344068527222,-0.03792381286621094
0.2309044450521469,0.16245339810848236,0.5180338025093079,0.004420645534992218,-0.038089290261268616,-0.013716280460357666
0.20515567064285278,0.22196640074253082,0.5580042600631714,0.014636807143688202,-0.028175830841064453,0.007277071475982666
0.16885586082935333,0.27123597264289856,0.5913931727409363,0.015989035367965698,-0.011394262313842773,-0.0013728737831115723
0.15749163925647736,0.2993852496147156,0.621563732624054,0.007355451583862305,-0.009428516030311584,-0.02146899700164795
0.08889241516590118,0.40990594029426575,0.6531413197517395,0.004870176315307617,-0.010481789708137512,-0.04164332151412964
-0.008380068466067314,0.5542945265769958,0.7115128636360168,0.04003206640481949,0.01340232789516449,-0.10810816287994385
-0.05293441563844681,0.49595165252685547,0.8109415173530579,0.05991928279399872,0.02751895785331726,-0.20144975185394287
