rotation_x,rotation_y,rotation_z,acceleration_x,acceleration_y,acceleration_z
-0.23293325304985046,0.2872697710990906,-0.3731314241886139,-0.06873379647731781,0.020409703254699707,0.19356000423431396
-0.4046323001384735,0.17416733503341675,-0.23895883560180664,0.016039088368415833,-0.034349262714385986,0.14137321710586548
-0.32562515139579773,0.2314220815896988,0.023005180060863495,0.061643511056900024,-0.073344886302948,0.0717320442199707
-0.2731878459453583,0.3326861262321472,0.20792920887470245,0.05399039387702942,-0.09006848931312561,0.05676048994064331
-0.2760133147239685,0.4835256040096283,0.154849573969841,-0.03908456861972809,-0.0571252703666687,0.04662376642227173
-0.2525111734867096,0.44362449645996094,0.0436093807220459,-0.10458238422870636,-0.024337857961654663,-0.004660367965698242
-0.13438422977924347,0.22735737264156342,0.01982608065009117,-0.051055654883384705,-0.04317116737365723,-0.11460518836975098
-0.004474559333175421,0.23725752532482147,-0.001750712632201612,-0.005258992314338684,-0.0572642982006073,-0.13231933116912842
0.04396288841962814,0.4333232641220093,-0.02772570587694645,-0.008899107575416565,-0.040354132652282715,-0.09212535619735718
-0.08370856940746307,0.4394979178905487,0.010580325499176979,0.011372417211532593,-0.043325185775756836,-0.05574345588684082
-0.2553648352622986,0.5773688554763794,0.049513693898916245,0.004400402307510376,-0.08491498231887817,-0.003643810749053955
-0.42022278904914856,0.7407042980194092,0.08957456052303314,-0.027685433626174927,-0.06924766302108765,0.0337333083152771
-0.7989305257797241,0.6663320064544678,0.290192186832428,0.04617862403392792,-0.016225993633270264,-0.034402430057525635
-0.7959527969360352,0.5477967858314514,0.33342641592025757,0.11365693807601929,0.00933218002319336,-0.2293795347213745
-0.24822118878364563,0.5591568946838379,0.21075016260147095,0.0703381597995758,0.05370339751243591,-0.3814983367919922
0.19770567119121552,0.47849515080451965,0.03614398092031479,0.02516716718673706,0.06628671288490295,-0.3666161298751831
0.3994868993759155,0.3330216407775879,-0.11054646968841553,0.024895761162042618,0.05672761797904968,-0.19911903142929077
0.4229547083377838,0.22772125899791718,-0.039291929453611374,0.0898294746875763,0.03343498706817627,-0.04591643810272217
0.19419488310813904,0.2529181241989136,0.10687229037284851,0.14661957323551178,0.03330862522125244,0.05614817142486572
0.04675703123211861,0.32338595390319824,0.24533584713935852,0.1521507352590561,0.05130365490913391,0.06896752119064331
0.07408825308084488,0.41539764404296875,0.3420357406139374,0.13976383209228516,0.09826979041099548,0.019428133964538574
0.09086065739393234,0.41828596591949463,0.380471408367157,0.10751445591449738,0.11725383996963501,-0.004081308841705322
-0.00843234546482563,0.28390997648239136,0.38754749298095703,0.0708184689283371,0.14873450994491577,0.022695481777191162
-0.02657475508749485,0.17374256253242493,0.40244060754776,0.06045962870121002,0.13662678003311157,0.06730550527572632
-0.007747975643724203,0.16476237773895264,0.4851285517215729,0.07494646310806274,0.12080788612365723,0.11400240659713745
-0.029301952570676804,0.12897424399852753,0.5328516960144043,0.044810328632593155,0.0905282199382782,0.18783271312713623
-0.0982019305229187,0.025528904050588608,0.5571374893188477,0.013175785541534424,0.0782899558544159,0.23003852367401123
-0.29589903354644775,0.006338045932352543,0.5128974318504333,-0.01706281304359436,0.07693356275558472,0.2472941279411316
-0.535617470741272,-0.00497274799272418,0.50452721118927,0.00435890257358551,0.04793331027030945,0.25232577323913574
-0.5693457722663879,-0.01811256632208824,0.5726000666618347,0.034927114844322205,0.008863002061843872,0.15183842182159424
-0.5763834714889526,-0.06764024496078491,0.6671934723854065,0.04792565107345581,-0.02362331748008728,0.06101781129837036
-0.5579841136932373,-0.21465836465358734,0.6664655208587646,0.03133915364742279,-0.05141037702560425,-0.010672390460968018
-0.4091923236846924,-0.28154242038726807,0.5279620885848999,-0.03480543941259384,-0.04874357581138611,-0.04551607370376587
-0.31322747468948364,-0.24138252437114716,0.35914966464042664,-0.06921881437301636,-0.0800895094871521,-0.04060685634613037
-0.20359081029891968,-0.2268810123205185,0.16019947826862335,-0.0888632982969284,-0.09787368774414062,-0.06629061698913574
-0.023196345195174217,-0.21569347381591797,0.06209409236907959,-0.06319703161716461,-0.12582862377166748,-0.1103171706199646
0.001750392373651266,-0.33548930287361145,0.027147207409143448,-0.035621896386146545,-0.15339410305023193,-0.1365024447441101
-0.045041218400001526,-0.5038251876831055,-0.038070809096097946,-0.03350503742694855,-0.1472007930278778,-0.15106654167175293
0.027325090020895004,-0.6142189502716064,-0.13240040838718414,-0.04809987545013428,-0.12127304077148438,-0.17666620016098022
0.09675078094005585,-0.6637387275695801,-0.25621190667152405,-0.0822831243276596,-0.10898375511169434,-0.1454101800918579
0.0023482097312808037,-0.48927539587020874,-0.3657398819923401,-0.14055928587913513,-0.16397958993911743,0.0023618340492248535
-0.3634226620197296,-0.18009574711322784,-0.1946706473827362,-0.09498387575149536,-0.15483427047729492,0.025957703590393066
-0.6862503290176392,-0.40547317266464233,-0.0037929085083305836,-0.01563785970211029,-0.13222670555114746,-0.13842105865478516
-0.5537965297698975,-0.497195839881897,-0.08874884247779846,-0.07762870192527771,-0.03869819641113281,-0.34883785247802734
-0.02256041392683983,-0.4909449815750122,-0.37517598271369934,-0.13479450345039368,0.03923535346984863,-0.427470862865448
0.4495626389980316,-0.46265992522239685,-0.7004151344299316,-0.15072788298130035,0.09553807973861694,-0.3195018172264099
0.6311612725257874,-0.4840220808982849,-0.8384528160095215,-0.09273660182952881,0.08559519052505493,-0.06164735555648804
0.5154193639755249,-0.4808294177055359,-0.7483288049697876,-0.022454917430877686,0.02930772304534912,0.17994368076324463
0.11673202365636826,-0.2214064598083496,-0.506893515586853,0.029651641845703125,-0.029446065425872803,0.32629793882369995
-0.3886156678199768,-0.01140802912414074,-0.24398110806941986,0.04084809124469757,-0.05654221773147583,0.3175543546676636
-0.45265769958496094,-0.13501673936843872,-0.11564154922962189,0.025315463542938232,0.01119813323020935,0.027940869331359863
-0.1251634657382965,-0.2567923069000244,-0.18110589683055878,-0.019270464777946472,0.0805881917476654,-0.19119900465011597
0.29215437173843384,-0.30117958784103394,-0.39225855469703674,-0.0768435001373291,0.13147753477096558,-0.21529799699783325
0.38879522681236267,-0.2533486485481262,-0.5596765279769897,-0.08581197261810303,0.13141697645187378,-0.04907029867172241
0.31187501549720764,-0.2648797929286957,-0.6104583740234375,-0.04855009913444519,0.06047499179840088,0.10143822431564331
0.274813175201416,-0.2439223676919937,-0.46463507413864136,0.032780736684799194,-0.008891046047210693,0.15523779392242432
0.26769623160362244,-0.1910887360572815,-0.30639636516571045,0.05454626679420471,-0.046180665493011475,0.14454901218414307
0.35794681310653687,-0.13622352480888367,-0.27003392577171326,0.012665972113609314,-0.013577818870544434,0.09152156114578247
0.4557337164878845,-0.1312260925769806,-0.22899490594863892,-0.007204413414001465,-0.016473114490509033,0.061641573905944824
0.5628042817115784,-0.012752490118145943,-0.24588675796985626,-0.037865251302719116,-0.00017565488815307617,0.04456824064254761
0.5377941131591797,-0.0951986014842987,-0.17706593871116638,-0.0040798187255859375,-0.012022703886032104,0.04094958305358887
0.46354132890701294,-0.10724388808012009,-0.14826403558254242,-0.005652233958244324,-0.02661985158920288,0.06965947151184082
0.45322102308273315,0.00878913328051567,-0.05741898715496063,-0.007000908255577087,-0.029333770275115967,0.05837130546569824
0.39764857292175293,0.08596640825271606,0.0384485125541687,0.005207151174545288,-0.03418862819671631,0.03613734245300293
0.3350028395652771,0.057477712631225586,0.08026633411645889,-0.0093965083360672,0.0028212666511535645,-0.028878450393676758
0.30853599309921265,0.025511782616376877,0.028429493308067322,-0.05728903412818909,0.019348859786987305,-0.08672088384628296
0.345011830329895,0.05782022699713707,-0.05120624229311943,-0.06057871878147125,0.03748387098312378,-0.12303519248962402
0.4289100766181946,0.12742775678634644,-0.08850724995136261,-0.025635704398155212,0.04211828112602234,-0.13810569047927856
0.43981289863586426,0.2731165289878845,-0.14583922922611237,-0.024259373545646667,0.05876123905181885,-0.07102745771408081
0.37483370304107666,0.3887723386287689,-0.10569136589765549,-0.013806059956550598,0.008869379758834839,0.010881125926971436
-0.11560435593128204,0.577139675617218,0.10644904524087906,0.03634151816368103,-0.009440630674362183,0.10957777500152588
-0.8886452913284302,0.6095999479293823,0.34797289967536926,0.12392410635948181,0.024629294872283936,0.10310423374176025
-1.086923360824585,0.7406409382820129,0.6404951810836792,0.2016279697418213,0.07856979966163635,-0.125618577003479
-0.5251737236976624,0.3582637906074524,0.8930038809776306,0.3119439482688904,0.06253525614738464,-0.46307456493377686
0.1809871792793274,0.5218274593353271,0.7250267267227173,0.16629981994628906,0.14259016513824463,-0.3942713737487793
0.5631945133209229,0.5940588116645813,0.4204101264476776,0.013533100485801697,0.15136682987213135,-0.14491748809814453
0.4209458529949188,0.298086941242218,0.3343246281147003,0.05222223699092865,0.14639747142791748,0.0727231502532959
0.014928871765732765,0.26783087849617004,0.3604400157928467,0.10170149803161621,0.09785068035125732,0.253387451171875
-0.3218019902706146,0.4679147005081177,0.48305168747901917,0.11169672012329102,0.08852219581604004,0.30013829469680786
-0.4422450363636017,0.5238410234451294,0.6541163921356201,0.19293075799942017,0.09025305509567261,0.1496868133544922
-0.4203188717365265,0.5478803515434265,0.701278567314148,0.15061232447624207,0.09857681393623352,0.009494364261627197
-0.25432220101356506,0.43493789434432983,0.5820847153663635,0.05261161923408508,0.08774024248123169,-0.05610251426696777
-0.0964861810207367,0.34942665696144104,0.5440713167190552,0.02518346905708313,0.06815645098686218,-0.048372745513916016
-0.07457917183637619,0.35779786109924316,0.5983734130859375,0.058268070220947266,0.030698299407958984,0.03999757766723633
-0.05665675550699234,0.2514802813529968,0.7094731330871582,0.08676853030920029,-0.00032976269721984863,0.0782860517501831
-0.10946141183376312,0.17670424282550812,0.6994709968566895,0.02983185648918152,0.0110054612159729,0.12676894664764404
-0.24249261617660522,0.12251356989145279,0.639330267906189,-0.009631447494029999,0.010650664567947388,0.16692698001861572
-0.33473503589630127,0.07008896768093109,0.5692462921142578,-0.014675900340080261,-0.003986388444900513,0.15015339851379395
-0.3616059720516205,0.014499805867671967,0.5311339497566223,-0.0112590491771698,-0.01657813787460327,0.09617477655410767
-0.3407311737537384,-0.050322819501161575,0.5057825446128845,-0.008012190461158752,-0.04341927170753479,0.04798215627670288
-0.20097149908542633,-0.12203747779130936,0.4414493441581726,-0.020764455199241638,-0.05604410171508789,-0.032485246658325195
-0.14623606204986572,-0.18268577754497528,0.27581682801246643,-0.07109765708446503,-0.055301517248153687,-0.05444824695587158
-0.10503650456666946,-0.21893146634101868,0.05110384151339531,-0.10428932309150696,-0.056824833154678345,-0.04419600963592529
0.04691365733742714,-0.14034254848957062,-0.15739725530147552,-0.12302927672863007,-0.07887721061706543,-0.06739944219589233
0.37421905994415283,-0.14426125586032867,-0.30465206503868103,-0.10031034052371979,-0.10178905725479126,-0.15762656927108765
0.6558676958084106,-0.19444848597049713,-0.43206146359443665,-0.08335201442241669,-0.10628354549407959,-0.21282941102981567
0.7839527130126953,-0.1882740706205368,-0.56120365858078,-0.09047922492027283,-0.07536715269088745,-0.19778603315353394
0.7494950294494629,-0.35440367460250854,-0.5490593314170837,-0.010094791650772095,-0.07582581043243408,-0.15737444162368774
0.6872638463973999,-0.5444447994232178,-0.41059374809265137,0.061316490173339844,-0.08168646693229675,-0.0978550910949707
0.5871202945709229,-0.4501594603061676,-0.2823067307472229,0.017218008637428284,-0.1445467472076416,0.025209784507751465
0.27964964509010315,-0.36355334520339966,-0.12459101527929306,-0.05352722108364105,-0.16617128252983093,0.07777935266494751
-0.37994763255119324,-0.4074672758579254,-0.03126191720366478,-0.057827889919281006,-0.11365491151809692,0.06435632705688477
-0.5985079407691956,-0.585338830947876,-0.1836303025484085,-0.1436031013727188,-0.03035914897918701,-0.14824062585830688
-0.2597179114818573,-0.5761052370071411,-0.444802850484848,-0.20441538095474243,0.03968155384063721,-0.3316177725791931
0.053545571863651276,-0.6207855939865112,-0.6572893857955933,-0.1716596931219101,0.09309661388397217,-0.36723971366882324
0.17969341576099396,-0.9167378544807434,-0.8481744527816772,-0.13350430130958557,0.11027893424034119,-0.2480129599571228
0.12637080252170563,-1.1101016998291016,-1.0562554597854614,-0.14640800654888153,0.14293444156646729,-0.021641075611114502
-0.11940408498048782,-1.0558757781982422,-1.2494924068450928,-0.15361115336418152,0.14113974571228027,0.20315134525299072
-0.3814011812210083,-0.5932174324989319,-1.183194637298584,-0.07526420056819916,0.07766672968864441,0.3019537329673767
-0.40555334091186523,-0.21347223222255707,-0.7860549688339233,0.05337728559970856,0.0018262863159179688,0.18344008922576904
-0.20409314334392548,-0.2148893028497696,-0.403493195772171,0.10317692160606384,-0.007991611957550049,-0.03434634208679199
-0.22389915585517883,-0.2651698589324951,-0.33975547552108765,-0.005938038229942322,0.07114514708518982,-0.06675636768341064
-0.30285385251045227,-0.44306713342666626,-0.5350091457366943,-0.12037155032157898,0.15545839071273804,-0.0437968373298645
-0.2380138486623764,-0.6891316771507263,-0.6899630427360535,-0.12874066829681396,0.17381632328033447,-0.06462061405181885
-0.08551625907421112,-0.6588576436042786,-0.740416944026947,-0.06721872091293335,0.13827770948410034,-0.025618791580200195
0.09813345223665237,-0.33054909110069275,-0.6827099323272705,0.024365335702896118,0.0902385413646698,0.05766409635543823
0.26575732231140137,-0.18672780692577362,-0.6420814394950867,0.006169706583023071,0.06544554233551025,0.07548326253890991
0.23185379803180695,-0.29946354031562805,-0.6345800161361694,-0.004276007413864136,0.07128220796585083,0.09938478469848633
0.11137493699789047,-0.3168315589427948,-0.6308084726333618,-0.027631163597106934,0.06943708658218384,0.1500864028930664
0.004099661018699408,-0.259041965007782,-0.5693075656890869,-0.012313783168792725,0.03530395030975342,0.15579718351364136
0.05374152958393097,-0.25435224175453186,-0.4838765561580658,0.0123920738697052,0.014019519090652466,0.060943543910980225
0.13478460907936096,-0.09255754202604294,-0.41278499364852905,0.0046654194593429565,-0.004933178424835205,0.022030174732208252
0.2410101294517517,0.05074644088745117,-0.39486250281333923,-0.027383223176002502,-0.016065597534179688,-0.004011869430541992
0.26797857880592346,0.012678168714046478,-0.38646265864372253,-0.05378447473049164,-0.005367875099182129,-0.03285551071166992
0.11737672984600067,-0.07199492305517197,-0.3077217936515808,-0.020106002688407898,-0.008439183235168457,-0.007728099822998047
0.036583080887794495,-0.13984161615371704,-0.17778269946575165,0.019809409976005554,-0.022329181432724,-0.006979823112487793
0.08580359816551208,-0.20477105677127838,-0.017469774931669235,0.049096450209617615,-0.04386827349662781,-0.04516565799713135
0.22204123437404633,-0.19542519748210907,0.13088801503181458,0.06967715919017792,-0.05673372745513916,-0.09931832551956177
0.2541733384132385,-0.10520359873771667,0.09896916151046753,-0.021010220050811768,-0.03608816862106323,-0.029659509658813477
0.1321338713169098,0.05486898869276047,-0.07108045369386673,-0.0980072021484375,0.01990950107574463,0.031465232372283936
0.11448764055967331,0.0940268263220787,-0.3218860626220703,-0.16585230827331543,0.010832071304321289,0.052340805530548096
0.14294086396694183,0.05774005874991417,-0.3630339205265045,-0.14656737446784973,-0.055597662925720215,0.04336130619049072
-0.2648288607597351,0.3442450165748596,-0.04813556373119354,-0.044405221939086914,-0.09109556674957275,0.13726824522018433
-1.0288722515106201,0.4766824543476105,0.40163740515708923,0.09780262410640717,-0.0792807936668396,0.11746823787689209
-1.1688048839569092,0.37572574615478516,0.4676947295665741,0.03910498321056366,0.026677489280700684,-0.14716994762420654
-0.40662774443626404,0.15179315209388733,0.08332616835832596,-0.14330756664276123,0.1252284049987793,-0.4071692228317261
0.41437116265296936,-0.1589304804801941,-0.4305580258369446,-0.21512164175510406,0.1828814148902893,-0.41762715578079224
0.7576770186424255,-0.13117152452468872,-0.67332524061203,-0.15157583355903625,0.15629541873931885,-0.12364858388900757
0.6334567070007324,0.08272319287061691,-0.7051548361778259,-0.08385206758975983,0.09785038232803345,0.14064908027648926
0.2831369638442993,0.40372374653816223,-0.7424458861351013,-0.12461008131504059,0.04750567674636841,0.2877746820449829
0.05941031873226166,0.4476417303085327,-0.7409579753875732,-0.10028362274169922,0.05178028345108032,0.20020288228988647
-0.10462941974401474,0.2370106279850006,-0.5802489519119263,-0.050897642970085144,0.06164658069610596,0.03439831733703613
-0.4190656542778015,-0.3385316729545593,-0.39131617546081543,0.013846740126609802,0.04551517963409424,-0.08475452661514282
-0.452134370803833,-0.5457368493080139,-0.5074767470359802,-0.06303609907627106,0.08479714393615723,-0.1405928134918213
-0.10101775079965591,-0.3710557222366333,-0.8594993948936462,-0.1975366771221161,0.09215474128723145,-0.14203691482543945
0.16584354639053345,-0.42023521661758423,-1.1370670795440674,-0.21811388432979584,0.10119667649269104,-0.07692766189575195
0.14079155027866364,-0.7008492350578308,-1.1676101684570312,-0.11707934737205505,0.07070255279541016,0.03275352716445923
0.030461838468909264,-0.8838226199150085,-1.0963612794876099,-0.05319894850254059,0.03274977207183838,0.10891032218933105
-0.16200490295886993,-0.9093033075332642,-1.0984426736831665,-0.08512023091316223,0.03140151500701904,0.1889200210571289
-0.3400406837463379,-1.0756452083587646,-1.0851465463638306,-0.09447222948074341,0.03832268714904785,0.1876155138015747
-0.4692212641239166,-1.338502287864685,-0.975287675857544,-0.03293512761592865,0.03736072778701782,0.1247745156288147
-0.5748531222343445,-1.4082249402999878,-0.8707639575004578,-0.016644597053527832,0.02838975191116333,0.11256533861160278
-0.7273572683334351,-1.2104341983795166,-0.8904730677604675,-0.0690552294254303,0.05442112684249878,0.14592766761779785
-0.7610769867897034,-0.9645495414733887,-1.1230480670928955,-0.1668158769607544,0.09345915913581848,0.10200738906860352
-0.5992603302001953,-0.9343886375427246,-1.4626920223236084,-0.2212120145559311,0.13162294030189514,-0.045758724212646484
-0.3815566897392273,-1.0668545961380005,-1.6689610481262207,-0.17628133296966553,0.11719009280204773,-0.13754171133041382
-0.4125315845012665,-1.0501166582107544,-1.7331039905548096,-0.12008358538150787,0.06470268964767456,-0.05995833873748779
-0.594931423664093,-0.9510247111320496,-1.7118128538131714,-0.0816030204296112,0.024601519107818604,0.015312135219573975
-0.5774372220039368,-1.002463698387146,-1.7081241607666016,-0.06179876625537872,-0.001104801893234253,-0.1006590723991394
-0.4178791046142578,-1.0256001949310303,-1.8043354749679565,-0.08447206020355225,0.03362226486206055,-0.21570050716400146
-0.249352365732193,-1.1323721408843994,-1.9567993879318237,-0.09153091907501221,0.06003221869468689,-0.21446573734283447
-0.19015011191368103,-1.3011105060577393,-2.0409445762634277,-0.0845274031162262,0.08648204803466797,-0.15171164274215698
-0.30411988496780396,-1.3165651559829712,-1.982628345489502,-0.06676410138607025,0.0330314040184021,0.010655522346496582
-0.5052453875541687,-1.3055585622787476,-1.780750036239624,0.0033749938011169434,0.007532984018325806,0.06638705730438232
-0.5143371224403381,-1.4272561073303223,-1.6358691453933716,-0.059675201773643494,-0.04100191593170166,-0.019180893898010254
-0.6014358401298523,-1.2934945821762085,-1.5789059400558472,-0.14256171882152557,-0.024844586849212646,-0.042801737785339355
-0.83151775598526,-1.2825735807418823,-1.6411278247833252,-0.22537212073802948,0.0340457558631897,-0.05796009302139282
-0.9053970575332642,-1.4719352722167969,-1.6483365297317505,-0.20906752347946167,0.08437031507492065,-0.16283613443374634
-0.7070015072822571,-1.4782384634017944,-1.6682064533233643,-0.17795473337173462,0.10786950588226318,-0.22467339038848877
-0.5201759934425354,-1.3249518871307373,-1.741208791732788,-0.17337974905967712,0.1465751826763153,-0.14238619804382324
-0.4521366059780121,-1.2459216117858887,-1.8242806196212769,-0.16313940286636353,0.16200906038284302,-0.02921128273010254
-0.4620607793331146,-1.1440140008926392,-1.8232225179672241,-0.13365930318832397,0.13907846808433533,0.04829871654510498
-0.593594491481781,-1.0690758228302002,-1.7076340913772583,-0.11008244752883911,0.09202289581298828,0.08520954847335815
-0.7173645496368408,-1.0055127143859863,-1.6185475587844849,-0.11590975522994995,0.07572585344314575,0.05403292179107666
-0.6201828718185425,-1.0332083702087402,-1.6153454780578613,-0.1394619643688202,0.10913842916488647,-0.07109832763671875
-0.4482778310775757,-1.1218191385269165,-1.7044157981872559,-0.1678486466407776,0.14201337099075317,-0.13029694557189941
-0.3529009222984314,-1.1523325443267822,-1.8413336277008057,-0.19013339281082153,0.1542995274066925,-0.047061026096343994
-0.37246382236480713,-1.1332074403762817,-1.9337211847305298,-0.18123221397399902,0.1385951042175293,0.07032126188278198
-0.4513101577758789,-1.1037828922271729,-1.8443987369537354,-0.12197640538215637,0.056192219257354736,0.14061301946640015
-0.5015897750854492,-1.0567712783813477,-1.6637076139450073,-0.07670155167579651,-0.015166699886322021,0.1565791368484497
-0.5001854300498962,-0.9742220640182495,-1.5243308544158936,-0.08022522926330566,-0.03290277719497681,0.14240258932113647
-0.48497092723846436,-0.8408729434013367,-1.4805225133895874,-0.12857794761657715,-0.010132193565368652,0.14175790548324585
-0.439248263835907,-0.7714347243309021,-1.5000637769699097,-0.16508853435516357,0.014840811491012573,0.11232942342758179
-0.4128134846687317,-0.6283597946166992,-1.528551697731018,-0.1942894458770752,0.04320025444030762,0.09973341226577759
-0.40318238735198975,-0.5297013521194458,-1.5175268650054932,-0.19118818640708923,0.04563382267951965,0.07769912481307983
-0.37126269936561584,-0.5670492053031921,-1.5253207683563232,-0.20504826307296753,0.06534507870674133,0.006997227668762207
-0.382755309343338,-0.5402880311012268,-1.5524013042449951,-0.2153548300266266,0.05987808108329773,0.009483754634857178
-0.3868206739425659,-0.5118095874786377,-1.6491317749023438,-0.25360479950904846,0.08799868822097778,0.028686344623565674
-0.404863566160202,-0.43076762557029724,-1.7105904817581177,-0.24383476376533508,0.09224274754524231,0.045105576515197754
-0.37109383940696716,-0.31521934270858765,-1.778377890586853,-0.24217694997787476,0.09081137180328369,0.03570073843002319
-0.22180159389972687,-0.30248597264289856,-1.7727950811386108,-0.20255006849765778,0.07760918140411377,-0.04309523105621338
-0.18088769912719727,-0.25454649329185486,-1.7400474548339844,-0.1667141616344452,0.06468474864959717,-0.039314866065979004
-0.23708078265190125,-0.3316452205181122,-1.6977438926696777,-0.15478484332561493,0.05209094285964966,-0.013662219047546387
-0.3893641531467438,-0.38220372796058655,-1.546096682548523,-0.14158353209495544,-0.03809070587158203,0.04350775480270386
-0.9496394991874695,0.007835855707526207,-1.249265193939209,-0.09187082946300507,-0.03180718421936035,0.12406337261199951
-1.2798296213150024,-0.08063297718763351,-1.0451048612594604,-0.045550137758255005,0.017897367477416992,-0.07620203495025635
-0.7700916528701782,-0.4838576912879944,-1.087847352027893,-0.07891100645065308,0.08719545602798462,-0.4337458610534668
-0.06108822673559189,-0.6730989217758179,-1.5184826850891113,-0.2279442399740219,0.16623428463935852,-0.47967857122421265
0.2475185990333557,-0.6999111175537109,-1.8262559175491333,-0.21586060523986816,0.20943784713745117,-0.24464672803878784
0.2276865541934967,-0.8328574299812317,-1.7593642473220825,-0.0671754777431488,0.16186699271202087,-0.004130005836486816
0.047213029116392136,-0.9517374634742737,-1.6056175231933594,0.01045265793800354,0.13277053833007812,0.1394209861755371
-0.25390946865081787,-0.8940314054489136,-1.4309275150299072,0.022828102111816406,0.09978556632995605,0.2438254952430725
-0.5615208745002747,-0.6998012065887451,-1.2905739545822144,0.02269965410232544,0.07730472087860107,0.27725744247436523
-0.7478174567222595,-0.6707558035850525,-1.1817866563796997,0.03297466039657593,0.08009767532348633,0.17855983972549438
-0.7671234607696533,-0.639737606048584,-1.1708645820617676,-0.006278812885284424,0.09298557043075562,0.05635333061218262
-0.681396484375,-0.6388789415359497,-1.2094602584838867,-0.03543555736541748,0.09019529819488525,-0.02855294942855835
-0.5570441484451294,-0.7486978769302368,-1.2565513849258423,-0.03619517385959625,0.07553595304489136,-0.09025782346725464
-0.4659288227558136,-0.8313499093055725,-1.3390941619873047,-0.03219814598560333,0.07122620940208435,-0.09717762470245361
-0.44797858595848083,-0.7904887795448303,-1.3247160911560059,0.006848454475402832,0.040088921785354614,-0.02591913938522339
-0.4675518572330475,-0.751875638961792,-1.2853038311004639,0.03223356604576111,0.013604789972305298,0.033783912658691406
-0.5130109190940857,-0.7092834115028381,-1.2292752265930176,0.04338200390338898,0.003667294979095459,0.05687105655670166
-0.4775908589363098,-0.6590054035186768,-1.1332255601882935,0.06445403397083282,-0.022484660148620605,0.042133867740631104
-0.3751104176044464,-0.6207103729248047,-1.0870640277862549,0.05742916464805603,-0.033139050006866455,0.02352696657180786
-0.2813878059387207,-0.5165789127349854,-1.1218329668045044,0.003445044159889221,-0.01443248987197876,0.06420302391052246
-0.22612503170967102,-0.445471853017807,-1.1227136850357056,0.01794658601284027,-0.017601311206817627,0.13002926111221313
-0.31450754404067993,-0.32567161321640015,-1.03402841091156,0.0556039959192276,0.002988278865814209,0.16777253150939941
-0.5013604760169983,-0.15516774356365204,-0.9043075442314148,0.10620918869972229,-0.004841834306716919,0.1613600254058838
-0.36526378989219666,-0.1648179292678833,-0.776459276676178,0.10676321387290955,-0.028687387704849243,-0.023905932903289795
-0.10586236417293549,-0.29093945026397705,-0.7288757562637329,0.07104367017745972,-0.03797215223312378,-0.17158472537994385
-0.0921623483300209,-0.39734771847724915,-0.7957282662391663,-0.006962567567825317,-0.032085299491882324,-0.11916565895080566
-0.17488425970077515,-0.4485352337360382,-0.8195571899414062,-0.0005696862936019897,-0.05018901824951172,-0.030333876609802246
-0.20445452630519867,-0.413070410490036,-0.729999303817749,0.04412233829498291,-0.09792324900627136,-0.07875168323516846
-0.14558324217796326,-0.42435574531555176,-0.6192702651023865,0.04232227802276611,-0.10798496007919312,-0.14310944080352783
-0.06051100790500641,-0.45221176743507385,-0.6402826905250549,-0.04129268229007721,-0.0898960530757904,-0.15173417329788208
-0.00033923424780368805,-0.6261150240898132,-0.8352104425430298,-0.11044836044311523,-0.044653236865997314,-0.14260584115982056
0.06541183590888977,-0.9297810196876526,-1.0446133613586426,-0.11651924252510071,-0.0776863694190979,-0.053057074546813965
-0.09910063445568085,-0.8188535571098328,-1.0619174242019653,-0.07636089622974396,-0.17160439491271973,0.1322818398475647
-0.47465288639068604,-0.3975045382976532,-0.8574022650718689,-0.0015136152505874634,-0.18699133396148682,0.09525507688522339
-0.6225500106811523,-0.528505802154541,-0.6816971302032471,-0.050147369503974915,-0.1359374225139618,-0.18167734146118164
-0.4791093170642853,-0.6706356406211853,-0.7562466263771057,-0.16247211396694183,-0.04189038276672363,-0.2744743824005127
-0.21405655145645142,-0.6343817710876465,-1.0105860233306885,-0.21374012529850006,0.023162007331848145,-0.2569640278816223
0.10277936607599258,-0.7378298044204712,-1.2426784038543701,-0.15289828181266785,0.07589316368103027,-0.16977286338806152
0.1697387844324112,-0.7117213010787964,-1.239702820777893,-0.04084935784339905,0.028747230768203735,0.0544583797454834
0.05331923067569733,-0.6685006022453308,-1.1336040496826172,-0.03924064338207245,0.013400733470916748,0.17002159357070923
-0.045524585992097855,-0.6145744323730469,-1.1130259037017822,-0.08302900195121765,0.025057077407836914,0.187136709690094
-0.19235825538635254,-0.46869808435440063,-1.0548486709594727,-0.07825376093387604,0.0071430206298828125,0.1552349328994751
-0.2722383737564087,-0.43441033363342285,-0.9242830276489258,-0.04931172728538513,-0.0019402801990509033,0.06061708927154541
-0.33528372645378113,-0.3923778533935547,-0.7206372618675232,-0.018492192029953003,-0.0015772581100463867,-0.01002413034439087
-0.3773457407951355,-0.44800668954849243,-0.5533536076545715,-0.026185765862464905,0.020061463117599487,-0.08378297090530396
-0.22131535410881042,-0.5580366849899292,-0.5089502334594727,-0.07160663604736328,0.04360222816467285,-0.13551980257034302
0.06545238941907883,-0.6293079257011414,-0.6024325489997864,-0.11412516236305237,0.073992520570755,-0.0934302806854248
0.23950158059597015,-0.5629198551177979,-0.7824302911758423,-0.1185791939496994,0.09102639555931091,0.06028413772583008
0.27249759435653687,-0.5084425806999207,-0.8130475282669067,-0.017941564321517944,0.054248690605163574,0.15559494495391846
0.1764076054096222,-0.45834237337112427,-0.6502653360366821,0.05662408471107483,0.009953022003173828,0.2197999358177185
0.0522516667842865,-0.4074104130268097,-0.511290431022644,0.05644215643405914,0.004360228776931763,0.18911820650100708
0.061420738697052,-0.3892963230609894,-0.47559770941734314,0.010835021734237671,0.007430136203765869,0.132537841796875
0.10142736881971359,-0.2731553912162781,-0.5045017600059509,-0.004887446761131287,0.007241636514663696,0.13224679231643677
0.08998771011829376,-0.15284428000450134,-0.5073836445808411,0.009330809116363525,-0.0011251568794250488,0.12816041707992554
0.061982497572898865,-0.03934983164072037,-0.45187926292419434,0.03625166416168213,-0.01360747218132019,0.08696538209915161
0.08679508417844772,-0.005209772381931543,-0.38408949971199036,0.022706210613250732,-0.03502774238586426,0.02195793390274048
0.07883383333683014,0.07857939600944519,-0.3470371961593628,-0.007676646113395691,-0.04452943801879883,0.009373366832733154
0.08844704180955887,0.22183109819889069,-0.32969018816947937,-0.02561841905117035,-0.046906113624572754,-0.034160494804382324
0.03791959583759308,0.20370055735111237,-0.2843876779079437,-0.014061972498893738,-0.030384838581085205,-0.07515037059783936
-0.012055842205882072,0.15441086888313293,-0.23962800204753876,-0.02533183991909027,-0.034079521894454956,-0.0747101902961731
-0.02532181330025196,0.1699354499578476,-0.20780903100967407,-0.027240440249443054,-0.045145243406295776,-0.05021458864212036
-0.10500632226467133,0.14876659214496613,-0.10987432301044464,-0.0014150887727737427,-0.11291557550430298,-0.019435524940490723
-0.3206162750720978,0.24046358466148376,0.07162322103977203,0.01810605823993683,-0.09854888916015625,0.042474567890167236
-0.7334179282188416,0.20537309348583221,0.30170583724975586,0.06479127705097198,-0.06105995178222656,-0.069088876247406
-0.9373905658721924,-0.13468080759048462,0.4826339781284332,0.04398539662361145,-0.000412672758102417,-0.22362250089645386
-0.7931896448135376,-0.170902818441391,0.45231693983078003,-0.016424834728240967,0.016345232725143433,-0.2847539186477661
-0.4063732326030731,0.11841531097888947,0.36667415499687195,-0.006150007247924805,0.03453254699707031,-0.2663320302963257
-0.0548829659819603,0.3459808826446533,0.2834966480731964,0.03410381078720093,0.058085232973098755,-0.23774147033691406
0.1451178789138794,0.14883646368980408,0.2757611870765686,0.05661098659038544,0.068264901638031,-0.15803784132003784
0.19799675047397614,-0.11858426779508591,0.22084057331085205,0.03963711857795715,0.07980886101722717,-0.03538167476654053
0.1789897233247757,0.0219259113073349,0.16892024874687195,0.07288619875907898,0.06525787711143494,0.08535176515579224
0.15165592730045319,0.30813196301460266,0.19749315083026886,0.10855036973953247,0.05708089470863342,0.08610939979553223
0.1333569884300232,0.3268696367740631,0.19154156744480133,0.11667825281620026,0.08107003569602966,0.032333195209503174
0.06329029053449631,0.2730761766433716,0.2077692747116089,0.13793404400348663,0.06684207916259766,0.03253436088562012
0.06587420403957367,0.199276864528656,0.2592848539352417,0.14439159631729126,0.040920406579971313,0.006043612957000732
0.1955527663230896,0.13531379401683807,0.30204594135284424,0.11642923951148987,0.032726287841796875,0.002563655376434326
0.26339903473854065,0.19128645956516266,0.2815402150154114,0.07028220593929291,0.023839116096496582,0.07183659076690674
0.26721423864364624,0.16278423368930817,0.2858886420726776,0.06629897654056549,0.01604446768760681,0.1117144227027893
0.16713793575763702,0.11899160593748093,0.34568023681640625,0.08297866582870483,-0.008703470230102539,0.1622375249862671
0.014492334797978401,0.1095053106546402,0.46015501022338867,0.09365616738796234,-0.030871808528900146,0.14483410120010376
-0.041001223027706146,0.06815445423126221,0.5187596678733826,0.041727215051651,-0.022418349981307983,0.05070286989212036
-0.0012408550828695297,-0.013330280780792236,0.42326483130455017,-0.006566137075424194,0.004431098699569702,-0.015792489051818848
0.0483025424182415,-0.054948437958955765,0.3215654790401459,-0.0007208287715911865,-0.011208921670913696,-0.021329045295715332
0.11577612161636353,-0.10781244933605194,0.28456857800483704,0.021679416298866272,-0.02380990982055664,-0.016169846057891846
0.1034257560968399,-0.1252182424068451,0.28350457549095154,0.044659435749053955,-0.041876375675201416,0.00611424446105957
0.14345824718475342,-0.19146108627319336,0.21047261357307434,0.01617947220802307,-0.03768754005432129,-0.04442554712295532
0.24512594938278198,-0.21221770346164703,0.05099311098456383,-0.015012592077255249,-0.043550074100494385,-0.046282291412353516
0.3412168025970459,-0.14945808053016663,-0.12043969333171844,-0.022297561168670654,-0.0659351646900177,-0.0030431747436523438
0.35160139203071594,-0.020242486149072647,-0.18423344194889069,0.022505968809127808,-0.07959359884262085,0.022256851196289062
0.38749104738235474,0.14895889163017273,-0.20575003325939178,0.04179774224758148,-0.08571732044219971,-0.057632505893707275
0.6393229365348816,0.19162073731422424,-0.14552994072437286,0.08274206519126892,-0.07744646072387695,-0.1779378056526184
0.7179922461509705,0.03364597633481026,-0.10889837145805359,0.04326780140399933,-0.0469936728477478,-0.08819735050201416
0.42817479372024536,0.1182439848780632,-0.09973794966936111,-0.037133678793907166,-0.0910336971282959,0.11233770847320557
-0.21597141027450562,0.19936415553092957,-0.050286535173654556,-0.04096566140651703,-0.0501922070980072,0.09286326169967651
-0.6923573613166809,-0.16261112689971924,0.0359671451151371,0.016243070363998413,-0.025488317012786865,-0.1903563141822815
-0.547908365726471,-0.23285482823848724,0.04251953214406967,-0.07466839253902435,0.016425102949142456,-0.3520546555519104
0.03659120947122574,-0.07618114352226257,-0.21766217052936554,-0.15244869887828827,0.08230161666870117,-0.3435172438621521
0.48837533593177795,-0.09774963557720184,-0.44747209548950195,-0.11415529251098633,0.0864136815071106,-0.11183267831802368
0.4217105507850647,-0.1351097971200943,-0.5125930905342102,-0.046473607420921326,0.04641851782798767,0.19535261392593384
0.10112688690423965,-0.019944244995713234,-0.34833550453186035,0.015875935554504395,-0.02346700429916382,0.35915613174438477
-0.27536648511886597,0.02694530040025711,-0.11430148780345917,0.007877275347709656,-0.044114649295806885,0.35091495513916016
-0.6225759983062744,0.040596090257167816,0.08550752699375153,-0.014885470271110535,-0.011627912521362305,0.2181881070137024
-0.744288980960846,0.06621414422988892,0.1360367089509964,-0.04942266643047333,0.061024010181427,0.02473318576812744
-0.5771578550338745,0.07480090111494064,0.06509947031736374,-0.0676618367433548,0.08973085880279541,-0.17955243587493896
-0.12676756083965302,-0.09811704605817795,-0.11504797637462616,-0.09238278865814209,0.10673454403877258,-0.24481076002120972
0.17617130279541016,-0.1695181280374527,-0.25351786613464355,-0.048948273062705994,0.07400685548782349,-0.04795479774475098
0.14643579721450806,-0.16177180409431458,-0.2595146894454956,0.017452865839004517,0.022166818380355835,0.136538565158844
0.05911193788051605,-0.14280566573143005,-0.18268930912017822,0.0521378219127655,-0.00015616416931152344,0.18967974185943604
0.02987644262611866,-0.04113740846514702,-0.11263459920883179,0.05311316251754761,-7.304549217224121e-05,0.18018722534179688
0.0694013237953186,0.048526737838983536,-0.07268799096345901,0.03086945414543152,-0.001620858907699585,0.1303301453590393
0.12441202253103256,0.05208344757556915,-0.07481592148542404,0.006266206502914429,-0.002283930778503418,0.09425961971282959
0.15640807151794434,0.13847772777080536,-0.07874064892530441,0.000815659761428833,-0.02237638831138611,0.09474635124206543
0.1538328230381012,0.203626349568367,-0.026726404204964638,0.024294108152389526,-0.04431885480880737,0.044206202030181885
0.19726118445396423,0.15126101672649384,0.07815566658973694,0.05186200141906738,-0.05816817283630371,-0.03749513626098633
0.19300483167171478,0.10256292670965195,0.21712958812713623,0.03320497274398804,-0.06901779770851135,-0.02038031816482544
0.13232368230819702,0.33506786823272705,0.23422814905643463,-0.02250821888446808,-0.05727142095565796,-0.02899003028869629
0.16613340377807617,0.3727317452430725,0.24228298664093018,-0.0393059104681015,-0.04599538445472717,-0.12498611211776733
0.10030773282051086,0.24572871625423431,0.27732861042022705,-0.031144529581069946,-0.0155068039894104,-0.12740886211395264
0.04470360651612282,0.1452259123325348,0.31174591183662415,-0.03038179874420166,-0.010186105966567993,-0.1570984125137329
0.1556999385356903,0.1414356529712677,0.2810780704021454,-0.0671127587556839,-0.0057308971881866455,-0.10835379362106323
0.09194975346326828,0.21735896170139313,0.24338757991790771,-0.09175634384155273,-0.047271668910980225,0.03539222478866577
-0.22327251732349396,0.3942924737930298,0.28814706206321716,-0.06777964532375336,-0.018934279680252075,0.1599789261817932
-0.8168244957923889,0.5513116717338562,0.32341131567955017,-0.026934146881103516,0.030078649520874023,0.08206343650817871
-0.970604658126831,0.46807610988616943,0.337185263633728,-0.007126227021217346,0.03990119695663452,-0.24068886041641235
-0.5914880633354187,0.13367126882076263,0.313301682472229,0.0077400803565979,0.039497554302215576,-0.428186297416687
-0.23084864020347595,0.012278810143470764,0.12876112759113312,0.002167448401451111,0.08076804876327515,-0.35245048999786377
0.14858008921146393,0.18155106902122498,0.034289609640836716,0.03450275957584381,0.037904977798461914,-0.18794125318527222
0.3961327373981476,0.31126388907432556,0.06790260970592499,0.08155341446399689,0.021593570709228516,-0.005793869495391846
0.18935942649841309,0.2705843150615692,0.16573897004127502,0.09233668446540833,0.020930498838424683,0.15997862815856934
-0.12401984632015228,0.2714097797870636,0.3042641878128052,0.12470182776451111,0.01935461163520813,0.1039665937423706
-0.05035344511270523,0.2058364301919937,0.4357300102710724,0.11160299181938171,0.0466027557849884,-0.05511510372161865
0.12308493256568909,0.2798497974872589,0.4062364101409912,0.031210750341415405,0.0790545642375946,-0.053430914878845215
0.2033773958683014,0.23332904279232025,0.2929334044456482,0.001817747950553894,0.09249866008758545,-0.007143259048461914
0.2045518159866333,0.13753673434257507,0.23611383140087128,0.02599380910396576,0.065585196018219,0.09311747550964355
0.12208808958530426,0.1204429566860199,0.29740622639656067,0.07149973511695862,0.025730222463607788,0.1631261110305786
0.09542496502399445,0.10779833048582077,0.4138251543045044,0.08736607432365417,0.013671934604644775,0.16095739603042603
0.08230673521757126,0.08528901636600494,0.489641934633255,0.05397927761077881,0.01399904489517212,0.16506534814834595
0.06962283700704575,0.040377795696258545,0.46598950028419495,0.00905027985572815,0.017557740211486816,0.1676269769668579
0.0071791051886975765,0.01152833178639412,0.4238963723182678,-0.003842875361442566,0.009320437908172607,0.1925075650215149
-0.13689827919006348,0.005125492811203003,0.39910298585891724,0.02969934046268463,-0.007555365562438965,0.17851388454437256
-0.24793021380901337,-0.07030206173658371,0.4325449764728546,0.050841137766838074,-0.03964477777481079,0.08766156435012817
-0.20128722488880157,-0.17002108693122864,0.39680570363998413,0.018237993121147156,-0.04185909032821655,0.008603453636169434
-0.13541370630264282,-0.16214963793754578,0.27514544129371643,-0.028914257884025574,-0.04538765549659729,-0.01528388261795044
-0.03511106222867966,-0.17988371849060059,0.09215062856674194,-0.05546015501022339,-0.04614761471748352,-0.060610055923461914
0.10168266296386719,-0.17822466790676117,-0.12728706002235413,-0.08174720406532288,-0.0633394718170166,-0.08150923252105713
0.217026486992836,-0.13762062788009644,-0.2643446624279022,-0.04060325026512146,-0.10344761610031128,-0.0786360502243042
0.24658280611038208,-0.11899743974208832,-0.29011601209640503,0.006829515099525452,-0.1287088394165039,-0.06149423122406006
0.2139769345521927,-0.1210658848285675,-0.23923560976982117,0.04296918213367462,-0.14448967576026917,-0.11026197671890259
0.3133462071418762,-0.2780785858631134,-0.20393812656402588,0.011607348918914795,-0.11159032583236694,-0.1778116226196289
0.39936503767967224,-0.39746955037117004,-0.24942614138126373,-0.06177641451358795,-0.12461927533149719,-0.05361074209213257
0.12915071845054626,-0.1143634170293808,-0.2275153249502182,-0.08461341261863708,-0.1496330201625824,0.11182582378387451
-0.2183423787355423,-0.05925452336668968,-0.11707285791635513,-0.028312981128692627,-0.11091193556785583,-0.09314149618148804
-0.20505483448505402,-0.4165206253528595,0.0038707079365849495,-0.05021736025810242,-0.06238982081413269,-0.26084864139556885
-0.10653174668550491,-0.4041253924369812,-0.08074700832366943,-0.15589414536952972,-0.007721424102783203,-0.1764429211616516
0.02772313915193081,-0.29231324791908264,-0.27127373218536377,-0.1539917141199112,0.06654903292655945,-0.13088268041610718
0.09373458474874496,-0.36387985944747925,-0.40211158990859985,-0.11830964684486389,0.10155725479125977,-0.0426030158996582
0.09308934956789017,-0.3250390887260437,-0.5067502856254578,-0.09165768325328827,0.0983586311340332,0.05144977569580078
0.10326642543077469,-0.26996856927871704,-0.5272851586341858,-0.08752359449863434,0.06638216972351074,0.13505619764328003
0.005410360172390938,-0.15713807940483093,-0.5013114213943481,-0.07636767625808716,0.046373993158340454,0.22117489576339722
-0.36284834146499634,-0.01529297698289156,-0.41290074586868286,-0.08012567460536957,0.04328674077987671,0.24620139598846436
-0.5817614197731018,-0.001866440288722515,-0.3586086332798004,-0.05443112552165985,0.06585681438446045,0.04680687189102173
-0.4090261459350586,-0.13009525835514069,-0.2352009266614914,-0.01681484282016754,0.05908897519111633,-0.14810609817504883
-0.1518239825963974,-0.16239388287067413,-0.2271472066640854,-0.05723780393600464,0.07159161567687988,-0.14956778287887573
0.0016412967815995216,-0.2507544159889221,-0.35826951265335083,-0.10054318606853485,0.07049834728240967,-0.066741943359375
0.08402997255325317,-0.30886298418045044,-0.43130141496658325,-0.060324206948280334,0.04174801707267761,0.06351929903030396
0.09342244267463684,-0.2107548862695694,-0.3914127051830292,-0.0036465227603912354,0.008065342903137207,0.14866703748703003
0.11618588119745255,-0.1382865160703659,-0.27005472779273987,0.031514689326286316,-0.00415492057800293,0.14630836248397827
0.14848452806472778,-0.08264211565256119,-0.20742271840572357,-0.005743667483329773,0.011445164680480957,0.1527917981147766
0.16171155869960785,-0.01663241721689701,-0.23327860236167908,-0.04242229461669922,0.03005528450012207,0.16981709003448486
0.1942400336265564,0.07164039462804794,-0.2573801577091217,-0.02979069948196411,0.025518864393234253,0.16317051649093628
0.10384752601385117,0.008854275569319725,-0.12709063291549683,0.015802040696144104,0.024745017290115356,0.17913591861724854
-0.03197019174695015,0.13270346820354462,-0.030212782323360443,-0.010191380977630615,0.024537742137908936,0.1475837230682373
-0.021440429612994194,0.2914307713508606,0.02006158046424389,-0.05879640579223633,0.020776808261871338,0.036205947399139404
-0.0025943804066628218,0.25534486770629883,-0.003755273763090372,-0.08043889701366425,0.028420358896255493,-0.0316501259803772
-0.04642445594072342,0.2630251348018646,-0.06598294526338577,-0.08793953061103821,0.01238560676574707,-0.06528693437576294
-0.03126706928014755,0.2745289206504822,-0.05687732622027397,-0.006140708923339844,-0.012250453233718872,-0.1376781463623047
-0.035563815385103226,0.2228364497423172,0.047015782445669174,0.03725637495517731,-0.05199667811393738,-0.17582976818084717
-0.025432085618376732,0.2905225455760956,0.1032196655869484,0.021748214960098267,-0.05079260468482971,-0.16222310066223145
0.0390104278922081,0.3796008229255676,0.14236943423748016,-0.008780062198638916,-0.08702504634857178,-0.13286232948303223
-0.07886281609535217,0.5602163672447205,0.2525865137577057,-0.016626372933387756,-0.08452802896499634,-0.010565221309661865
-0.5330749750137329,0.6578584313392639,0.3983755111694336,0.03449477255344391,-0.011119425296783447,-0.029811441898345947
-0.8231695294380188,0.47070473432540894,0.5195562839508057,0.057446256279945374,0.02960491180419922,-0.2926623821258545
-0.5194336771965027,0.2284185141324997,0.5310617685317993,0.023479759693145752,0.05848586559295654,-0.45841890573501587
0.05032173544168472,0.26095056533813477,0.3616653084754944,-0.03650766611099243,0.07700532674789429,-0.34596341848373413
0.3438319265842438,0.3102242052555084,0.19837193191051483,-0.017883509397506714,0.08475139737129211,-0.072548508644104
0.24211271107196808,0.2245025783777237,0.13015082478523254,0.012561693787574768,0.08037340641021729,0.11177647113800049
0.12022311240434647,0.2090686559677124,0.1187443733215332,0.03870612382888794,0.06848162412643433,0.15377116203308105
-0.014738930389285088,0.2050427794456482,0.1812460571527481,0.07379625737667084,0.07932445406913757,0.12779265642166138
-0.15924635529518127,0.3108633756637573,0.10573942214250565,0.023930057883262634,0.1109454333782196,0.07655841112136841
-0.21197658777236938,0.268829345703125,0.029132753610610962,0.03871767222881317,0.1006174087524414,-0.02913898229598999
-0.10188104957342148,0.15298813581466675,0.00572267035022378,0.052337273955345154,0.0446833074092865,-0.08573085069656372
0.10821274667978287,0.1742628961801529,0.05725341662764549,0.07079429924488068,0.00048601627349853516,-0.01942545175552368
0.11830178648233414,0.12649185955524445,0.14454735815525055,0.07536274939775467,-0.019735634326934814,0.07226830720901489
0.09414030611515045,-0.0028638988733291626,0.27605921030044556,0.07434384524822235,-0.017057955265045166,0.11257702112197876
0.037959933280944824,-0.04829945042729378,0.37875136733055115,0.043846532702445984,-0.0017225146293640137,0.1430615782737732
-0.029121611267328262,-0.09642636775970459,0.4151822030544281,0.011328130960464478,0.019852787256240845,0.12313473224639893
-0.04758266359567642,-0.08695097267627716,0.3972955048084259,-0.006435558199882507,0.03204721212387085,0.09616392850875854
-0.01665038801729679,-0.03775128722190857,0.28893500566482544,-0.003731176257133484,0.028929322957992554,0.06178748607635498
0.07159096002578735,0.01029190607368946,0.2530007064342499,0.03852128982543945,-0.00573575496673584,0.03323519229888916
0.06941699236631393,-0.13209663331508636,0.2565045654773712,0.039329156279563904,-0.01636826992034912,0.04208719730377197
-0.108393095433712,-0.3134806156158447,0.21757133305072784,0.028510451316833496,-0.023250997066497803,0.07335549592971802
-0.13321228325366974,-0.25796565413475037,0.07323416322469711,-0.021259307861328125,-0.02434903383255005,0.01170802116394043
0.021627133712172508,-0.18330897390842438,-0.16407595574855804,-0.0632028728723526,-0.03310263156890869,-0.06368714570999146
0.20679982006549835,-0.22593122720718384,-0.3615938723087311,-0.029811888933181763,-0.0682123601436615,-0.0763782262802124
0.2678440511226654,-0.28550124168395996,-0.34348124265670776,0.0934484601020813,-0.12189814448356628,-0.017643451690673828
0.169947549700737,-0.3173530697822571,-0.09746545553207397,0.16833609342575073,-0.16213393211364746,-0.0287705659866333
0.21121108531951904,-0.41326799988746643,0.11157259345054626,0.1597425490617752,-0.1612001657485962,-0.0677938461303711
0.2015010118484497,-0.4689790606498718,0.09681455790996552,0.06790263950824738,-0.09406012296676636,-0.07456159591674805
0.23718729615211487,-0.699054479598999,0.0036594471894204617,-0.007167920470237732,-0.03235507011413574,-0.0809587836265564
0.15408699214458466,-0.8062735199928284,0.05114167928695679,-0.007380828261375427,-0.06078600883483887,0.0021024346351623535
-0.5303619503974915,-0.7036511301994324,0.26262256503105164,-0.01934182643890381,-0.13974112272262573,0.26893389225006104
-0.9175840020179749,-0.7534985542297363,0.5160492062568665,0.033789023756980896,-0.13522061705589294,0.09112566709518433
-0.9902493357658386,-0.668303906917572,0.3994971811771393,-0.09661838412284851,-0.016296088695526123,-0.11478078365325928
-0.6555095911026001,-0.3609914481639862,-0.024234816431999207,-0.2441038191318512,0.08872672915458679,-0.22327262163162231
0.10110880434513092,-0.4416511356830597,-0.22180281579494476,-0.18839412927627563,0.07965561747550964,-0.40957289934158325
0.4399470090866089,-0.5996660590171814,-0.3019911050796509,-0.09161120653152466,0.07202693819999695,-0.3391357660293579
0.3217797875404358,-0.460243821144104,-0.3977601230144501,-0.09303471446037292,0.04976850748062134,0.008515357971191406
0.009763781912624836,-0.19711583852767944,-0.23978987336158752,-0.045556843280792236,-0.002309054136276245,0.17508536577224731
-0.4173174202442169,0.022552281618118286,-0.09378791600465775,0.00284382700920105,-0.03116917610168457,0.2139337658882141
-0.5425534844398499,0.1086353063583374,-0.08746986091136932,-0.030061781406402588,0.042927831411361694,0.00797581672668457
-0.291292279958725,-0.05407198145985603,-0.06945076584815979,-0.010782718658447266,0.051020681858062744,-0.23721587657928467
0.2277519702911377,-0.1806662678718567,-0.17516322433948517,0.017246484756469727,0.1237940788269043,-0.410173237323761
0.46237409114837646,-0.13113094866275787,-0.33577078580856323,-0.03507751226425171,0.13508892059326172,-0.2452080249786377
0.4944270849227905,-0.19143997132778168,-0.4669747054576874,-0.02076089382171631,0.14226830005645752,-0.06591743230819702
0.4054652154445648,-0.18914096057415009,-0.4976976215839386,0.0354040265083313,0.12071609497070312,0.09050166606903076
0.33763980865478516,-0.10685025155544281,-0.41082778573036194,0.08757704496383667,0.08560246229171753,0.1777830719947815
0.2908594012260437,-0.04898132011294365,-0.22556047141551971,0.14800307154655457,0.03607743978500366,0.21183925867080688
0.1533018946647644,0.044284459203481674,-0.07277154177427292,0.12282437086105347,0.03121638298034668,0.217648446559906
0.10075895488262177,0.13360494375228882,-0.05333278328180313,0.06285947561264038,0.04380956292152405,0.13138633966445923
0.1635601669549942,0.1844768077135086,-0.07091136276721954,0.05938613414764404,0.03201812505722046,0.06633961200714111
0.15626023709774017,0.19280102849006653,0.013339622877538204,0.0951714813709259,-0.009426295757293701,0.06959009170532227
0.12334533035755157,0.1803666651248932,0.21653297543525696,0.10534816980361938,-0.023970603942871094,0.033285677433013916
0.13524962961673737,0.22644388675689697,0.3277684450149536,0.03198552131652832,0.0018632709980010986,0.03405123949050903
0.07260524481534958,0.24132584035396576,0.2997579276561737,-0.005435556173324585,0.01020193099975586,0.023576319217681885
0.10060018301010132,0.23760710656642914,0.2532675266265869,-0.026392638683319092,-0.010660648345947266,-0.030428826808929443
0.15233440697193146,0.3007453382015228,0.1911277174949646,-0.03872516751289368,-0.020159870386123657,0.005386769771575928
0.043560925871133804,0.4230826795101166,0.1628742814064026,-0.03570219874382019,-0.030857115983963013,-0.004106760025024414
0.05552440881729126,0.3601987659931183,0.16621437668800354,-0.035359591245651245,-0.024280816316604614,-0.12694841623306274
0.1577317714691162,0.20861361920833588,0.10957629978656769,-0.07707548141479492,-0.020998269319534302,-0.13475161790847778
0.15050803124904633,0.31410789489746094,-0.05224088206887245,-0.12515470385551453,0.0072509050369262695,-0.0026319026947021484
-0.04679528996348381,0.8628625869750977,-0.17954042553901672,-0.09392134845256805,0.016721069812774658,0.10232460498809814
-0.6438976526260376,1.008352279663086,-0.11835801601409912,0.011714011430740356,0.03754165768623352,0.04917114973068237
-1.0513235330581665,0.8164542317390442,-0.030515208840370178,0.08963413536548615,0.03711491823196411,-0.2459213137626648
-0.732681930065155,0.5292057991027832,0.08018515259027481,0.0828961431980133,-0.0049009621143341064,-0.48916274309158325
-0.12449406087398529,0.38747912645339966,-0.03345714136958122,0.04603445529937744,0.03809690475463867,-0.4657515287399292
0.3727525472640991,0.44330689311027527,-0.14685074985027313,0.039489105343818665,0.013958752155303955,-0.26159238815307617
0.588070809841156,0.36395978927612305,-0.11782883107662201,0.06773918867111206,0.010945349931716919,-0.0319591760635376
0.41125524044036865,0.2641821801662445,-0.012981653213500977,0.09196394681930542,0.015765786170959473,0.14583814144134521
0.14817678928375244,0.3803863227367401,0.20089438557624817,0.10109750926494598,0.004266589879989624,0.17719978094100952
0.08983436226844788,0.38346800208091736,0.3609188497066498,0.10247725248336792,0.031479835510253906,0.035679638385772705
0.20156028866767883,0.28637656569480896,0.4133383631706238,0.058463454246520996,0.045526087284088135,-0.014676153659820557
0.24590688943862915,0.35487130284309387,0.37853530049324036,0.053278446197509766,0.0359424352645874,0.05077838897705078
0.3112627863883972,0.4501677453517914,0.38967955112457275,0.06959037482738495,0.024913549423217773,0.06823694705963135
0.31121090054512024,0.355940043926239,0.4727320969104767,0.08270673453807831,0.019473791122436523,0.10028588771820068
0.23090486228466034,0.2330390214920044,0.5525269508361816,0.05464830994606018,0.01125943660736084,0.11248105764389038
0.22046655416488647,0.19267576932907104,0.5283958315849304,-0.009370163083076477,0.020701706409454346,0.11913830041885376
0.2900319993495941,0.16485190391540527,0.4417266547679901,-0.016794681549072266,0.014065593481063843,0.11395972967147827
0.24195654690265656,0.06398844718933105,0.4661549925804138,0.04278607666492462,-0.004530429840087891,0.1528007984161377
-0.01715952157974243,-0.19340163469314575,0.6013429760932922,0.07825639843940735,-0.01602274179458618,0.13618230819702148
-0.1427619457244873,-0.39690539240837097,0.6276941299438477,-0.006323695182800293,-0.01002076268196106,0.038734614849090576
-0.06062914431095123,-0.43940746784210205,0.4270610809326172,-0.10040485858917236,0.004874229431152344,-0.004440784454345703
0.1703621745109558,-0.21848756074905396,0.14316003024578094,-0.09921577572822571,-0.02046990394592285,-0.012655138969421387
0.20847450196743011,-0.10863155126571655,0.012861337512731552,-0.03682975471019745,-0.0734066367149353,0.013060331344604492
0.17555652558803558,-0.27322253584861755,-0.048611413687467575,-0.0030393749475479126,-0.08890002965927124,-0.032770633697509766
0.2360493242740631,-0.3495577275753021,-0.09264712035655975,-0.011902689933776855,-0.11622822284698486,-0.055580198764801025
0.34861889481544495,-0.22788625955581665,-0.16156959533691406,-0.015162080526351929,-0.11499223113059998,-0.045751750469207764
0.32784438133239746,-0.20009171962738037,-0.17841273546218872,0.0023935437202453613,-0.09878051280975342,-0.022834062576293945
0.21715156733989716,-0.23831333220005035,-0.15662604570388794,0.0291660875082016,-0.06091493368148804,-0.04680836200714111
0.21788179874420166,-0.40731143951416016,-0.10911198705434799,0.010866940021514893,-0.0618973970413208,-0.09212362766265869
0.23470215499401093,-0.4286194145679474,-0.038468651473522186,-0.03053019940853119,-0.1218738853931427,0.013071954250335693
-0.022893749177455902,-0.1648651361465454,-0.021167587488889694,-0.03268824517726898,-0.07321023941040039,0.07634836435317993
-0.3592517673969269,-0.16284099221229553,0.02060847170650959,-0.021002575755119324,-0.025847584009170532,-0.08342427015304565
-0.24954165518283844,-0.2823359966278076,0.008964638225734234,-0.08934688568115234,0.007043600082397461,-0.20606112480163574
-0.09543243050575256,-0.3073836863040924,-0.09675978124141693,-0.118771031498909,0.05030393600463867,-0.1665588617324829
-0.01849534921348095,-0.3362228572368622,-0.1977500170469284,-0.07695241272449493,0.08016097545623779,-0.14695286750793457
0.2538871169090271,-0.276515394449234,-0.29123783111572266,-0.09774360060691833,0.09745082259178162,-0.10085189342498779
0.4989531636238098,-0.14156001806259155,-0.43751588463783264,-0.12041382491588593,0.11591613292694092,0.0623134970664978
0.4322863221168518,-0.13674494624137878,-0.4189302921295166,-0.08679357171058655,0.07477056980133057,0.20324981212615967
0.0674997940659523,-0.18077512085437775,-0.30506187677383423,-0.0451173335313797,0.07791781425476074,0.26387137174606323
-0.4307318925857544,-0.0721692368388176,-0.09460274875164032,-0.03411625325679779,0.07145988941192627,0.21862763166427612
-0.6915174126625061,0.04138075187802315,0.0017759716138243675,-0.030846595764160156,0.13788610696792603,-0.001471102237701416
-0.5816354751586914,-0.005653350614011288,-0.00033393967896699905,-0.07118053734302521,0.16038191318511963,-0.19403862953186035
-0.29827064275741577,-0.21142520010471344,-0.18719437718391418,-0.14491280913352966,0.1774696707725525,-0.22954058647155762
-0.07737521082162857,-0.303434282541275,-0.42892301082611084,-0.11632555723190308,0.13260698318481445,-0.12140065431594849
0.049641095101833344,-0.3100873827934265,-0.4658741354942322,-0.025290295481681824,0.058588385581970215,0.007341563701629639
0.07115890085697174,-0.15143467485904694,-0.44252002239227295,-0.009933054447174072,0.03991466760635376,0.1313103437423706
-0.014264151453971863,-0.04771116003394127,-0.4421061873435974,-0.015016749501228333,0.03567838668823242,0.16958242654800415
-0.007896266877651215,-0.027818145230412483,-0.4380030632019043,-0.011105835437774658,0.03270244598388672,0.11499851942062378
0.03251175209879875,-0.118357814848423,-0.3576279282569885,0.008342906832695007,0.005612224340438843,0.10548734664916992
0.03874322026968002,-0.07425983250141144,-0.25225067138671875,0.015311360359191895,-0.018527984619140625,0.12354183197021484
0.006394663359969854,-0.025968534871935844,-0.14291127026081085,-0.02298782765865326,-0.02311009168624878,0.13377326726913452
-0.10960868000984192,0.03174499049782753,-0.14950969815254211,-0.08320315182209015,0.00398021936416626,0.09473174810409546
-0.06555779278278351,0.02413991466164589,-0.2253100425004959,-0.13249023258686066,0.010370969772338867,-0.018905937671661377
0.07787191867828369,-0.026720253750681877,-0.30417749285697937,-0.15073437988758087,0.009874463081359863,-0.047727227210998535
0.08835090696811676,-0.03424808010458946,-0.32687440514564514,-0.11701151728630066,-0.008553266525268555,-0.001531362533569336
-0.05124666914343834,0.02340642549097538,-0.2984347939491272,-0.10749751329421997,-0.020557284355163574,0.060673415660858154
-0.17477822303771973,0.13169726729393005,-0.3680605888366699,-0.1407914012670517,0.0005463957786560059,0.015233337879180908
-0.12603400647640228,0.1368982195854187,-0.4645366072654724,-0.13576191663742065,0.009577631950378418,-0.08345580101013184
0.012387589551508427,0.10237912833690643,-0.5610215067863464,-0.09509223699569702,0.00790172815322876,-0.1311277151107788
0.16478383541107178,0.10942045599222183,-0.5426455140113831,-0.07841899991035461,-0.06394708156585693,-0.04451322555541992
-0.09994632750749588,0.3466145992279053,-0.40193459391593933,-0.06280370056629181,-0.04891854524612427,0.1354026198387146
-0.8468174934387207,0.44050872325897217,-0.2754732072353363,-0.02205255627632141,0.014420270919799805,0.06588822603225708
-1.1811963319778442,0.28666573762893677,-0.1840893179178238,-0.02623733878135681,0.058609843254089355,-0.3021528124809265
-0.5898234844207764,0.21174634993076324,-0.30751553177833557,-0.12419471144676208,0.10225540399551392,-0.5483075976371765
0.2927967309951782,-0.0554424449801445,-0.6796017289161682,-0.18748340010643005,0.1468145251274109,-0.44053250551223755
0.5654898285865784,-0.16664542257785797,-0.9053850173950195,-0.13621766865253448,0.09595155715942383,-0.09631502628326416
0.4770743250846863,-0.2177896350622177,-0.9202707409858704,-0.059830471873283386,0.08124417066574097,0.09833633899688721
0.15218406915664673,-0.11014316231012344,-0.7516603469848633,-0.02735133469104767,0.04440835118293762,0.19049817323684692
-0.29331737756729126,-0.15887320041656494,-0.6167639493942261,-0.05392658710479736,0.08168777823448181,0.10300469398498535
-0.4555390775203705,-0.3528767228126526,-0.6511635184288025,-0.1204349547624588,0.12207365036010742,-0.05440342426300049
-0.29404696822166443,-0.3694591820240021,-0.8140275478363037,-0.14476963877677917,0.1118415892124176,-0.15294146537780762
-0.021790381520986557,-0.4474961459636688,-0.8615591526031494,-0.10992284119129181,0.07693937420845032,-0.13869571685791016
-0.05513659119606018,-0.5613153576850891,-0.8271824717521667,-0.09282034635543823,0.06041198968887329,0.0026154518127441406
-0.21810640394687653,-0.6429314017295837,-0.826775074005127,-0.12893879413604736,0.06620708107948303,0.05768769979476929
-0.2146996557712555,-0.7230713963508606,-0.9035900235176086,-0.17962783575057983,0.0943467915058136,0.031990766525268555
-0.177044078707695,-0.7613710165023804,-1.0731509923934937,-0.20961561799049377,0.13301759958267212,0.04726743698120117
-0.1672825664281845,-0.7094566226005554,-1.2338948249816895,-0.19207322597503662,0.14897024631500244,0.05413615703582764
-0.19604423642158508,-0.7523398995399475,-1.3716524839401245,-0.19973020255565643,0.16544342041015625,0.049124717712402344
-0.30544769763946533,-0.923884391784668,-1.5518498420715332,-0.18471939861774445,0.1707896590232849,0.04664832353591919
-0.44511109590530396,-1.0162334442138672,-1.6603167057037354,-0.13911713659763336,0.16030684113502502,0.06642979383468628
-0.5787923336029053,-0.9800249338150024,-1.7713284492492676,-0.1501675844192505,0.1681051254272461,0.025507688522338867
-0.536233127117157,-0.9618675112724304,-1.988311767578125,-0.17329497635364532,0.1951356828212738,-0.08024996519088745
-0.4176480770111084,-1.0634512901306152,-2.1462039947509766,-0.15236720442771912,0.18971213698387146,-0.08946245908737183
-0.46222952008247375,-1.0813462734222412,-2.2506825923919678,-0.132757306098938,0.17518934607505798,-0.019186735153198242
-0.5175837874412537,-1.1357365846633911,-2.2821290493011475,-0.13375213742256165,0.158477783203125,-0.029738545417785645
-0.5841494202613831,-1.1623402833938599,-2.4168169498443604,-0.18814584612846375,0.20500987768173218,-0.045259714126586914
-0.5914230346679688,-1.1630141735076904,-2.624624490737915,-0.18398401141166687,0.2409273087978363,-0.10774654150009155
-0.3618644177913666,-0.9948059320449829,-2.749180793762207,-0.12960270047187805,0.2487308382987976,-0.18004244565963745
-0.002259231172502041,-0.860981285572052,-2.769958257675171,-0.09257737547159195,0.22636139392852783,-0.2207852602005005
0.17248030006885529,-0.8159201145172119,-2.8039350509643555,-0.1247875764966011,0.24875307083129883,-0.10677522420883179
-0.10217022150754929,-0.9731451869010925,-2.8894429206848145,-0.15627625584602356,0.26478832960128784,-0.0053705573081970215
-0.479693740606308,-1.2761013507843018,-2.9360101222991943,-0.12255418300628662,0.26075586676597595,-0.04157823324203491
-0.6877768039703369,-1.4915024042129517,-2.8582944869995117,-0.09381115436553955,0.18743547797203064,-0.08803164958953857
-0.8563036918640137,-1.4561877250671387,-2.708062171936035,-0.09092046320438385,0.14738178253173828,-0.08514547348022461
-0.8285727500915527,-1.215505838394165,-2.6072661876678467,-0.10088922828435898,0.16913428902626038,-0.20206314325332642
-0.6003746390342712,-1.1823488473892212,-2.538328170776367,-0.10715410858392715,0.21124815940856934,-0.30008357763290405
-0.2895307242870331,-1.2590479850769043,-2.5281262397766113,-0.13198958337306976,0.21136260032653809,-0.2934710383415222
-0.006494925357401371,-1.3978334665298462,-2.4822587966918945,-0.12730266153812408,0.18198662996292114,-0.17771267890930176
0.004197399597615004,-1.2753099203109741,-2.399118423461914,-0.13738387823104858,0.13674163818359375,0.008478760719299316
-0.1785486340522766,-1.174540400505066,-2.1781516075134277,-0.10629325360059738,0.08371579647064209,0.08043617010116577
-0.35232552886009216,-0.9657956957817078,-2.0086283683776855,-0.14891664683818817,0.08808019757270813,0.012293517589569092
-0.22050172090530396,-0.8804599046707153,-1.8947443962097168,-0.17804360389709473,0.08697783946990967,-0.13488930463790894
-0.13890022039413452,-0.9942469596862793,-1.8150982856750488,-0.22293493151664734,0.11890536546707153,-0.14587843418121338
-0.17745965719223022,-1.252402424812317,-1.8720940351486206,-0.26465481519699097,0.1443454623222351,-0.1197131872177124
-0.29224684834480286,-1.3898491859436035,-1.972516655921936,-0.2813573181629181,0.1537177562713623,-0.038296639919281006
-0.35999125242233276,-1.2271299362182617,-2.0321030616760254,-0.2325238585472107,0.12462037801742554,-0.00238037109375
-0.3056945204734802,-1.051268219947815,-2.0202624797821045,-0.2108345627784729,0.10790583491325378,-0.06947332620620728
-0.2026032954454422,-1.1523098945617676,-2.050629138946533,-0.2128082513809204,0.1454775035381317,-0.10808616876602173
-0.2047112137079239,-1.1978623867034912,-2.1650235652923584,-0.22413265705108643,0.16966912150382996,-0.04872399568557739
-0.21190722286701202,-1.231780767440796,-2.2692105770111084,-0.16605772078037262,0.17652255296707153,-0.04448336362838745
-0.2272479236125946,-1.1654746532440186,-2.271578788757324,-0.11107935011386871,0.15622982382774353,-0.0053594112396240234
-0.24959170818328857,-1.0777369737625122,-2.248162269592285,-0.08755572885274887,0.13558784127235413,0.020943939685821533
-0.2449573576450348,-1.0252865552902222,-2.2073118686676025,-0.07798232138156891,0.11825692653656006,0.024586141109466553
-0.29070407152175903,-1.0155835151672363,-2.1555187702178955,-0.05405262112617493,0.10877898335456848,0.032252728939056396
-0.26918932795524597,-1.0322967767715454,-2.0620999336242676,-0.043041378259658813,0.09143894910812378,-0.011632084846496582
