rotation_x,rotation_y,rotation_z,acceleration_x,acceleration_y,acceleration_z
0.04572983831167221,0.24764758348464966,1.0079904794692993,-0.0968744233250618,0.09322114288806915,-0.00041794776916503906
-0.06756158918142319,0.31608277559280396,0.9798348546028137,-0.08634086698293686,0.08488166332244873,0.011134505271911621
-0.047814711928367615,0.23570995032787323,0.9826921224594116,-0.07261354476213455,0.07540398836135864,-0.020048081874847412
0.06594693660736084,0.0699739158153534,0.989898145198822,-0.06884024292230606,0.06803947687149048,-0.019901573657989502
0.09629061818122864,0.024330155923962593,0.9646987915039062,-0.08580341190099716,0.06218348443508148,0.05260753631591797
0.018228480592370033,0.07872205227613449,0.8810405731201172,-0.10958532989025116,0.04706256091594696,0.12677443027496338
-0.05486089736223221,0.15668095648288727,0.81839519739151,-0.11158473789691925,0.02360251545906067,0.1543337106704712
-0.10611576586961746,0.23247317969799042,0.776604950428009,-0.10554549843072891,-0.004440143704414368,0.1463690996170044
-0.15204021334648132,0.2794226109981537,0.7495415806770325,-0.0986025333404541,-0.020633801817893982,0.12558269500732422
-0.1682514250278473,0.26474684476852417,0.6924376487731934,-0.0998312383890152,-0.021721765398979187,0.08632755279541016
-0.17808480560779572,0.2650708854198456,0.6389676928520203,-0.09360729157924652,-0.019341394305229187,0.06369054317474365
-0.14409597218036652,0.17304041981697083,0.5564145445823669,-0.09838567674160004,-0.021011680364608765,0.01848924160003662
-0.12111428380012512,0.13830044865608215,0.47302958369255066,-0.09182171523571014,-0.02348273992538452,0.002087891101837158
-0.11770227551460266,0.1475343555212021,0.42423078417778015,-0.09114903956651688,-0.04097504913806915,0.010353028774261475
-0.12409313768148422,0.150635227560997,0.37789198756217957,-0.08733929693698883,-0.05088762938976288,0.01508718729019165
-0.12451418489217758,0.14539892971515656,0.35426759719848633,-0.075526662170887,-0.055341243743896484,0.020634233951568604
-0.1426410675048828,0.14687080681324005,0.3203086256980896,-0.07804079353809357,-0.06673620641231537,0.029501795768737793
-0.07523451745510101,0.07130658626556396,0.272627055644989,-0.08711419254541397,-0.07276967167854309,-0.009656786918640137
-0.024560198187828064,0.015215231105685234,0.25265347957611084,-0.06655381619930267,-0.06721264123916626,-0.015885591506958008
-0.05890713259577751,0.025853993371129036,0.23613305389881134,-0.05985766649246216,-0.08038219809532166,0.006083488464355469
-0.06826980412006378,0.08982234448194504,0.22488826513290405,-0.06482307612895966,-0.09974801540374756,-0.005097806453704834
-0.00731071550399065,0.10681906342506409,0.21602322161197662,-0.061373040080070496,-0.09740763902664185,-0.03134512901306152
0.030944550409913063,0.07241801172494888,0.18732774257659912,-0.06180310249328613,-0.08698976039886475,-0.025026440620422363
0.04721831530332565,-0.0004568574368022382,0.159866064786911,-0.056823939085006714,-0.0769534707069397,-0.015457630157470703
0.052046045660972595,-0.03567934408783913,0.14765678346157074,-0.06128647178411484,-0.0802445113658905,0.0007089972496032715
0.00264935614541173,0.06862272322177887,0.15274955332279205,-0.06864860653877258,-0.08351266384124756,0.020557701587677002
-0.11299854516983032,0.3506369888782501,0.0992073118686676,-0.08352510631084442,-0.07684977352619171,-0.003056168556213379
-0.14662998914718628,0.39242470264434814,0.01246397104114294,-0.059748575091362,-0.043633878231048584,-0.11638772487640381
-0.06168152764439583,0.2673628032207489,-0.0649256631731987,-0.04229091852903366,-0.009584710001945496,-0.19958961009979248
0.13596902787685394,-0.06407739222049713,-0.196249321103096,-0.034538716077804565,-0.006499111652374268,-0.21238446235656738
0.21370217204093933,-0.1706114262342453,-0.23392723500728607,0.008998021483421326,0.012089669704437256,-0.11725902557373047
0.09886728227138519,0.00837008561939001,-0.24177245795726776,0.012584560550749302,-0.004982203245162964,0.0038847923278808594
0.011505849659442902,0.17966611683368683,-0.19020098447799683,0.028319284319877625,-0.0013971328735351562,0.04609537124633789
0.04866088181734085,0.2138478010892868,-0.10921331495046616,0.03065798431634903,0.01955181360244751,0.03407496213912964
0.13591870665550232,0.1260235756635666,-0.07687321305274963,0.0009815767407417297,0.03380003571510315,0.03975212574005127
0.17421847581863403,-0.011006719432771206,-0.05126752704381943,-0.02045583724975586,0.045982494950294495,0.07684600353240967
0.09776957333087921,-0.037262193858623505,-0.03346981853246689,-0.03168147802352905,0.052435681223869324,0.12815916538238525
-4.765857011079788e-05,0.0852978453040123,-0.04352959617972374,-0.03646811842918396,0.05043269693851471,0.13543719053268433
-0.03249987214803696,0.1831977814435959,-0.03373955190181732,-0.02815575897693634,0.05336339771747589,0.09295183420181274
-0.048818159848451614,0.17667126655578613,-0.037104491144418716,-0.03348902612924576,0.05577312409877777,0.05437445640563965
-0.07968270778656006,0.09521569311618805,-0.0421685054898262,-0.05471988022327423,0.03828907012939453,0.024514973163604736
-0.14143696427345276,-0.00933526549488306,-0.06039643660187721,-0.07156562805175781,0.03348228335380554,0.012810111045837402
-0.1835419237613678,-0.08813877403736115,-0.1327090859413147,-0.09102224558591843,0.03569254279136658,0.0033359527587890625
-0.12763366103172302,-0.12387999147176743,-0.2679572105407715,-0.11522375792264938,0.041133686900138855,-0.01751554012298584
-0.03160862252116203,-0.16270454227924347,-0.42332953214645386,-0.1266973316669464,0.039174795150756836,-0.008343517780303955
-0.014567181468009949,-0.15215200185775757,-0.55633544921875,-0.1355382800102234,0.021625161170959473,0.030278921127319336
-0.02292283996939659,-0.10868395119905472,-0.643025279045105,-0.13315510749816895,0.0057776570320129395,0.05019897222518921
-0.03179972618818283,-0.10693364590406418,-0.7028989791870117,-0.12320856004953384,0.010221362113952637,0.05004429817199707
-0.05612848326563835,-0.13227276504039764,-0.779930055141449,-0.12824341654777527,0.015989795327186584,0.05011320114135742
-0.08245085924863815,-0.16730372607707977,-0.8609378933906555,-0.13671055436134338,0.017028436064720154,0.04820150136947632
-0.09309684485197067,-0.2083614021539688,-0.9655314087867737,-0.14324331283569336,0.024431005120277405,0.04283905029296875
-0.0826551765203476,-0.20091088116168976,-1.098427176475525,-0.14664475619792938,0.03293734788894653,0.03303718566894531
-0.044696833938360214,-0.19850675761699677,-1.2253165245056152,-0.126320943236351,0.03366668522357941,0.022918701171875
-0.009723644703626633,-0.2112002819776535,-1.2916042804718018,-0.09020793437957764,0.02965758740901947,0.017389237880706787
0.0032097026705741882,-0.21111080050468445,-1.2840948104858398,-0.06648245453834534,0.015939250588417053,0.026817679405212402
-0.027904650196433067,-0.20651721954345703,-1.2705665826797485,-0.06326617300510406,0.0034733563661575317,0.0358583927154541
-0.06621759384870529,-0.2052261382341385,-1.2655889987945557,-0.06875830888748169,0.007404237985610962,0.02164405584335327
-0.07469393312931061,-0.2438988834619522,-1.302445888519287,-0.0803770124912262,0.01819726824760437,-0.007905960083007812
-0.04754175245761871,-0.29306715726852417,-1.3563498258590698,-0.08407293260097504,0.027961835265159607,-0.031824469566345215
-0.005756164435297251,-0.3398612439632416,-1.3918042182922363,-0.07849369943141937,0.027635619044303894,-0.048148393630981445
0.019000699743628502,-0.35904693603515625,-1.388063669204712,-0.06322266906499863,0.0242166668176651,-0.048130571842193604
0.03173946961760521,-0.37013429403305054,-1.3637124300003052,-0.060830533504486084,0.023943230509757996,-0.047135353088378906
0.03647236526012421,-0.4044879376888275,-1.3771615028381348,-0.07032597064971924,0.033202797174453735,-0.05127018690109253
0.06780087202787399,-0.468143492937088,-1.4145262241363525,-0.07116267830133438,0.05034869909286499,-0.055154502391815186
0.09656043350696564,-0.5325046181678772,-1.4229897260665894,-0.06595083326101303,0.05990348756313324,-0.03711742162704468
0.04653817415237427,-0.6082674860954285,-1.3978846073150635,-0.07254701852798462,0.054755210876464844,0.007523596286773682
-0.12398086488246918,-0.5951511263847351,-1.3821134567260742,-0.08710407465696335,0.05113258957862854,0.041729629039764404
-0.30585071444511414,-0.35526058077812195,-1.3942126035690308,-0.09186561405658722,0.06733116507530212,0.010810315608978271
-0.29889336228370667,-0.1842534989118576,-1.423887014389038,-0.08367927372455597,0.098724365234375,-0.11191165447235107
-0.04076382517814636,-0.29527974128723145,-1.4832097291946411,-0.10061151534318924,0.10817332565784454,-0.22081470489501953
0.2151995748281479,-0.5517386794090271,-1.5950071811676025,-0.11669864505529404,0.13547827303409576,-0.20791667699813843
0.23697634041309357,-0.7057701349258423,-1.729081630706787,-0.11556040495634079,0.15168781578540802,-0.07832366228103638
0.07624346762895584,-0.7271683812141418,-1.8043506145477295,-0.0861605554819107,0.13199482858181,0.04289788007736206
-0.0733434334397316,-0.5910695195198059,-1.7899503707885742,-0.0594274066388607,0.09077915549278259,0.08257800340652466
-0.08244027197360992,-0.38779136538505554,-1.7128422260284424,-0.033969469368457794,0.06656675040721893,0.05708867311477661
-0.052593886852264404,-0.1780683696269989,-1.6138410568237305,-0.027094151824712753,0.07647140324115753,0.02639859914779663
-0.08002060651779175,-0.039883822202682495,-1.5688483715057373,-0.04618975147604942,0.10239897668361664,0.0038841962814331055
-0.13906799256801605,-0.017158307135105133,-1.5365005731582642,-0.05738292634487152,0.13911834359169006,-0.03583037853240967
-0.17521804571151733,-0.08962666243314743,-1.501405119895935,-0.06284043192863464,0.16174152493476868,-0.08921480178833008
-0.09986665099859238,-0.2028651088476181,-1.4722926616668701,-0.0692039206624031,0.16831742227077484,-0.14420807361602783
0.06292072683572769,-0.3371424376964569,-1.4850170612335205,-0.0782451406121254,0.15740767121315002,-0.16346758604049683
0.16813431680202484,-0.5545037984848022,-1.5263092517852783,-0.038791291415691376,0.17845836281776428,-0.10732954740524292
0.2200041264295578,-0.6968067288398743,-1.4957666397094727,-0.008019628003239632,0.16284357011318207,0.004506587982177734
0.1395391821861267,-0.7155560255050659,-1.370353102684021,0.0016932934522628784,0.1331125646829605,0.12957090139389038
-0.02483486197888851,-0.6205989718437195,-1.2176127433776855,0.00787322223186493,0.10828326642513275,0.2125580906867981
-0.20834960043430328,-0.41368988156318665,-1.0607190132141113,-0.003670930862426758,0.0875283032655716,0.24134600162506104
-0.3049486577510834,-0.21043026447296143,-0.9593310356140137,-0.04875084012746811,0.07289054989814758,0.2116972804069519
-0.2962808609008789,-0.03219104930758476,-0.9449403882026672,-0.09834696352481842,0.07608012855052948,0.13814282417297363
-0.2944280505180359,0.022034626454114914,-0.968977153301239,-0.11252501606941223,0.10070370137691498,0.06385934352874756
-0.3050253093242645,-0.0042763976380229,-1.0322664976119995,-0.12076793611049652,0.10354572534561157,-0.000512540340423584
-0.24135105311870575,-0.16891278326511383,-1.0705146789550781,-0.11913412809371948,0.09225468337535858,-0.062461018562316895
-0.15053915977478027,-0.3529677093029022,-1.0694332122802734,-0.10496945679187775,0.08497154712677002,-0.08219385147094727
-0.11772434413433075,-0.38993167877197266,-1.0560927391052246,-0.09786179661750793,0.06795750558376312,-0.04313230514526367
-0.10134357959032059,-0.30980321764945984,-1.0430622100830078,-0.08681049942970276,0.04955263435840607,-0.007188200950622559
-0.04662699997425079,-0.12150716036558151,-1.0113383531570435,-0.07836036384105682,0.034733906388282776,0.00695192813873291
0.005823510233312845,0.05861472338438034,-0.955088198184967,-0.07526183128356934,0.016997575759887695,0.0030577778816223145
-0.009670738130807877,0.13701070845127106,-0.8843491673469543,-0.06829872727394104,0.017958760261535645,-0.011201202869415283
-0.0408903993666172,0.07363052666187286,-0.7955312132835388,-0.05468011647462845,0.024652287364006042,-0.036433517932891846
-0.055110398679971695,-0.058397326618433,-0.7045097351074219,-0.05519764497876167,0.03299182653427124,-0.04970663785934448
-0.06556516140699387,-0.1017768383026123,-0.6866310238838196,-0.07935230433940887,0.04346597194671631,-0.035394370555877686
-0.07424183189868927,-0.016473893076181412,-0.7183452844619751,-0.09492170810699463,0.04865598678588867,-0.014654278755187988
-0.05995559319853783,0.1283048838376999,-0.7421035766601562,-0.09261146932840347,0.0453653484582901,-0.022055983543395996
-0.02410314604640007,0.25488388538360596,-0.7259166836738586,-0.08495122939348221,0.02969057857990265,-0.05333954095840454
0.02222791127860546,0.32055720686912537,-0.6860554814338684,-0.06755716353654861,0.02416214346885681,-0.10656481981277466
0.05387385934591293,0.2670254409313202,-0.6197560429573059,-0.04079674929380417,0.04072411358356476,-0.15613538026809692
0.06204649433493614,0.07578793168067932,-0.5633987188339233,-0.030186954885721207,0.04982320964336395,-0.17072045803070068
0.0681726485490799,-0.0872185230255127,-0.5127587914466858,-0.029219258576631546,0.04795120656490326,-0.1424371600151062
0.040802743285894394,-0.09615688025951385,-0.4328651428222656,-0.02016262337565422,0.05400140583515167,-0.0760962963104248
0.011935137212276459,-0.05516809970140457,-0.3671019375324249,-0.02677243947982788,0.052944496273994446,-0.02070462703704834
0.040319181978702545,-0.07084015011787415,-0.3468085825443268,-0.049761198461055756,0.060804665088653564,0.009049594402313232
0.10272201895713806,-0.16591517627239227,-0.39341941475868225,-0.08156535774469376,0.06828451156616211,0.03676408529281616
0.13664741814136505,-0.20906123518943787,-0.463396817445755,-0.09026102721691132,0.07630382478237152,0.07939022779464722
0.12310664355754852,-0.14855057001113892,-0.5361445546150208,-0.0906844288110733,0.07437144219875336,0.11627751588821411
0.06408035755157471,-0.001968188676983118,-0.5971840023994446,-0.09006045758724213,0.06398789584636688,0.12356436252593994
-0.006366923451423645,0.13444784283638,-0.6508713960647583,-0.07912224531173706,0.06275960803031921,0.09168261289596558
-0.01041758619248867,0.13211458921432495,-0.6727139949798584,-0.053796473890542984,0.07007072865962982,0.017161846160888672
0.025643648579716682,-0.011319180019199848,-0.6388797760009766,-0.028027478605508804,0.08112184703350067,-0.04266643524169922
0.009800073690712452,-0.14652803540229797,-0.6229548454284668,-0.04773484170436859,0.07627840340137482,-0.0484083890914917
0.008684182539582253,-0.2598033845424652,-0.7044793367385864,-0.09076812118291855,0.07154719531536102,-0.037556469440460205
0.04355677217245102,-0.33168458938598633,-0.8094028830528259,-0.10239163786172867,0.07046595215797424,-0.002509176731109619
0.04348708689212799,-0.3257448673248291,-0.8782537579536438,-0.09963110089302063,0.054865241050720215,0.056929707527160645
-0.02619026228785515,-0.21516749262809753,-0.9003220200538635,-0.09549683332443237,0.026629820466041565,0.1129993200302124
-0.08626042306423187,-0.10194730758666992,-0.8849908113479614,-0.08890557289123535,0.013511911034584045,0.12001138925552368
-0.10556221008300781,-0.07351946085691452,-0.8402738571166992,-0.07941804081201553,0.012886807322502136,0.08955097198486328
-0.12796570360660553,-0.11143697053194046,-0.8349737524986267,-0.08552058041095734,0.031172066926956177,0.06632518768310547
-0.178669273853302,-0.1729036271572113,-0.8814254403114319,-0.10650070011615753,0.04336133599281311,0.04956257343292236
-0.22651562094688416,-0.23196941614151,-0.9569137096405029,-0.11702737957239151,0.030402332544326782,0.03212690353393555
-0.2633278965950012,-0.2727430462837219,-1.023672342300415,-0.10955365002155304,0.016077294945716858,0.017651140689849854
-0.24669162929058075,-0.23852087557315826,-1.0679713487625122,-0.09836307168006897,0.0009445548057556152,-0.003257155418395996
-0.15670788288116455,-0.14673462510108948,-1.0958982706069946,-0.08553233742713928,-0.0015612095594406128,-0.026779532432556152
-0.02531789243221283,-0.006688984576612711,-1.1469696760177612,-0.08788330852985382,0.0026509761810302734,-0.03734266757965088
0.0561428964138031,0.04962094500660896,-1.1996525526046753,-0.07800796627998352,0.012689664959907532,-0.032562434673309326
0.06732461601495743,-0.04267134144902229,-1.2016865015029907,-0.04998442530632019,0.010682806372642517,-0.019861817359924316
0.03386731445789337,-0.16333431005477905,-1.106574535369873,-0.016237877309322357,-0.005465909838676453,0.0069162845611572266
-0.004249516874551773,-0.1810474395751953,-0.9647946953773499,-0.008576013147830963,-0.02455514669418335,0.04213374853134155
-0.03008504956960678,-0.12974682450294495,-0.8582262992858887,-0.018007099628448486,-0.0267011821269989,0.06125706434249878
0.004001060966402292,-0.10836222022771835,-0.8218942880630493,-0.04530859738588333,-0.02091895043849945,0.055240631103515625
0.05097360908985138,-0.13681015372276306,-0.8299005627632141,-0.07798853516578674,-0.01776956021785736,0.050766944885253906
0.03438360244035721,-0.21419598162174225,-0.8488655090332031,-0.08859792351722717,-0.02258436381816864,0.05406993627548218
-0.020138869062066078,-0.2527875602245331,-0.8527253866195679,-0.08549332618713379,-0.02914285659790039,0.051743268966674805
-0.031225163489580154,-0.26500239968299866,-0.8264191150665283,-0.06562337279319763,-0.031618088483810425,0.021908044815063477
0.01747191697359085,-0.2674095034599304,-0.7900379300117493,-0.04831407219171524,-0.035643577575683594,-0.015763700008392334
0.09306886792182922,-0.28347790241241455,-0.7868551015853882,-0.052675843238830566,-0.03241690993309021,-0.042110979557037354
0.10389485955238342,-0.3625841438770294,-0.7563429474830627,-0.04441946744918823,-0.0215570330619812,-0.03658413887023926
-0.033061567693948746,-0.2879278361797333,-0.6909456849098206,-0.04956531524658203,-0.040307074785232544,-0.027999401092529297
-0.10329712182283401,-0.17353402078151703,-0.6208909153938293,-0.02223941683769226,-0.03172670304775238,-0.10582840442657471
0.04081059619784355,-0.2934671640396118,-0.4995293915271759,0.021844103932380676,0.01095736026763916,-0.21331894397735596
0.1958824098110199,-0.4628106355667114,-0.41281458735466003,0.00607067346572876,0.026625320315361023,-0.20489919185638428
0.15771371126174927,-0.47996971011161804,-0.3961252272129059,-0.03909309208393097,0.02587100863456726,-0.0961984395980835
0.003922631032764912,-0.4117809534072876,-0.38963639736175537,-0.03549714386463165,0.05043424665927887,-0.009747564792633057
-0.12850499153137207,-0.3595738112926483,-0.3455637991428375,-0.027072269469499588,0.06444351375102997,0.030439138412475586
-0.20390012860298157,-0.3490108549594879,-0.32025089859962463,-0.02823440358042717,0.06720004975795746,0.03845745325088501
-0.2083313912153244,-0.3837522268295288,-0.3243085443973541,-0.04401556774973869,0.07132557034492493,0.04312354326248169
-0.2450595647096634,-0.3322397470474243,-0.3727308511734009,-0.060158900916576385,0.08072663843631744,0.06415426731109619
-0.2833145558834076,-0.18698306381702423,-0.5048134326934814,-0.0809384286403656,0.09141257405281067,0.058759868144989014
-0.24812479317188263,-0.11307062208652496,-0.6364558935165405,-0.059168606996536255,0.10889604687690735,0.010341942310333252
-0.18173882365226746,-0.036841459572315216,-0.7539185285568237,-0.03051326423883438,0.11018572747707367,-0.038119494915008545
-0.08821049332618713,0.02535215951502323,-0.8001898527145386,0.006382092833518982,0.10077078640460968,-0.08038949966430664
0.001475281547755003,0.01228472962975502,-0.7274126410484314,0.0482061393558979,0.09227177500724792,-0.09519714117050171
0.005641967989504337,-0.12464053928852081,-0.5960284471511841,0.05930275470018387,0.07985629141330719,-0.06278204917907715
-0.029522143304347992,-0.3057674467563629,-0.495247483253479,0.03692351281642914,0.07016664743423462,-0.002651035785675049
-0.05450979620218277,-0.3839712142944336,-0.43256208300590515,0.024137988686561584,0.07274489104747772,0.05973458290100098
-0.05882346257567406,-0.2936154901981354,-0.40383264422416687,0.020116403698921204,0.07311992347240448,0.11983621120452881
-0.054451726377010345,-0.08571923524141312,-0.35826992988586426,0.020629078149795532,0.06215803325176239,0.1509527564048767
-0.04774091765284538,0.1142183318734169,-0.3275582790374756,0.0003441646695137024,0.04626867175102234,0.1468796730041504
-0.03134072571992874,0.18051110208034515,-0.3185581564903259,-0.025136560201644897,0.038788288831710815,0.11338037252426147
-0.061161722987890244,0.10107144713401794,-0.29400667548179626,-0.022879164665937424,0.04667811095714569,0.08059728145599365
-0.12091782689094543,-0.022475695237517357,-0.2535906732082367,-0.021028123795986176,0.030979454517364502,0.058861494064331055
-0.15531672537326813,-0.10811205953359604,-0.17622315883636475,-0.018397077918052673,0.01245829463005066,0.03993093967437744
-0.12303309142589569,-0.12799867987632751,-0.12795628607273102,-0.03047165647149086,-0.00538007915019989,0.014580786228179932
-0.028835389763116837,-0.05696900561451912,-0.12018488347530365,-0.046938300132751465,-0.01390451192855835,-0.004505515098571777
0.076170913875103,0.09315292537212372,-0.13608352839946747,-0.056869640946388245,-0.017413899302482605,-0.011011838912963867
0.11893487721681595,0.20994694530963898,-0.13988885283470154,-0.06489114463329315,-0.022103160619735718,-0.013639748096466064
0.0784560889005661,0.19533976912498474,-0.13508328795433044,-0.058510780334472656,-0.0288621187210083,-0.03102046251296997
0.07400523871183395,0.080919548869133,-0.12323541939258575,-0.045964159071445465,-0.03552427887916565,-0.07314199209213257
0.14604586362838745,-0.0271320641040802,-0.12115222215652466,-0.039327941834926605,-0.031097352504730225,-0.09455841779708862
0.19094951450824738,-0.03446270525455475,-0.1272987574338913,-0.03236987441778183,-0.019868969917297363,-0.053126633167266846
0.13740034401416779,0.08704879134893417,-0.14613527059555054,-0.03628108277916908,-0.023061096668243408,0.006627082824707031
0.03406473249197006,0.2678351402282715,-0.13960926234722137,-0.051995281130075455,-0.0440334677696228,0.022970497608184814
-0.08967211097478867,0.5262678265571594,-0.06418952345848083,-0.03314443305134773,-0.06094340980052948,-0.01748901605606079
-0.19738462567329407,0.6099812984466553,0.13229480385780334,0.04037043824791908,-0.0313238650560379,-0.13499963283538818
-0.142115980386734,0.35351964831352234,0.278347373008728,0.03786996006965637,-0.005403250455856323,-0.24823081493377686
0.006561851594597101,-0.011673061177134514,0.27323007583618164,-0.033006228506565094,0.030636638402938843,-0.25053876638412476
0.05149007961153984,-0.25858446955680847,0.12791770696640015,-0.06668680906295776,0.07968148589134216,-0.14842450618743896
0.08873455226421356,-0.3006320893764496,-0.06632804870605469,-0.06453638523817062,0.08561524748802185,-0.049414753913879395
0.2419794797897339,-0.2263888716697693,-0.16093626618385315,-0.0397958979010582,0.060088396072387695,0.01832747459411621
0.3775213360786438,-0.1044326201081276,-0.1312156617641449,-0.0006542913615703583,0.04136316478252411,0.08762633800506592
0.34737810492515564,0.06470441073179245,-0.016034629195928574,0.0305330827832222,0.024913758039474487,0.15258997678756714
0.15368759632110596,0.2713586986064911,0.1387142688035965,0.04493965953588486,0.022216737270355225,0.16095435619354248
-0.042489856481552124,0.3384949564933777,0.2850784957408905,0.05321110039949417,0.048923999071121216,0.09312385320663452
-0.16800208389759064,0.2128095030784607,0.3681854009628296,0.03353185951709747,0.08816495537757874,0.0005703568458557129
-0.19499213993549347,-0.040941834449768066,0.30442100763320923,-0.018705181777477264,0.1178867369890213,-0.06730329990386963
-0.04944073408842087,-0.2999812960624695,0.0873856171965599,-0.09127417206764221,0.116443932056427,-0.08128607273101807
0.12345080822706223,-0.39562520384788513,-0.17724519968032837,-0.12083297967910767,0.11056892573833466,-0.009948909282684326
0.15233607590198517,-0.2746758460998535,-0.3927847743034363,-0.08097679913043976,0.0975128710269928,0.10971492528915405
0.08356080949306488,-0.040937453508377075,-0.46379613876342773,-0.03152189031243324,0.059063494205474854,0.18636584281921387
-0.018510490655899048,0.14684614539146423,-0.4204746186733246,0.009333506226539612,0.026487231254577637,0.19402986764907837
-0.10588766634464264,0.1783047467470169,-0.3348586857318878,0.030812658369541168,0.012110412120819092,0.15549957752227783
-0.17126798629760742,0.07941634207963943,-0.2673940062522888,0.03145277500152588,0.011945903301239014,0.10658800601959229
-0.22190280258655548,-0.03482053428888321,-0.2636691629886627,0.02195078879594803,0.01534298062324524,0.07038098573684692
-0.23867884278297424,-0.07539180666208267,-0.2952859699726105,0.01625271514058113,0.00537852942943573,0.048753201961517334
-0.20316387712955475,-0.08260136842727661,-0.30453693866729736,0.02176836133003235,-0.018217504024505615,0.028213322162628174
-0.14604775607585907,-0.08186610043048859,-0.27505382895469666,0.019666317850351334,-0.048905640840530396,0.024393856525421143
-0.12192461639642715,-0.11044883728027344,-0.22929368913173676,0.013747449964284897,-0.06652873754501343,0.041080474853515625
-0.14929348230361938,-0.11984159052371979,-0.2430184781551361,0.0006394907832145691,-0.0676618218421936,0.057891011238098145
-0.18519049882888794,-0.12742972373962402,-0.29172104597091675,-0.004410542547702789,-0.07106579840183258,0.054221391677856445
-0.13140663504600525,-0.09704603999853134,-0.3480704128742218,-0.00958983600139618,-0.08120386302471161,0.019912779331207275
-0.012540606781840324,-0.052973147481679916,-0.3737488389015198,-0.007222466170787811,-0.09228497743606567,-0.008551359176635742
0.07808144390583038,-0.008501434698700905,-0.3970280885696411,0.0012697391211986542,-0.09487655758857727,-0.022117912769317627
0.13035359978675842,0.003494222881272435,-0.41936254501342773,0.007867176085710526,-0.08826212584972382,-0.03002631664276123
0.13264569640159607,-0.053679559379816055,-0.4322003722190857,0.02878434583544731,-0.07783716917037964,-0.045644283294677734
0.12261340767145157,-0.1466519683599472,-0.42540040612220764,0.05408797040581703,-0.0661800354719162,-0.06427246332168579
0.1166054755449295,-0.1789957880973816,-0.3633629381656647,0.07004982233047485,-0.06891289353370667,-0.07165277004241943
0.11569381505250931,-0.2195812165737152,-0.2711107134819031,0.06744982302188873,-0.08008265495300293,-0.07526242733001709
0.14989370107650757,-0.33830562233924866,-0.17710885405540466,0.05159040912985802,-0.07628485560417175,-0.07360333204269409
0.09020975977182388,-0.3977982699871063,-0.0851215124130249,0.021406397223472595,-0.06438162922859192,-0.02152460813522339
-0.14024583995342255,-0.20844164490699768,-0.04846809431910515,-0.005855970084667206,-0.057405486702919006,0.021382272243499756
-0.2829285264015198,-0.03414662927389145,-0.03285079076886177,-0.013493545353412628,-0.03804421424865723,-0.038598597049713135
-0.2128916233778,-0.11608808487653732,-0.027862943708896637,-0.020479924976825714,-0.004603266716003418,-0.14763879776000977
-0.10678932070732117,-0.24321815371513367,-0.07832623273134232,-0.03672900050878525,0.01896558701992035,-0.17853045463562012
-0.06987284123897552,-0.2712777554988861,-0.15710440278053284,-0.03630376607179642,0.05619470775127411,-0.14516520500183105
-0.05610452964901924,-0.2597440183162689,-0.18768000602722168,-0.012870699167251587,0.07901507616043091,-0.10217750072479248
-0.007451603654772043,-0.28641337156295776,-0.1880282312631607,-0.021457567811012268,0.07361263036727905,-0.05928695201873779
0.017912596464157104,-0.3378250300884247,-0.21177852153778076,-0.030827291309833527,0.07350817322731018,-0.00016742944717407227
0.010884653776884079,-0.31120142340660095,-0.26871374249458313,-0.031675785779953,0.0718756914138794,0.05627262592315674
-0.0062233200296759605,-0.10593630373477936,-0.32837244868278503,-0.03584776818752289,0.0621849000453949,0.09001630544662476
-0.019203972071409225,0.18084664642810822,-0.3776804506778717,-0.0339227020740509,0.0521896630525589,0.07645148038864136
0.031381845474243164,0.3076481521129608,-0.3858094811439514,0.0008410513401031494,0.05289947986602783,0.0018249750137329102
0.1041291132569313,0.316999614238739,-0.3011147081851959,0.049121081829071045,0.060886532068252563,-0.07812231779098511
0.17047861218452454,0.15144222974777222,-0.19727642834186554,0.06831327825784683,0.059978410601615906,-0.12380582094192505
0.261322021484375,-0.14303436875343323,-0.11601708829402924,0.06370387971401215,0.05338110029697418,-0.12118774652481079
0.34408509731292725,-0.3335898220539093,-0.04181372746825218,0.04782800376415253,0.047327920794487,-0.0386432409286499
0.330389142036438,-0.2894131541252136,-0.01256609708070755,0.029461145401000977,0.04021094739437103,0.08599716424942017
0.2898775041103363,-0.08997637033462524,0.006720253732055426,0.018240153789520264,0.029307842254638672,0.15980195999145508
0.290102481842041,0.12179292738437653,0.035585422068834305,0.011331550776958466,0.018038690090179443,0.16573196649551392
0.3064183294773102,0.199407696723938,0.0657377764582634,0.002709910273551941,0.015646696090698242,0.14323776960372925
0.26294034719467163,0.16895519196987152,0.08383893221616745,-0.0032871365547180176,0.021657392382621765,0.12824475765228271
0.17484955489635468,0.12972186505794525,0.11332522332668304,0.003851078450679779,0.02653217315673828,0.11018937826156616
0.11686613410711288,0.0871787965297699,0.1709374189376831,0.012213543057441711,0.02757902443408966,0.07834804058074951
0.1359712928533554,0.027856038883328438,0.21357257664203644,-0.0041763558983802795,0.022487223148345947,0.03425842523574829
0.22469110786914825,0.003432563040405512,0.1751280426979065,-0.03796154260635376,0.018014252185821533,0.016489267349243164
0.29022476077079773,0.04428442567586899,0.11050722002983093,-0.05162739008665085,0.021484792232513428,0.029514729976654053
0.2707574963569641,0.14178691804409027,0.07215823233127594,-0.04118220508098602,0.015337452292442322,0.05040299892425537
0.18486905097961426,0.22571760416030884,0.10462109744548798,-0.02280958741903305,0.0018341243267059326,0.048722028732299805
0.09329376369714737,0.2630356252193451,0.20485348999500275,-0.0020598992705345154,-0.007692411541938782,0.012018144130706787
0.06355956196784973,0.24313361942768097,0.28200992941856384,-0.0064565688371658325,-0.0051926374435424805,-0.043704330921173096
0.06844604760408401,0.18033121526241302,0.28867587447166443,-0.01926085352897644,0.018468603491783142,-0.0752069354057312
0.07683996111154556,0.12311636656522751,0.2395324558019638,-0.03375700116157532,0.03602658212184906,-0.07586175203323364
0.059902362525463104,0.14339929819107056,0.19349157810211182,-0.046679891645908356,0.03138703107833862,-0.05726051330566406
0.01980188488960266,0.22769580781459808,0.15279114246368408,-0.046701885759830475,0.01318405568599701,-0.04705369472503662
0.01758243702352047,0.2668067514896393,0.1683240383863449,-0.020096614956855774,-0.001969382166862488,-0.06733089685440063
-0.04237581044435501,0.37815162539482117,0.2797851860523224,0.015908777713775635,-0.005838871002197266,-0.07815885543823242
-0.13290555775165558,0.4225344955921173,0.4112110137939453,0.050287216901779175,0.019685298204421997,-0.11251789331436157
-0.10148981958627701,0.170241579413414,0.49620452523231506,0.047317348420619965,0.05265195667743683,-0.16633951663970947
0.07252741605043411,-0.2644224762916565,0.4753001034259796,0.002025894820690155,0.0686209499835968,-0.14527606964111328
0.09352625906467438,-0.2996446490287781,0.4131174385547638,-0.01732867956161499,0.07804566621780396,0.001458883285522461
-0.006297063082456589,-0.09619197249412537,0.35189464688301086,-0.0079546719789505,0.058590054512023926,0.11916571855545044
0.004719609394669533,0.05091748759150505,0.3781343698501587,0.021710708737373352,0.05149267613887787,0.12638092041015625
0.10172632336616516,0.05206489935517311,0.4249281883239746,0.029932189732789993,0.04848878085613251,0.10800617933273315
0.03635052591562271,0.14256501197814941,0.4236084222793579,0.0073798298835754395,0.05542948842048645,0.1394420862197876
-0.13260182738304138,0.289011687040329,0.3291557729244232,-0.007783390581607819,0.06988832354545593,0.1367732286453247
-0.20989114046096802,0.34007367491722107,0.2450200915336609,0.005913406610488892,0.09368076920509338,0.04872387647628784
-0.1778290569782257,0.20792889595031738,0.19847455620765686,0.007632244378328323,0.08086732029914856,-0.04966890811920166
-0.08672267198562622,0.009379003196954727,0.15256892144680023,-0.016138970851898193,0.056654781103134155,-0.08224684000015259
0.0013962709344923496,-0.1319970339536667,0.06101316958665848,-0.05082297325134277,0.038801297545433044,-0.03695094585418701
0.012503421865403652,-0.1500696837902069,-0.04621543362736702,-0.0550144724547863,0.030789390206336975,0.04758650064468384
-0.04324685037136078,-0.03832823410630226,-0.11145531386137009,-0.03904430568218231,0.01261785626411438,0.10916191339492798
-0.05675208568572998,0.10493205487728119,-0.1057387962937355,-0.01741868257522583,-0.01821845769882202,0.10994881391525269
-0.028697285801172256,0.15034356713294983,-0.0449216365814209,0.004291951656341553,-0.023089498281478882,0.08766347169876099
-0.03884899616241455,0.07817923277616501,0.0027692224830389023,0.004214562475681305,-0.015529856085777283,0.08554333448410034
-0.12167732417583466,-0.027750970795750618,0.008573852479457855,-0.005581505596637726,-0.010197117924690247,0.10486894845962524
-0.2097107470035553,-0.04157673195004463,-0.04208240285515785,-0.02266983687877655,-0.014332994818687439,0.10927891731262207
-0.2052568942308426,-0.03927640989422798,-0.09377246350049973,-0.018874358385801315,-0.026979833841323853,0.07367444038391113
-0.13816581666469574,-0.04151301458477974,-0.09166269749403,-0.004842858761548996,-0.04347005486488342,0.041473209857940674
-0.091299869120121,-0.043824050575494766,-0.07706429064273834,-0.007972858846187592,-0.0625472366809845,0.04139918088912964
-0.11063273251056671,-0.04509272798895836,-0.0685369223356247,-0.011836212128400803,-0.06719842553138733,0.04911661148071289
-0.1334868222475052,-0.08105090260505676,-0.09780985116958618,-0.019465036690235138,-0.06751111149787903,0.032540738582611084
-0.07777437567710876,-0.11572358757257462,-0.16129451990127563,-0.023927975445985794,-0.06187118589878082,-0.004715323448181152
0.02921350486576557,-0.11308350414037704,-0.23972448706626892,-0.02576260268688202,-0.05751855671405792,-0.027652859687805176
0.0971858873963356,-0.05859801173210144,-0.29555070400238037,-0.016775287687778473,-0.06373682618141174,-0.028442978858947754
0.0953061431646347,0.007514872122555971,-0.2879255414009094,0.01863357424736023,-0.05721905827522278,-0.03527325391769409
0.06809858977794647,-0.026738569140434265,-0.2544940114021301,0.051667362451553345,-0.0482807457447052,-0.06421083211898804
0.098385751247406,-0.1931881606578827,-0.15016545355319977,0.07304982095956802,-0.04387965798377991,-0.10827451944351196
0.09311965107917786,-0.28180208802223206,0.027317333966493607,0.0774344727396965,-0.04321916401386261,-0.1011856198310852
-0.034180741757154465,-0.10860449820756912,0.12331800907850266,0.03011736273765564,-0.04162982106208801,-0.06758004426956177
-0.15182460844516754,0.06470421701669693,0.1336212158203125,0.007000558078289032,0.005590647459030151,-0.1020781397819519
-0.10964932292699814,-0.014331976883113384,0.07997558265924454,-0.00951644778251648,0.04903544485569,-0.18099051713943481
-0.004502279218286276,-0.17252390086650848,-0.010181456804275513,-0.056971319019794464,0.05343271791934967,-0.18647104501724243
-0.03125809505581856,-0.23616096377372742,-0.12020448595285416,-0.09076147526502609,0.043450742959976196,-0.1132439374923706
-0.13526156544685364,-0.27150020003318787,-0.225698783993721,-0.0730365440249443,0.05125151574611664,-0.04773414134979248
-0.1696559190750122,-0.3011018633842468,-0.2662796378135681,-0.04351826012134552,0.06075769662857056,-0.020497262477874756
-0.13168154656887054,-0.3166135549545288,-0.3022569417953491,-0.03930099308490753,0.05055205523967743,0.0016974210739135742
-0.06312033534049988,-0.3132019639015198,-0.37080496549606323,-0.03314381092786789,0.05839851498603821,0.03228175640106201
0.0017911181785166264,-0.24364082515239716,-0.44433683156967163,-0.024523578584194183,0.06373700499534607,0.08009976148605347
0.00608040951192379,-0.052740465849637985,-0.48581409454345703,-0.019946470856666565,0.0591682493686676,0.12429732084274292
-0.0764165148139,0.17843089997768402,-0.4830300807952881,-0.002257928252220154,0.050808295607566833,0.1388726830482483
-0.15803679823875427,0.30770906805992126,-0.4053298830986023,0.04065015912055969,0.0471222847700119,0.08747130632400513
-0.1775657832622528,0.3487418591976166,-0.20899061858654022,0.09058630466461182,0.05183875560760498,-0.0025066137313842773
-0.16123491525650024,0.24728131294250488,-0.017798710614442825,0.0895189493894577,0.05789148807525635,-0.08195745944976807
-0.10134673118591309,-0.000565308437217027,0.0652037262916565,0.041333213448524475,0.060186177492141724,-0.11782598495483398
0.006696740165352821,-0.27890676259994507,0.03499457612633705,0.00048783421516418457,0.07297331094741821,-0.09522038698196411
0.11256919801235199,-0.33439260721206665,-0.04439300298690796,-0.028056755661964417,0.06858550012111664,-0.010450661182403564
0.1717481017112732,-0.1838344782590866,-0.11961496621370316,-0.024287596344947815,0.051165804266929626,0.08839094638824463
0.16623809933662415,0.07007572054862976,-0.13879917562007904,-0.019084163010120392,0.02610434591770172,0.16059976816177368
0.09423155337572098,0.2852340042591095,-0.11847700923681259,-0.017341248691082,0.0001325756311416626,0.18295574188232422
0.006446307525038719,0.29817113280296326,-0.04079899564385414,0.008771099150180817,-0.0011353343725204468,0.14988332986831665
-0.05883948877453804,0.1691572219133377,0.07453318685293198,0.034013569355010986,0.014861196279525757,0.10462981462478638
-0.07534637302160263,0.07731764763593674,0.1474636346101761,0.017514169216156006,0.022187694907188416,0.07267588376998901
-0.057866793125867844,0.05742257088422775,0.1812397539615631,-0.016813747584819794,0.02075454592704773,0.058687031269073486
-0.05417121946811676,0.08133804798126221,0.18469490110874176,-0.03236515820026398,0.026736661791801453,0.056488096714019775
-0.0459274984896183,0.13480277359485626,0.20398257672786713,-0.033275626599788666,0.02654491364955902,0.05315661430358887
-0.05053584277629852,0.21954791247844696,0.25799229741096497,-0.04223418980836868,0.015365347266197205,0.042141497135162354
-0.07353648543357849,0.27341270446777344,0.31025785207748413,-0.05053141713142395,0.008903786540031433,0.019775390625
-0.10088305175304413,0.2801402807235718,0.3532877564430237,-0.05736454203724861,0.016282886266708374,-0.015051066875457764
-0.07942464202642441,0.24747943878173828,0.33962205052375793,-0.08526840806007385,0.014964684844017029,-0.06517380475997925
-0.01552751287817955,0.17468033730983734,0.2809309959411621,-0.11214932054281235,0.019416198134422302,-0.10498148202896118
0.04168073460459709,0.05009692162275314,0.19380080699920654,-0.11737557500600815,0.03110387921333313,-0.11515557765960693
0.046372245997190475,-0.004581912886351347,0.14300081133842468,-0.09351164102554321,0.03672894835472107,-0.08695405721664429
0.003011446911841631,0.04934199899435043,0.15558657050132751,-0.06457880139350891,0.029763147234916687,-0.044300615787506104
-0.06937014311552048,0.07485271990299225,0.21456490457057953,-0.051230236887931824,0.019740909337997437,-0.022864162921905518
-0.1533992886543274,0.14268460869789124,0.24657420814037323,-0.06411099433898926,0.011402502655982971,-0.02675110101699829
-0.2512834966182709,0.2990516126155853,0.24880465865135193,-0.056986406445503235,0.027228474617004395,-0.05806082487106323
-0.26385414600372314,0.28256916999816895,0.2668398320674896,-0.012317880988121033,0.05206577479839325,-0.13053131103515625
-0.2170729786157608,0.11201295256614685,0.31329306960105896,0.004527159035205841,0.052147507667541504,-0.1812024712562561
-0.15255986154079437,-0.0651310607790947,0.3263973295688629,-0.02044694498181343,0.037225157022476196,-0.17175650596618652
-0.056716397404670715,-0.1895289421081543,0.2332649528980255,-0.05324247479438782,0.04779741168022156,-0.1218496561050415
0.09542012214660645,-0.2368444949388504,0.059655409306287766,-0.06714984774589539,0.05679754912853241,-0.05556178092956543
0.25596797466278076,-0.1775788813829422,-0.12276043742895126,-0.06022385135293007,0.051816150546073914,0.02351832389831543
0.3637827932834625,-0.024519380182027817,-0.254559725522995,-0.044211968779563904,0.02683757245540619,0.09045398235321045
0.3121890127658844,0.19137035310268402,-0.30432993173599243,-0.005979560315608978,0.016303807497024536,0.13373035192489624
0.1364978849887848,0.4168378710746765,-0.25532153248786926,0.05860210210084915,0.025848031044006348,0.11667525768280029
-0.061106640845537186,0.5051283836364746,-0.05792643129825592,0.13276074826717377,0.0430913120508194,0.01861119270324707
-0.14641167223453522,0.30982235074043274,0.141642764210701,0.12214387208223343,0.03616146743297577,-0.10026967525482178
-0.042729564011096954,-0.11842384189367294,0.177280992269516,0.043912336230278015,0.04285654425621033,-0.15683263540267944
0.16780787706375122,-0.4685007333755493,0.01382042933255434,-0.044372327625751495,0.05805182456970215,-0.10091662406921387
0.25152307748794556,-0.5235798954963684,-0.22229249775409698,-0.055305615067481995,0.08140262961387634,0.0611797571182251
0.21264199912548065,-0.3341081738471985,-0.3796820640563965,-0.03184799477458,0.045948147773742676,0.1953158974647522
0.15940319001674652,-0.0305259358137846,-0.36162859201431274,0.010779425501823425,0.0029822438955307007,0.2462342381477356
0.13059550523757935,0.15444737672805786,-0.21450680494308472,0.049732133746147156,-0.02952653169631958,0.2313976287841797
0.06448815762996674,0.2220483273267746,-0.037100762128829956,0.061352651566267014,-0.03748638927936554,0.19632524251937866
-0.029789822176098824,0.1726059913635254,0.07468753308057785,0.04147235304117203,-0.02415415644645691,0.1448783278465271
-0.11243230849504471,0.05356273427605629,0.13813519477844238,0.03366648405790329,-0.0031735002994537354,0.08685868978500366
-0.130971297621727,-0.04100968688726425,0.15819746255874634,0.02264028787612915,0.002574920654296875,0.034746527671813965
-0.06547483801841736,-0.08522957563400269,0.1676112711429596,0.014896571636199951,-0.008910909295082092,-0.00863116979598999
0.03305066376924515,-0.12497185170650482,0.19063924252986908,0.010130725800991058,-0.02345585823059082,-0.027690410614013672
0.0595996268093586,-0.14875750243663788,0.18681399524211884,-0.006630811840295792,-0.027258336544036865,-0.023480653762817383
0.06201190873980522,-0.20097078382968903,0.1226714476943016,-0.02669374644756317,-0.02973952889442444,-0.027640581130981445
0.10458336025476456,-0.2634330689907074,0.05818629264831543,-0.020835407078266144,-0.029032021760940552,-0.04436624050140381
0.1862087994813919,-0.3072109520435333,0.03202681988477707,-0.0012713409960269928,-0.03333829343318939,-0.05325675010681152
0.25191012024879456,-0.3044869601726532,0.029762379825115204,0.01493043452501297,-0.034801334142684937,-0.042854130268096924
0.2450893372297287,-0.28863978385925293,0.03899923712015152,0.02474427968263626,-0.026755422353744507,-0.030059814453125
0.20950862765312195,-0.35004886984825134,0.04468616098165512,0.04307740181684494,-0.019157424569129944,-0.03458738327026367
0.18122708797454834,-0.43519943952560425,0.10177284479141235,0.060778118669986725,-0.006450667977333069,-0.042088449001312256
0.1581280678510666,-0.5233945846557617,0.1777079701423645,0.059523195028305054,-0.01147279143333435,-0.02905905246734619
0.09466590732336044,-0.4422054588794708,0.24655961990356445,0.03875090181827545,-0.027343884110450745,0.001873314380645752
-0.03754298761487007,-0.20043998956680298,0.27296242117881775,0.030406028032302856,-0.024023935198783875,0.018174052238464355
-0.1430996060371399,-0.00891862902790308,0.2961067855358124,0.04730983078479767,0.005054399371147156,-0.03106170892715454
-0.16684077680110931,0.0029049082659184933,0.3083153963088989,0.06376249343156815,0.033559203147888184,-0.11672192811965942
-0.14893494546413422,-0.03997455909848213,0.3339275121688843,0.0705784261226654,0.056530147790908813,-0.17320036888122559
-0.17914335429668427,-0.18231572210788727,0.4215664267539978,0.10069093108177185,0.08974304795265198,-0.178269624710083
-0.20828518271446228,-0.3894587755203247,0.5176839828491211,0.09155017137527466,0.10526145994663239,-0.15437734127044678
-0.15788565576076508,-0.5334815979003906,0.5095097422599792,0.029093146324157715,0.10808604955673218,-0.09497940540313721
-0.05162996053695679,-0.5477789640426636,0.37282460927963257,-0.018071100115776062,0.11628502607345581,-0.008197486400604248
0.01067220326513052,-0.3213355243206024,0.21399971842765808,-0.020643725991249084,0.11304855346679688,0.06912034749984741
0.017259106040000916,0.049085162580013275,0.08215900510549545,-0.021763339638710022,0.08751994371414185,0.10636872053146362
-0.01981663703918457,0.3311379849910736,-0.008740855380892754,-0.004994884133338928,0.08442617952823639,0.09217536449432373
-0.0610688216984272,0.3080810010433197,-0.009745204821228981,0.06216162443161011,0.1031026840209961,0.0307387113571167
-0.0837271586060524,0.16542242467403412,0.12641648948192596,0.12232404947280884,0.10213641822338104,-0.017804265022277832
-0.11267625540494919,0.11044998466968536,0.3086923062801361,0.1313052624464035,0.08334702253341675,-0.01959085464477539
-0.08820883929729462,0.0898364931344986,0.3895399570465088,0.09064894914627075,0.06701016426086426,-0.0178985595703125
0.008216793648898602,0.06991255283355713,0.3918800354003906,0.05999693274497986,0.08353202044963837,-0.008011460304260254
0.038995999842882156,0.12020524591207504,0.40270331501960754,0.05913211405277252,0.0917169600725174,0.03734248876571655
0.019569916650652885,0.2005951702594757,0.45033830404281616,0.05766846239566803,0.07265086472034454,0.07453113794326782
-0.005736765917390585,0.223348006606102,0.5638542175292969,0.06370490789413452,0.06806011497974396,0.07550495862960815
-0.02671004645526409,0.15621179342269897,0.6567423939704895,0.0416414737701416,0.06152956187725067,0.07805448770523071
-0.055593814700841904,0.10721351951360703,0.7151893377304077,0.006286710500717163,0.0568508505821228,0.09857940673828125
-0.11229969561100006,0.20655637979507446,0.7243080735206604,-0.021747902035713196,0.05695505440235138,0.12601035833358765
-0.13801616430282593,0.36511677503585815,0.7105895280838013,-0.042262494564056396,0.053225696086883545,0.11647570133209229
-0.09156335145235062,0.4222217798233032,0.6905993819236755,-0.05889798700809479,0.0640379935503006,0.07536500692367554
-0.07005627453327179,0.40622183680534363,0.6565161347389221,-0.08024581521749496,0.07346922159194946,0.05892670154571533
-0.12587764859199524,0.41667047142982483,0.591907262802124,-0.09795327484607697,0.08057014644145966,0.05503040552139282
-0.17708419263362885,0.44670504331588745,0.5096086263656616,-0.10121897608041763,0.07867787778377533,0.025465190410614014
-0.13840916752815247,0.4672768712043762,0.4444386661052704,-0.08776888251304626,0.07616840302944183,-0.037231266498565674
-0.02605411969125271,0.42544370889663696,0.38903382420539856,-0.10070210695266724,0.048505738377571106,-0.09348875284194946
0.01594526506960392,0.4018639326095581,0.3415839970111847,-0.1275177299976349,0.0049455612897872925,-0.1076974868774414
0.05396730825304985,0.36370012164115906,0.30551573634147644,-0.14373230934143066,-0.0352620929479599,-0.12327808141708374
0.08946084976196289,0.29363954067230225,0.3531671464443207,-0.09456031024456024,-0.016809701919555664,-0.14012449979782104
0.0985209196805954,0.24204640090465546,0.4331737756729126,-0.06001484394073486,-0.0027812719345092773,-0.14164316654205322
0.1560799926519394,0.2079869508743286,0.49538061022758484,-0.07051779329776764,-0.006799966096878052,-0.14333629608154297
0.25171518325805664,0.15961606800556183,0.5137097835540771,-0.0917394831776619,0.01013113558292389,-0.12195467948913574
0.27642977237701416,0.1080540269613266,0.4816131889820099,-0.10457849502563477,0.02657054364681244,-0.06200152635574341
0.26812854409217834,0.06139104813337326,0.440227746963501,-0.11150996387004852,0.02623017132282257,-0.008830666542053223
0.23941822350025177,0.15694844722747803,0.4142863154411316,-0.1275031566619873,0.0020566433668136597,0.024307072162628174
0.10294762998819351,0.3763275146484375,0.4225768446922302,-0.10470156371593475,0.010950073599815369,0.020893335342407227
0.08552274852991104,0.30037152767181396,0.4362444281578064,-0.07700331509113312,0.01810663938522339,-0.05858957767486572
0.1708599179983139,0.05229891836643219,0.44231167435646057,-0.09117303043603897,0.03632578253746033,-0.1085548996925354
0.17941942811012268,-0.14312729239463806,0.3680114448070526,-0.1369776874780655,0.02502371370792389,-0.053358495235443115
0.07112836092710495,-0.12739481031894684,0.22117456793785095,-0.16082866489887238,0.03264297544956207,0.010438978672027588
0.05048033967614174,-0.13212133944034576,0.05587857589125633,-0.1549246907234192,0.024466216564178467,-0.014843106269836426
0.21426786482334137,-0.19755715131759644,-0.10264703631401062,-0.13010962307453156,0.014346182346343994,-0.08202171325683594
0.4962030351161957,-0.24417860805988312,-0.3175978660583496,-0.12450186163187027,0.008048340678215027,-0.11772000789642334
0.6815061569213867,-0.27648550271987915,-0.5347952246665955,-0.05951157957315445,0.044360607862472534,-0.06255769729614258
0.6883673071861267,-0.22855031490325928,-0.6510897874832153,0.02136007696390152,0.05605030059814453,0.02687537670135498
0.5652674436569214,-0.09616956859827042,-0.5814943909645081,0.10089269280433655,0.04863668978214264,0.08387726545333862
0.37599319219589233,-0.002367091365158558,-0.3743710219860077,0.14569096267223358,0.029715776443481445,0.10150599479675293
0.2318274974822998,-0.049656614661216736,-0.15159794688224792,0.13100168108940125,0.010604113340377808,0.07820016145706177
0.13884250819683075,-0.18865659832954407,-0.06769874691963196,0.0713469609618187,0.030856072902679443,0.05958336591720581
0.06472185254096985,-0.3218517005443573,-0.21148595213890076,0.0052803680300712585,0.06864041090011597,0.06880313158035278
0.06575427949428558,-0.3182031214237213,-0.4741465747356415,-0.035986438393592834,0.08067929744720459,0.07791465520858765
0.1470349282026291,-0.2060602456331253,-0.6675529479980469,-0.029609672725200653,0.05318981409072876,0.09486877918243408
0.18991714715957642,-0.06560835987329483,-0.7130195498466492,0.007276296615600586,0.018029391765594482,0.12417948246002197
0.12413831055164337,-0.0012313972692936659,-0.6746001839637756,0.03387486934661865,-0.007092565298080444,0.15320110321044922
-0.007728641852736473,-0.023042310029268265,-0.6049844026565552,0.054583869874477386,-0.016055017709732056,0.1516127586364746
-0.09113334119319916,-0.11339318752288818,-0.5292101502418518,0.061773158609867096,-0.02596774697303772,0.12046408653259277
-0.11133155226707458,-0.1649659425020218,-0.45594391226768494,0.0631420686841011,-0.030459702014923096,0.09843158721923828
-0.11516579985618591,-0.14040564000606537,-0.41919833421707153,0.05060184746980667,-0.031509846448898315,0.09002548456192017
-0.11019837856292725,-0.09795564413070679,-0.43943503499031067,0.032461635768413544,-0.02131330966949463,0.08420252799987793
-0.1094454824924469,-0.10411061346530914,-0.46568289399147034,0.02687419205904007,-0.016097575426101685,0.0756421685218811
-0.138595312833786,-0.1476152092218399,-0.45308631658554077,0.02896255999803543,-0.015716522932052612,0.07346868515014648
-0.19530360400676727,-0.22017961740493774,-0.4354419410228729,0.031561315059661865,-0.02274194359779358,0.08443939685821533
-0.22267957031726837,-0.1996184140443802,-0.48273780941963196,0.006139054894447327,-0.025446519255638123,0.088165283203125
-0.18610742688179016,-0.1540515273809433,-0.5771925449371338,-0.007076747715473175,-0.025135129690170288,0.07436245679855347
-0.1327487826347351,-0.08296699821949005,-0.6690050363540649,-0.01562102884054184,-0.032328829169273376,0.059130191802978516
-0.10014147311449051,-0.08843275159597397,-0.6873873472213745,-0.010127834975719452,-0.04931342601776123,0.0377841591835022
-0.13347680866718292,-0.19955861568450928,-0.6667729616165161,0.015599079430103302,-0.05809709429740906,0.027660608291625977
-0.21571174263954163,-0.2590351104736328,-0.6967254877090454,0.03806953877210617,-0.06208521127700806,0.01974785327911377
-0.14981813728809357,-0.17262807488441467,-0.7669194340705872,0.036442168056964874,-0.06668961048126221,-0.028136849403381348
0.043884843587875366,-0.10115722566843033,-0.7914830446243286,0.04665980488061905,-0.06276045739650726,-0.08357733488082886
0.14659826457500458,-0.16559229791164398,-0.7157056331634521,0.07913128286600113,-0.058347493410110474,-0.0836406946182251
0.12443490326404572,-0.26938751339912415,-0.6049132943153381,0.08367832750082016,-0.05476859211921692,-0.042756080627441406
0.06044401973485947,-0.3999725580215454,-0.495066374540329,0.04216194897890091,-0.04503487050533295,-0.00686335563659668
-0.12941592931747437,-0.427391916513443,-0.394787460565567,0.004294447600841522,-0.04919774830341339,0.016656816005706787
-0.3930135667324066,-0.18546828627586365,-0.36867159605026245,-0.02548850327730179,-0.040705710649490356,-0.00554049015045166
-0.430621474981308,-0.0553119033575058,-0.40281370282173157,-0.024045750498771667,0.011303126811981201,-0.1318199634552002
-0.23134203255176544,-0.1650189310312271,-0.46989667415618896,-0.023704402148723602,0.06583969295024872,-0.23944562673568726
-0.05049652233719826,-0.31088313460350037,-0.5695026516914368,-0.044159747660160065,0.08790899813175201,-0.23029905557632446
-0.09991280734539032,-0.4060138463973999,-0.6143741607666016,-0.02983805537223816,0.10441869497299194,-0.14373928308486938
-0.29024970531463623,-0.4970244765281677,-0.6002064347267151,0.01360049843788147,0.10407637059688568,-0.068992018699646
-0.35589680075645447,-0.4650510251522064,-0.5431130528450012,0.03769483417272568,0.09418778121471405,-0.06770837306976318
-0.26863986253738403,-0.35617542266845703,-0.5370884537696838,0.031258583068847656,0.09887011349201202,-0.086517333984375
-0.13456222414970398,-0.31840845942497253,-0.6072413921356201,0.031160160899162292,0.11758966743946075,-0.0681229829788208
-0.0606631375849247,-0.27352625131607056,-0.6787124276161194,0.043497174978256226,0.1261202096939087,-0.018913984298706055
-0.09634648263454437,-0.13578572869300842,-0.6781192421913147,0.07572317123413086,0.11981689929962158,0.031218409538269043
-0.13115045428276062,0.015756595879793167,-0.6038413643836975,0.12206792831420898,0.10733106732368469,0.02458047866821289
-0.04235488548874855,0.10734254121780396,-0.47518178820610046,0.14292412996292114,0.09241816401481628,-0.028498589992523193
0.05655056983232498,0.08666601032018661,-0.3306846618652344,0.1484728753566742,0.08724091947078705,-0.05393338203430176
0.04934742674231529,-0.007298501208424568,-0.18552345037460327,0.1652180254459381,0.10301473736763,-0.03360283374786377
-0.0007344705518335104,-0.07675976306200027,-0.04376433789730072,0.16455620527267456,0.10314798355102539,-0.0008983016014099121
0.027036795392632484,-0.09247107803821564,0.10166887938976288,0.1626964807510376,0.0915704071521759,0.013740718364715576
0.08709871768951416,-0.003313932102173567,0.24570420384407043,0.15698662400245667,0.0844528079032898,0.04332464933395386
0.10928843915462494,0.11447162926197052,0.3726974427700043,0.15044641494750977,0.08530658483505249,0.07338982820510864
0.08251293003559113,0.22753851115703583,0.48610565066337585,0.13857334852218628,0.08567234873771667,0.09784770011901855
0.013384722173213959,0.261787086725235,0.6104369759559631,0.14013084769248962,0.09110844135284424,0.0883251428604126
-0.043354012072086334,0.2688846290111542,0.747880220413208,0.13435404002666473,0.07477767765522003,0.06691867113113403
-0.05937603488564491,0.3326924443244934,0.8876417875289917,0.11435412615537643,0.07407554984092712,0.039783596992492676
-0.04663155972957611,0.3815273642539978,0.9253712296485901,0.08143945038318634,0.0894312709569931,0.013974606990814209
0.006125211250036955,0.4034110903739929,0.9292480945587158,0.05871689319610596,0.10881832242012024,0.0005373358726501465
0.03580738976597786,0.4194006025791168,0.9357275366783142,0.04401850700378418,0.1157727986574173,0.010616719722747803
0.042708344757556915,0.4193843603134155,0.962433397769928,0.035471320152282715,0.10632821917533875,0.017420649528503418
0.019563259556889534,0.4322725832462311,1.0196058750152588,0.0422249510884285,0.10904064774513245,0.008197665214538574
-0.030000831931829453,0.4397455155849457,1.0466411113739014,0.042528197169303894,0.10848304629325867,-0.01743227243423462
-0.03574783354997635,0.4058545231819153,1.0701762437820435,0.03315281122922897,0.0960460901260376,-0.05037951469421387
0.028885208070278168,0.3196016550064087,1.1227179765701294,0.02567291259765625,0.07417252659797668,-0.0785406231880188
0.06101313978433609,0.2668880522251129,1.1832937002182007,0.029355183243751526,0.07006633281707764,-0.05889958143234253
0.024198133498430252,0.31779593229293823,1.259055733680725,0.03151548653841019,0.062405675649642944,-0.02681577205657959
-0.01349855400621891,0.39570027589797974,1.3471143245697021,0.0287589430809021,0.04878261685371399,-0.030937671661376953
0.03855576738715172,0.5002248287200928,1.4065239429473877,0.016122184693813324,0.04066024720668793,-0.07022583484649658
0.13560783863067627,0.5813952684402466,1.4213676452636719,0.002492181956768036,0.049806490540504456,-0.09915828704833984
0.24721258878707886,0.5370304584503174,1.4199727773666382,-0.012964226305484772,0.05495479702949524,-0.11507999897003174
0.2808735966682434,0.43320149183273315,1.4340318441390991,-0.01785685122013092,0.0575588196516037,-0.08621853590011597
0.25045114755630493,0.4182611107826233,1.47113037109375,-0.02404804900288582,0.04515589773654938,-0.04081815481185913
0.21647001802921295,0.5055270791053772,1.5384948253631592,-0.025304757058620453,0.03999495506286621,-0.027359366416931152
0.2317286878824234,0.5513320565223694,1.5930813550949097,-0.029266849160194397,0.034176409244537354,-0.0625143051147461
0.27328136563301086,0.5421037673950195,1.6211458444595337,-0.03242114186286926,0.04731468856334686,-0.10109752416610718
0.2929489016532898,0.4859631359577179,1.6311137676239014,-0.02555731311440468,0.06750562787055969,-0.11923426389694214
0.3276912569999695,0.33676013350486755,1.6334104537963867,-0.03004605695605278,0.07650548219680786,-0.12720966339111328
0.3846448063850403,0.1727014183998108,1.6230443716049194,-0.03280831500887871,0.08547694981098175,-0.10221582651138306
0.40620630979537964,0.09568662941455841,1.5936970710754395,-0.02064785361289978,0.08480146527290344,-0.02954310178756714
0.36728864908218384,0.1832645982503891,1.593209981918335,0.017999939620494843,0.08591963350772858,0.04300796985626221
0.31397348642349243,0.27624738216400146,1.6718711853027344,0.07298320531845093,0.09126344323158264,0.07061535120010376
0.2743304669857025,0.3018152415752411,1.825706958770752,0.11077739298343658,0.10822536051273346,0.0652875304222107
0.24009598791599274,0.19857531785964966,1.9435862302780151,0.10488620400428772,0.13101688027381897,0.06571394205093384
0.17898255586624146,0.13044089078903198,1.938891887664795,0.05652350187301636,0.1547016203403473,0.08176916837692261
0.09013666957616806,0.1711653620004654,1.8592488765716553,0.030431218445301056,0.16706417500972748,0.09530270099639893
-0.014361510053277016,0.30562517046928406,1.7694060802459717,0.03277897089719772,0.16772642731666565,0.07013428211212158
-0.033249177038669586,0.3321150541305542,1.7061429023742676,0.05048861354589462,0.16825656592845917,-0.006059169769287109
0.061657801270484924,0.18467381596565247,1.638960599899292,0.06117311120033264,0.17622126638889313,-0.07953506708145142
0.1624494045972824,0.02333555743098259,1.5365225076675415,0.052774347364902496,0.18749135732650757,-0.08054137229919434
0.18175765872001648,0.03046991676092148,1.3938008546829224,0.04725072532892227,0.18271897733211517,-0.018674612045288086
0.14731180667877197,0.24273042380809784,1.2771848440170288,0.05513281375169754,0.15826693177223206,0.0371168851852417
0.11354506760835648,0.509319007396698,1.2128069400787354,0.07053565979003906,0.1252453625202179,0.0360260009765625
0.09934623539447784,0.5788467526435852,1.2236424684524536,0.10665448755025864,0.10503637790679932,-0.006361126899719238
0.09665209800004959,0.45753583312034607,1.3056466579437256,0.14353245496749878,0.10485152900218964,-0.04617565870285034
0.07734347134828568,0.2959232032299042,1.3886346817016602,0.14689166843891144,0.10274617373943329,-0.037522315979003906
0.011413007974624634,0.26811257004737854,1.4250961542129517,0.12646496295928955,0.10275678336620331,0.0001786351203918457
-0.05682507902383804,0.30843105912208557,1.4163098335266113,0.10548445582389832,0.09053419530391693,0.017809391021728516
-0.02760656364262104,0.42876800894737244,1.371216893196106,0.09940880537033081,0.07481120526790619,-0.010394752025604248
0.12075307220220566,0.523212194442749,1.3284342288970947,0.09543521702289581,0.06518092751502991,-0.05088549852371216
0.225988507270813,0.5263362526893616,1.343034267425537,0.1090255007147789,0.06169551610946655,-0.05306607484817505
0.17779549956321716,0.4081351161003113,1.424468755722046,0.12361125648021698,0.05543595552444458,-0.011861443519592285
0.015811394900083542,0.339938759803772,1.508060336112976,0.10780122876167297,0.046058833599090576,0.03628808259963989
-0.10762026160955429,0.41005662083625793,1.53411066532135,0.0824216827750206,0.04137139022350311,0.0380634069442749
-0.0686391294002533,0.5044645667076111,1.477130651473999,0.05467797815799713,0.04201000928878784,-0.020149409770965576
0.033272501081228256,0.5131449699401855,1.4114305973052979,0.05829593539237976,0.05279490351676941,-0.07159256935119629
0.09623584151268005,0.4854673445224762,1.3767961263656616,0.05445665121078491,0.04259046912193298,-0.07040256261825562
0.10441316664218903,0.379395455121994,1.3836429119110107,0.05612809211015701,0.028416797518730164,-0.05106246471405029
0.07470579445362091,0.2928052544593811,1.3726003170013428,0.05813220143318176,0.02860426902770996,-0.02501159906387329
0.05239355191588402,0.3070348799228668,1.326402187347412,0.05953848361968994,0.02558201551437378,-0.0037401318550109863
0.056212168186903,0.3809448480606079,1.2898143529891968,0.06946568936109543,0.019361168146133423,0.006244540214538574
0.0694756880402565,0.4420555531978607,1.2856930494308472,0.08731893450021744,0.013758942484855652,0.008462011814117432
0.05510251969099045,0.4593959450721741,1.3125083446502686,0.09598288685083389,0.008318886160850525,0.006310522556304932
0.019030893221497536,0.3972376585006714,1.3272838592529297,0.08763708919286728,0.005805030465126038,-0.0012623071670532227
-0.00939897634088993,0.31590786576271057,1.3074471950531006,0.07780192792415619,0.011228233575820923,-0.007945477962493896
-0.018277334049344063,0.2867330312728882,1.2689728736877441,0.06850156933069229,0.008513271808624268,-0.0014834403991699219
-0.01004745438694954,0.3526860475540161,1.2302767038345337,0.05380866676568985,0.00315798819065094,0.01173102855682373
0.014613509178161621,0.4292488396167755,1.184545636177063,0.03609063848853111,-0.00012065470218658447,0.013253092765808105
0.04199932515621185,0.42242431640625,1.1340584754943848,0.03077857568860054,0.008382454514503479,0.008572280406951904
0.025096861645579338,0.3679756224155426,1.0958582162857056,0.02869042381644249,0.01107574999332428,0.013808727264404297
-0.029080357402563095,0.35485216975212097,1.0881128311157227,0.03682289272546768,0.008568897843360901,0.022608697414398193
-0.025957178324460983,0.2958398461341858,1.0904860496520996,0.06478045880794525,0.019101619720458984,0.0029761195182800293
0.020681161433458328,0.2976633906364441,1.1108026504516602,0.06902837753295898,0.01896105706691742,-0.003183424472808838
0.04951867461204529,0.3372633457183838,1.0905208587646484,0.07064251601696014,0.02341073751449585,0.005171298980712891
0.10639660060405731,0.37277090549468994,1.05455482006073,0.0797482505440712,0.03270195424556732,0.004181802272796631
0.16498969495296478,0.32455137372016907,1.0886554718017578,0.09067028760910034,0.03852260112762451,0.01151365041732788
0.08235517889261246,0.1243547797203064,1.1612598896026611,0.10642701387405396,0.035983651876449585,0.046586811542510986
-0.10819781571626663,-0.006425380241125822,1.2618571519851685,0.1030915379524231,0.03841602802276611,0.08639025688171387
-0.23943501710891724,0.036366019397974014,1.303080439567566,0.06861502677202225,0.0315835177898407,0.09715008735656738
-0.22465766966342926,0.1760246753692627,1.2368717193603516,0.03387761488556862,0.03865879774093628,0.05208325386047363
-0.0840577632188797,0.2650895416736603,1.0686233043670654,0.006983175873756409,0.05388921499252319,-0.015329480171203613
0.015974733978509903,0.23527513444423676,0.913108766078949,0.004514578729867935,0.0559983104467392,-0.03497731685638428
0.004758653696626425,0.10466539114713669,0.8371049761772156,0.018606677651405334,0.03260926902294159,-0.01962745189666748
-0.08241211622953415,-0.018081320449709892,0.8591141700744629,0.06220418959856033,0.01316787302494049,0.005632758140563965
-0.13988684117794037,-0.015683919191360474,0.9275621771812439,0.08175927400588989,-0.0062058717012405396,0.017377197742462158
