rotation_x,rotation_y,rotation_z,acceleration_x,acceleration_y,acceleration_z
2.2444937229156494,0.2744775414466858,0.9136079549789429,0.13894177973270416,0.3014495074748993,-0.2176404595375061
2.210477590560913,0.25933507084846497,0.9255956411361694,0.10968388617038727,0.3478672504425049,-0.17685675621032715
2.226361036300659,0.39702415466308594,0.9281414747238159,0.09951868653297424,0.38339149951934814,-0.16628801822662354
2.259392023086548,0.5265570878982544,0.818279504776001,0.07816952466964722,0.3921927213668823,-0.16675734519958496
2.210146188735962,0.6210839152336121,0.6315913200378418,0.0374017208814621,0.3820948004722595,-0.1501207947731018
2.089087963104248,0.751402735710144,0.43891456723213196,0.018146365880966187,0.37453413009643555,-0.139673113822937
2.03973126411438,0.8657412528991699,0.2613797187805176,0.008680224418640137,0.3682296574115753,-0.17562198638916016
2.107748508453369,0.9153029918670654,0.10171722620725632,-0.0030010342597961426,0.40378808975219727,-0.20276224613189697
2.06937837600708,0.9526168704032898,-0.06365235149860382,-0.005499929189682007,0.40423616766929626,-0.17651426792144775
1.895308256149292,1.0070099830627441,-0.25346502661705017,-0.012927964329719543,0.3861200213432312,-0.11819368600845337
1.71452796459198,1.0978652238845825,-0.41918814182281494,-0.026664718985557556,0.37450823187828064,-0.08425343036651611
1.582718849182129,1.3173686265945435,-0.4778344929218292,-0.03203924745321274,0.3932642936706543,-0.06241464614868164
1.4402387142181396,1.5044962167739868,-0.6003903150558472,-0.0735783502459526,0.37017056345939636,-0.02865731716156006
1.2487304210662842,1.4523612260818481,-0.711230993270874,-0.09133768826723099,0.31504419445991516,0.06814289093017578
1.1177196502685547,1.3756314516067505,-0.6126208305358887,-0.05024123936891556,0.3234539330005646,0.12954330444335938
1.0880666971206665,1.1823318004608154,-0.34487029910087585,-0.001284472644329071,0.3594719171524048,0.17009925842285156
0.9533017873764038,0.988837718963623,-0.022253315895795822,0.02618280053138733,0.32626843452453613,0.2188272476196289
0.5635462999343872,0.8237428069114685,0.08569072932004929,-0.011687539517879486,0.25845617055892944,0.3028411269187927
0.1880957931280136,0.5490446090698242,-0.023357795551419258,-0.08608430624008179,0.17457687854766846,0.3251837491989136
0.026384051889181137,0.25475046038627625,-0.16234543919563293,-0.10906955599784851,0.14136731624603271,0.2517004609107971
-0.03812074288725853,0.025758419185876846,-0.08633416146039963,-0.06792068481445312,0.1620631217956543,0.20157372951507568
-0.21067270636558533,0.04117000848054886,0.06774043291807175,-0.014043502509593964,0.18366307020187378,0.20263659954071045
-0.40521642565727234,0.46409544348716736,0.13618452847003937,-0.07344451546669006,0.19334864616394043,0.14319533109664917
-0.5447295904159546,0.8286693692207336,0.19986356794834137,-0.1104145497083664,0.17267495393753052,0.1326863169670105
-0.46770617365837097,0.9168033599853516,0.312398761510849,-0.09596501290798187,0.15805292129516602,0.11785107851028442
-0.45071807503700256,0.8196848034858704,0.5349683165550232,-0.083503857254982,0.16374847292900085,0.14829713106155396
-0.5534388422966003,0.4785432815551758,0.7856210470199585,-0.047381311655044556,0.1611286997795105,0.23319363594055176
-0.5015093684196472,0.13779141008853912,1.0127824544906616,-0.04746372997760773,0.1420307755470276,0.19960886240005493
-0.2301986962556839,0.012943049892783165,1.068494439125061,-0.1307658851146698,0.1456783413887024,0.0711854100227356
-0.08642954379320145,-0.04340336471796036,1.0427167415618896,-0.18918751180171967,0.13823184370994568,0.022793710231781006
-0.3604249954223633,-0.061441998928785324,0.9942339062690735,-0.1636103242635727,0.08156031370162964,0.12740343809127808
-0.7771483659744263,-0.14051808416843414,0.8728629350662231,-0.15324321389198303,0.030626535415649414,0.20009279251098633
-0.9119539260864258,-0.2296971082687378,0.6746795177459717,-0.17826564610004425,0.007324308156967163,0.15276724100112915
-0.5984879732131958,-0.1645934134721756,0.6760361790657043,-0.17493993043899536,0.06171882152557373,-0.06807971000671387
-0.3556159734725952,-0.09201043099164963,0.7570459842681885,-0.07501582056283951,0.031643182039260864,-0.12040954828262329
-0.45789727568626404,0.16476446390151978,0.7087007761001587,-0.0908295065164566,-0.032127171754837036,-0.009412646293640137
-0.5620214343070984,0.14362533390522003,0.4521876275539398,-0.1498301476240158,-0.08024311065673828,0.06206393241882324
-0.5167099237442017,-0.03412516042590141,0.1231163889169693,-0.19236332178115845,-0.1559271514415741,-0.0040223002433776855
-0.5595352649688721,-0.08000479638576508,-0.10148609429597855,-0.1621013581752777,-0.1947595179080963,0.058182358741760254
-0.6370189189910889,0.5850502252578735,-0.07950188964605331,-0.1314895749092102,-0.15167537331581116,0.035520851612091064
-0.6834229826927185,0.7358914613723755,0.19665493071079254,0.02516333758831024,-0.1535108983516693,0.06571495532989502
-0.37629014253616333,0.3305641710758209,0.4124707579612732,-0.06346143037080765,0.025132685899734497,0.010504186153411865
0.2145891636610031,0.19158731400966644,0.5668203234672546,-0.09112805128097534,-0.03313946723937988,-0.329865038394928
0.1095011904835701,0.6616289615631104,0.5899736881256104,-0.10710722953081131,-0.10875964164733887,-0.10704165697097778
-0.16817648708820343,0.9810687303543091,0.7025195360183716,-0.04605409502983093,-0.08401638269424438,0.011571288108825684
-0.3299095034599304,0.5477431416511536,0.7758759260177612,-0.026987150311470032,-0.04663395881652832,0.14257842302322388
-0.15397199988365173,0.2812936305999756,0.6596156358718872,-0.13663387298583984,0.02098599076271057,0.04012817144393921
0.32685017585754395,0.6629505753517151,0.8069274425506592,-0.02657344937324524,0.07454398274421692,-0.1782747507095337
0.8946053981781006,1.055701732635498,1.0390729904174805,0.07239027321338654,0.05179104208946228,-0.3022061586380005
0.9105295538902283,0.9076366424560547,1.2092602252960205,0.0732756108045578,0.05326807498931885,-0.140100359916687
0.2770373821258545,0.27788615226745605,1.0305757522583008,-0.010900259017944336,-0.003567993640899658,0.20327359437942505
-0.3076905608177185,-0.10865667462348938,0.6196755766868591,-0.14922066032886505,-0.10738658905029297,0.3667340874671936
-0.15813837945461273,-0.6822851896286011,0.49203237891197205,-0.19983181357383728,-0.1505010426044464,0.07800525426864624
0.4640192985534668,-0.3288732171058655,0.5908743143081665,0.023511096835136414,-0.07732158899307251,-0.22789031267166138
0.4940706789493561,-0.22185233235359192,0.4747826159000397,0.03296120464801788,-0.14743182063102722,-0.5053263306617737
0.4380183517932892,-0.29993578791618347,0.3650766909122467,0.01466551423072815,-0.11571836471557617,-0.028710126876831055
0.14739784598350525,-0.25296255946159363,0.18377181887626648,0.06943304091691971,-0.21082660555839539,0.048490166664123535
0.008967823348939419,-0.43877947330474854,0.08630591630935669,0.1655457466840744,-0.21755269169807434,-0.026795506477355957
0.04840540885925293,-0.9069523811340332,0.3790324330329895,0.30876001715660095,-0.23198914527893066,-0.09774971008300781
0.05316445976495743,-1.2002534866333008,0.7926638126373291,0.3589068353176117,-0.16780364513397217,-0.20223766565322876
-0.06684847921133041,-1.4988287687301636,1.0084154605865479,0.32111436128616333,-0.12306886911392212,-0.08906829357147217
-0.197527214884758,-1.6500322818756104,1.193029522895813,0.31267645955085754,-0.07823711633682251,0.04634660482406616
-0.37221384048461914,-1.9743977785110474,1.5821864604949951,0.35081470012664795,-0.09777671098709106,0.10765749216079712
-0.5924894213676453,-2.0311458110809326,1.9667246341705322,0.33935320377349854,-0.04038843512535095,0.10661709308624268
-0.7974418997764587,-1.9698837995529175,2.0286848545074463,0.25963401794433594,0.027895629405975342,0.16796213388442993
-0.7013412117958069,-1.6225451231002808,1.885070562362671,0.22212840616703033,0.15072011947631836,0.21422016620635986
-0.35387495160102844,-1.1607123613357544,1.7907987833023071,0.23358029127120972,0.1648818850517273,0.19095957279205322
0.004148163832724094,-0.4475463032722473,1.970302939414978,0.16945239901542664,0.2260696291923523,0.19965755939483643
0.48100802302360535,1.1451994180679321,2.2686853408813477,0.17180299758911133,0.4099750816822052,0.28035080432891846
1.0062403678894043,2.492037057876587,2.399243116378784,0.23483464121818542,0.2241106927394867,0.2748486399650574
1.2986360788345337,2.7513785362243652,2.4510350227355957,0.018130600452423096,0.18814072012901306,0.16951191425323486
0.731740415096283,2.084787368774414,2.153170347213745,0.03431481122970581,0.380680114030838,0.10651975870132446
0.015438330359756947,1.4602223634719849,1.3256306648254395,-0.11841155588626862,0.4110632538795471,0.2229117751121521
-0.30272722244262695,1.253825068473816,0.7973214387893677,-0.12314826250076294,0.3668243885040283,0.21070820093154907
-0.3845166862010956,1.4955695867538452,0.6393668055534363,-0.09516440331935883,0.2544640600681305,0.20870918035507202
-0.2882043123245239,1.9732800722122192,0.4712281823158264,-0.20995458960533142,0.25016769766807556,0.20623260736465454
0.1013713926076889,2.507256507873535,0.28294992446899414,-0.21486051380634308,0.23524925112724304,0.1850529909133911
0.7719988822937012,2.5992555618286133,-0.07926326990127563,-0.25929930806159973,0.26947006583213806,0.09851539134979248
1.595664143562317,2.046409845352173,-0.9321536421775818,-0.38839179277420044,0.3621067702770233,-0.02733159065246582
1.6190305948257446,1.1303997039794922,-2.478255033493042,-0.5545283555984497,0.4759315848350525,0.2551423907279968
0.7571856379508972,1.943412184715271,-2.8794262409210205,-0.37935012578964233,0.2347744107246399,0.43767249584198
-0.4690202474594116,1.9991563558578491,-1.7971434593200684,-0.007714956998825073,0.08471515774726868,0.47134679555892944
-0.5881284475326538,1.9203191995620728,-1.2299524545669556,0.13823950290679932,-0.02741137146949768,0.029067516326904297
0.11211136728525162,1.8649215698242188,-1.4417202472686768,0.0048755258321762085,0.0615047812461853,-0.3138221502304077
1.3492270708084106,1.9858672618865967,-2.10245943069458,-0.19441980123519897,0.10634219646453857,-0.45404052734375
2.402897596359253,2.2030789852142334,-2.5117416381835938,-0.14533814787864685,0.06756749749183655,-0.4177857041358948
2.4768691062927246,2.522258996963501,-2.5278313159942627,0.025061815977096558,0.041213393211364746,-0.2411491870880127
1.093854308128357,2.541649341583252,-2.025726556777954,0.2761824131011963,-0.14963382482528687,-0.039076805114746094
-0.22690941393375397,1.3091930150985718,-1.4007552862167358,0.5075753331184387,-0.18039220571517944,-0.05498325824737549
-0.259248286485672,0.4613707661628723,-1.2974635362625122,0.425727903842926,-0.1041763424873352,-0.3382161855697632
0.7258826494216919,0.37673747539520264,-1.5723285675048828,0.1826825737953186,0.013985246419906616,-0.5853357911109924
1.5038021802902222,0.507030725479126,-1.8212628364562988,-0.0041176676750183105,0.054693371057510376,-0.532419741153717
1.3833571672439575,0.5515445470809937,-1.5264921188354492,0.07684439420700073,-0.012516587972640991,-0.2107548713684082
1.0232784748077393,0.48749884963035583,-1.0727994441986084,0.24461674690246582,-0.05758807063102722,-0.07414424419403076
0.7584559917449951,0.5551897287368774,-0.9228246212005615,0.19470137357711792,-0.03791049122810364,-0.03819042444229126
0.6473140120506287,0.6137441396713257,-0.8751844167709351,0.2065982222557068,-0.015232682228088379,-0.10093343257904053
0.5245566964149475,0.3548923432826996,-0.712270975112915,0.2713373899459839,-0.04723578691482544,-0.17778074741363525
0.10303223878145218,-0.13134349882602692,-0.3253147304058075,0.3683096170425415,-0.10788637399673462,-0.1601029634475708
-0.45392608642578125,-0.6689538955688477,0.2204798310995102,0.46411246061325073,-0.11103960871696472,-0.08793103694915771
-0.8711690306663513,-1.187554121017456,0.6450178623199463,0.40776026248931885,-0.0661710798740387,-0.04491502046585083
-1.0703399181365967,-1.6426105499267578,0.9199717044830322,0.30126917362213135,0.02774563431739807,-0.044441938400268555
-1.195935845375061,-2.023099422454834,1.062009334564209,0.19845426082611084,0.11717703938484192,0.006606936454772949
-1.343266487121582,-2.238140344619751,1.1856279373168945,0.11026632785797119,0.16094371676445007,0.0755685567855835
-1.5940731763839722,-2.273698329925537,1.33955717086792,0.10302725434303284,0.1915547251701355,0.18828070163726807
-1.7669651508331299,-2.087108612060547,1.3838837146759033,0.06933906674385071,0.23314818739891052,0.24443739652633667
-1.6286629438400269,-1.619591236114502,1.349587082862854,0.022728919982910156,0.26209357380867004,0.22995662689208984
-1.2329148054122925,-0.9723511934280396,1.2419599294662476,0.004466444253921509,0.30407634377479553,0.15988612174987793
-0.8391521573066711,-0.29713475704193115,1.049301266670227,-0.018421322107315063,0.3388228118419647,0.1314430832862854
-0.5866687893867493,0.35581615567207336,0.8032289743423462,-0.05744257569313049,0.36428192257881165,0.15760838985443115
-0.5075194239616394,0.860832154750824,0.6033535599708557,-0.02462354302406311,0.37768325209617615,0.18859076499938965
-0.33986371755599976,1.3110244274139404,0.5481823682785034,0.007865846157073975,0.39015093445777893,0.1394677758216858
-0.11922106891870499,1.6348130702972412,0.5042827129364014,0.0409795343875885,0.41043737530708313,0.05234837532043457
0.05233287438750267,1.8466145992279053,0.4287402331829071,0.017546892166137695,0.427181601524353,0.025926172733306885
0.12620367109775543,1.9592201709747314,0.3490193486213684,0.010959237813949585,0.44010129570961,0.020779669284820557
-0.03711326792836189,1.5766178369522095,0.200358584523201,0.0057933032512664795,0.41315582394599915,-0.012975335121154785
-0.6643902063369751,0.009566721506416798,0.10807352513074875,0.0821080207824707,0.40467026829719543,-0.10694026947021484
-1.4229321479797363,-1.886667251586914,0.2763122618198395,0.17306369543075562,0.321010023355484,-0.190041184425354
-1.8958847522735596,-2.875335931777954,0.7933132648468018,0.23525670170783997,0.24378961324691772,-0.2029564380645752
-1.946323037147522,-2.6776626110076904,1.4455463886260986,0.18965759873390198,0.16798090934753418,-0.15747123956680298
-1.7445913553237915,-1.7513179779052734,1.8730552196502686,0.10790613293647766,0.19160868227481842,-0.05607759952545166
-1.3991050720214844,-0.5881662964820862,1.9383169412612915,-0.06005290150642395,0.22666198015213013,-0.04142504930496216
-1.0503822565078735,0.34603577852249146,1.7935638427734375,-0.10219639539718628,0.2854369282722473,-0.06595247983932495
-0.6909984350204468,1.1165210008621216,1.6638847589492798,-0.0806884765625,0.33145609498023987,-0.11068916320800781
-0.5638149976730347,1.692992925643921,1.6057647466659546,-0.055637240409851074,0.3468480706214905,-0.06510668992996216
-0.7048137187957764,1.9514023065567017,1.537002444267273,-0.03935527801513672,0.3569551706314087,0.03145921230316162
-0.8859567642211914,2.043212413787842,1.3885679244995117,-0.08605986833572388,0.3886626660823822,0.09482532739639282
-1.033139944076538,2.1976449489593506,1.1580578088760376,-0.14795690774917603,0.42730969190597534,0.13843858242034912
-1.2230937480926514,2.5257372856140137,0.9521879553794861,-0.2046757936477661,0.43917012214660645,0.2234477400779724
-1.4809867143630981,2.965646743774414,0.8290854096412659,-0.21464863419532776,0.4272410273551941,0.29849469661712646
-1.817908525466919,3.3287296295166016,0.7007741928100586,-0.1777629852294922,0.4344635009765625,0.33392584323883057
-2.0851025581359863,3.5645315647125244,0.5128006339073181,-0.1554107666015625,0.487712562084198,0.2981534004211426
-2.208590269088745,3.6658058166503906,0.21094411611557007,-0.13091552257537842,0.5525282025337219,0.19962894916534424
-2.2774462699890137,3.5364980697631836,-0.18439881503582,-0.08834230899810791,0.6104928255081177,0.050309836864471436
-2.430424213409424,3.313350200653076,-0.5197460651397705,-0.066520094871521,0.6190201044082642,-0.007922053337097168
-2.6425533294677734,3.058992862701416,-0.8255594372749329,-0.057600319385528564,0.5965875387191772,-0.06503254175186157
-2.8756909370422363,2.8333561420440674,-1.055127501487732,-0.06260937452316284,0.5627843737602234,-0.13007265329360962
-3.0837345123291016,2.6354289054870605,-1.2101930379867554,-0.05244368314743042,0.5314078330993652,-0.22457683086395264
-3.3327078819274902,2.4474596977233887,-1.4832664728164673,-0.07423782348632812,0.5210033059120178,-0.34030383825302124
-3.377443552017212,2.281132221221924,-1.8766107559204102,-0.11570775508880615,0.5315744876861572,-0.44922617077827454
-2.803408145904541,2.065109968185425,-2.2265775203704834,-0.05959486961364746,0.5481860637664795,-0.6796334981918335
-1.752079963684082,1.8219494819641113,-2.4769201278686523,0.030550658702850342,0.5022687315940857,-0.8930588364601135
-0.7847426533699036,1.4718005657196045,-2.6246795654296875,0.0768423080444336,0.3844640552997589,-0.930088996887207
-0.300761878490448,1.0373597145080566,-2.650655508041382,0.09090238809585571,0.23946183919906616,-0.7910326719284058
-0.4049399793148041,0.3523668348789215,-2.546699047088623,0.13592207431793213,0.07564306259155273,-0.6073200702667236
-0.9350833296775818,-0.3574882447719574,-2.460622787475586,0.11695653200149536,-0.05166536569595337,-0.4251350462436676
-1.3459616899490356,-0.7781153321266174,-2.149921178817749,0.15267568826675415,-0.12411671876907349,-0.33954918384552
-1.2413382530212402,-1.0782744884490967,-1.619683027267456,0.2530801296234131,-0.18004322052001953,-0.4513234496116638
-1.0857748985290527,-1.25016450881958,-1.1577762365341187,0.26770633459091187,-0.2183111310005188,-0.4882371425628662
-1.192372441291809,-1.4697020053863525,-0.9198573231697083,0.20333492755889893,-0.2607681155204773,-0.39200079441070557
-1.3905965089797974,-1.7192031145095825,-0.73018479347229,0.19963866472244263,-0.2823135256767273,-0.3163599371910095
-1.5502170324325562,-1.9238016605377197,-0.5086829662322998,0.22527587413787842,-0.3256627321243286,-0.27490055561065674
-1.663017988204956,-2.0508856773376465,-0.28419384360313416,0.2713466286659241,-0.35957562923431396,-0.23358255624771118
-1.7844908237457275,-2.061701774597168,-0.09729761630296707,0.2830426096916199,-0.38510751724243164,-0.18718671798706055
-1.8406553268432617,-2.057856321334839,0.014289438724517822,0.2919602394104004,-0.4069744944572449,-0.16313189268112183
-1.730376958847046,-2.0462021827697754,0.066661037504673,0.27345335483551025,-0.423991322517395,-0.16511550545692444
-1.3880819082260132,-2.055434465408325,0.08734241127967834,0.33380430936813354,-0.4087650179862976,-0.20064786076545715
-1.0854665040969849,-1.9919110536575317,0.06405732780694962,0.4041847586631775,-0.39031386375427246,-0.14359985291957855
-0.8068893551826477,-1.8845957517623901,0.032880108803510666,0.4135401248931885,-0.43142199516296387,-0.05653345584869385
-0.561731219291687,-1.6589444875717163,0.17455396056175232,0.45315271615982056,-0.5106706619262695,0.02180340886116028
-0.41256383061408997,-1.396162748336792,0.4917961061000824,0.5222791433334351,-0.5529086589813232,0.09618890285491943
-0.42060399055480957,-1.2626690864562988,0.7617605924606323,0.5548794269561768,-0.5023820400238037,0.16327381134033203
-0.4483165740966797,-1.1693665981292725,0.9139540195465088,0.5645077228546143,-0.3992578983306885,0.18339645862579346
-0.5195478200912476,-0.995594322681427,1.0227954387664795,0.5644831657409668,-0.32861649990081787,0.19313102960586548
-0.6290848255157471,-0.7533647418022156,1.177338719367981,0.5639623999595642,-0.2928043007850647,0.20098033547401428
-0.6945713758468628,-0.4744662046432495,1.367897629737854,0.55400550365448,-0.28605329990386963,0.151328444480896
-0.7242373824119568,-0.20759370923042297,1.5070651769638062,0.5318593978881836,-0.24508249759674072,0.0804821252822876
-0.6530523300170898,-0.0568138062953949,1.5556821823120117,0.49735546112060547,-0.1978386640548706,-0.013558268547058105
-0.4932301342487335,-0.05205404758453369,1.572831630706787,0.45427078008651733,-0.1659374237060547,-0.0949983298778534
-0.22617954015731812,-0.09648436307907104,1.658899188041687,0.461010217666626,-0.12323141098022461,-0.1592223346233368
0.04720503091812134,-0.10513199865818024,1.7957284450531006,0.4395131468772888,-0.12468528747558594,-0.17466318607330322
0.23091115057468414,-0.058735404163599014,1.9211809635162354,0.3974137306213379,-0.09606534242630005,-0.13696250319480896
0.3782719373703003,0.011308695189654827,2.0371110439300537,0.34173423051834106,-0.05203741788864136,-0.08815369009971619
0.48471081256866455,0.07088876515626907,2.149035692214966,0.30023348331451416,-0.00032907724380493164,-0.05625191330909729
0.5309910178184509,0.12174069136381149,2.227597951889038,0.24455153942108154,0.0634801983833313,-0.023356735706329346
0.5202266573905945,0.17376035451889038,2.2695295810699463,0.18563777208328247,0.13620391488075256,-0.0008327662944793701
0.4386916160583496,0.19051998853683472,2.2730674743652344,0.12540698051452637,0.20943716168403625,0.0155256986618042
0.35080403089523315,0.16389605402946472,2.2079169750213623,0.05476880073547363,0.2662855386734009,0.019512057304382324
0.3106943964958191,0.08628585934638977,2.0977671146392822,-0.02015221118927002,0.31764426827430725,0.006503432989120483
0.2898332476615906,0.06577517092227936,1.9635491371154785,-0.08261072635650635,0.3426908850669861,0.008955389261245728
0.2457839399576187,0.15432895720005035,1.8305249214172363,-0.15089714527130127,0.3530254364013672,0.047867536544799805
0.2107636034488678,0.2961459755897522,1.6533558368682861,-0.2065473198890686,0.35463249683380127,0.06173276901245117
0.16803288459777832,0.3897569477558136,1.4002432823181152,-0.2781287431716919,0.3753417134284973,0.06860530376434326
0.22606588900089264,0.41275230050086975,1.1133594512939453,-0.32559722661972046,0.3817954659461975,0.050197333097457886
0.346957266330719,0.3872619569301605,0.8855790495872498,-0.3418278694152832,0.38566699624061584,0.020452499389648438
0.2966735064983368,0.40162548422813416,0.6687456369400024,-0.36948609352111816,0.36479589343070984,0.06466877460479736
0.12594425678253174,0.39392364025115967,0.4826250672340393,-0.3920292854309082,0.3445003628730774,0.12542565166950226
-0.019795361906290054,0.330442875623703,0.30746886134147644,-0.3871082067489624,0.3367852568626404,0.1330721378326416
-0.16982419788837433,0.22606441378593445,0.09770578145980835,-0.3925904631614685,0.34572476148605347,0.13279373943805695
-0.3305552005767822,0.10612387210130692,-0.13344527781009674,-0.398060142993927,0.36484935879707336,0.14022451639175415
-0.5336841344833374,-0.03178258612751961,-0.394792765378952,-0.39366912841796875,0.37782585620880127,0.1459277868270874
-0.7433843612670898,-0.10354439914226532,-0.6577673554420471,-0.36264097690582275,0.4046957194805145,0.14654117822647095
-0.9314261078834534,-0.1199195459485054,-0.923819899559021,-0.28265029191970825,0.45141878724098206,0.1311589479446411
-1.0615100860595703,-0.11281656473875046,-1.2178082466125488,-0.21814745664596558,0.48791882395744324,0.09759390354156494
-1.070202112197876,-0.09180624037981033,-1.5016543865203857,-0.16151916980743408,0.49945032596588135,0.029908597469329834
-1.035183072090149,0.08507492393255234,-1.6612874269485474,-0.11799514293670654,0.4743279814720154,-0.043262869119644165
-0.9964312314987183,0.24865591526031494,-1.8437886238098145,-0.03275662660598755,0.525417149066925,-0.08626846969127655
-0.8181701302528381,0.2526759207248688,-2.232269763946533,0.014730095863342285,0.5683610439300537,-0.15052571892738342
-0.4418197274208069,0.18263190984725952,-2.5572307109832764,0.012856364250183105,0.49962928891181946,-0.2245388627052307
-0.039696916937828064,0.11145198345184326,-2.6873440742492676,0.1045418381690979,0.4134625196456909,-0.24544738233089447
0.2201606184244156,0.02137240208685398,-2.767843723297119,0.18333297967910767,0.3450191020965576,-0.18190664052963257
0.36460554599761963,-0.01824224554002285,-2.8449387550354004,0.18887144327163696,0.22396504878997803,-0.08405396342277527
0.359396368265152,-0.008412938565015793,-2.824563503265381,0.20649415254592896,0.07167583703994751,0.005341708660125732
0.2060568779706955,0.03161218762397766,-2.621631622314453,0.2531507611274719,-0.06717807054519653,0.08204002678394318
-0.09245333820581436,0.03650104999542236,-2.2530765533447266,0.3486330509185791,-0.14743298292160034,0.12449468672275543
-0.5252605676651001,-0.09346144646406174,-1.8333016633987427,0.4186694622039795,-0.20107948780059814,0.13960111141204834
-1.0736159086227417,-0.40251773595809937,-1.4030661582946777,0.4459133744239807,-0.24739021062850952,0.13068337738513947
-1.6548080444335938,-0.7935393452644348,-0.9760707020759583,0.4313918948173523,-0.298941433429718,0.08914691209793091
-2.072690963745117,-1.1227012872695923,-0.5727319121360779,0.3967830538749695,-0.32162904739379883,0.032019272446632385
-2.275290012359619,-1.4007831811904907,-0.27211815118789673,0.34241700172424316,-0.3332589864730835,-0.06849753856658936
-2.2841787338256836,-1.6094127893447876,-0.10020411014556885,0.2722756266593933,-0.3206760883331299,-0.15031759440898895
-2.115334987640381,-1.6633119583129883,-0.042739756405353546,0.1985800862312317,-0.32312822341918945,-0.21684084832668304
-1.7401916980743408,-1.5506023168563843,-0.06228037551045418,0.14575916528701782,-0.3249419331550598,-0.27480190992355347
-1.1556720733642578,-1.2853553295135498,-0.114080049097538,0.11491495370864868,-0.33958762884140015,-0.32472360134124756
-0.5058695673942566,-0.9506312608718872,-0.15316465497016907,0.12077546119689941,-0.35527604818344116,-0.3364908695220947
0.014844769611954689,-0.6461577415466309,-0.1281154453754425,0.15512269735336304,-0.3544055223464966,-0.2870693802833557
0.3337151110172272,-0.45573967695236206,0.03633369132876396,0.22884607315063477,-0.37603724002838135,-0.20554612576961517
0.3529644012451172,-0.45688387751579285,0.17544344067573547,0.24522823095321655,-0.383730411529541,-0.11707030236721039
0.09514973312616348,-0.52412348985672,0.23349297046661377,0.21402621269226074,-0.370638370513916,-0.0043629854917526245
-0.0960940271615982,-0.5928557515144348,0.29190492630004883,0.1890096664428711,-0.35416537523269653,0.04106880724430084
-0.015796028077602386,-0.6122516393661499,0.3967577815055847,0.21654069423675537,-0.32506364583969116,-0.004322350025177002
0.10614039748907089,-0.5062835216522217,0.5161638259887695,0.24313288927078247,-0.2950723171234131,-0.008314266800880432
0.20140571892261505,-0.3763062357902527,0.5587144494056702,0.2055429220199585,-0.28845852613449097,0.022172629833221436
0.3956788182258606,-0.2281772643327713,0.5124841332435608,0.16972875595092773,-0.26596492528915405,0.02305227518081665
0.7194383144378662,-0.05267993360757828,0.4171554148197174,0.15332400798797607,-0.2385401725769043,0.022791951894760132
1.0034406185150146,0.12030652910470963,0.3097933828830719,0.19108319282531738,-0.19845646619796753,0.04732722043991089
1.1861474514007568,0.3355315029621124,0.2878883481025696,0.20856058597564697,-0.18965697288513184,0.10624560713768005
1.258994698524475,0.5945406556129456,0.36590421199798584,0.2411595582962036,-0.18310368061065674,0.1490733027458191
1.2006947994232178,0.8022942543029785,0.4908788502216339,0.2678731083869934,-0.17121082544326782,0.18812507390975952
0.979968786239624,0.9095146656036377,0.6087648272514343,0.2727583646774292,-0.14849823713302612,0.22597044706344604
0.6084746718406677,0.912712574005127,0.7359744906425476,0.3142673969268799,-0.08354192972183228,0.21780766546726227
0.2749248743057251,0.6594763398170471,0.7316680550575256,0.35701578855514526,0.03588080406188965,0.1613669991493225
0.09289662539958954,0.26959842443466187,0.5642252564430237,0.36298704147338867,0.12023532390594482,0.08246457576751709
0.009604612365365028,0.16434918344020844,0.5280072093009949,0.32284337282180786,0.0669393539428711,0.050181224942207336
-0.13854242861270905,0.2417089343070984,0.6917219161987305,0.33909034729003906,-0.018925845623016357,0.043148308992385864
-0.33146053552627563,0.19747565686702728,0.8787288665771484,0.3703051209449768,-0.039100468158721924,0.029906272888183594
-0.5288646817207336,-0.019939227029681206,0.9283604025840759,0.3660857677459717,-0.016015946865081787,0.00755840539932251
-0.6131125688552856,-0.1746416836977005,1.027600884437561,0.3345445394515991,-0.025912344455718994,0.005586862564086914
-0.5481691956520081,-0.06586814671754837,1.3144336938858032,0.32545405626296997,-0.06734633445739746,-0.028370290994644165
-0.41184598207473755,0.23110100626945496,1.7063817977905273,0.30340421199798584,-0.06609463691711426,-0.05968722701072693
-0.19672530889511108,0.6198716759681702,1.9435665607452393,0.24295443296432495,0.019984185695648193,-0.10553093254566193
0.09461383521556854,0.9932514429092407,1.9783574342727661,0.170343279838562,0.15460622310638428,-0.1671554446220398
0.42991769313812256,1.1988927125930786,1.8572661876678467,0.11949163675308228,0.2733640968799591,-0.22824501991271973
0.7517563104629517,1.1892157793045044,1.7607860565185547,0.08216595649719238,0.3377224802970886,-0.2800315022468567
0.9192886352539062,1.069461703300476,1.732234001159668,0.05649065971374512,0.34516841173171997,-0.26941603422164917
0.8883578777313232,0.8524146676063538,1.7404838800430298,0.015562653541564941,0.3277660608291626,-0.21434760093688965
0.8195429444313049,0.5846755504608154,1.6914923191070557,-0.04645955562591553,0.314995676279068,-0.17872464656829834
0.8075982332229614,0.36931177973747253,1.5846787691116333,-0.12945294380187988,0.316710501909256,-0.1715824455022812
0.9124064445495605,0.2650255858898163,1.4899680614471436,-0.19721460342407227,0.32458123564720154,-0.17730695009231567
1.0378713607788086,0.2969503104686737,1.4057706594467163,-0.24330544471740723,0.3438153564929962,-0.1635887622833252
1.1402205228805542,0.3578077554702759,1.267967939376831,-0.2975977659225464,0.3608810305595398,-0.14123225212097168
1.196280837059021,0.4706256091594696,1.0633597373962402,-0.36516332626342773,0.3828528821468353,-0.12015390396118164
1.269267201423645,0.574756920337677,0.8117089867591858,-0.41961562633514404,0.40261954069137573,-0.12540698051452637
1.3897905349731445,0.6715762615203857,0.53696209192276,-0.4666569232940674,0.4145282208919525,-0.14872491359710693
1.5237905979156494,0.6893916726112366,0.2051098644733429,-0.494894802570343,0.43270695209503174,-0.16776591539382935
1.6440445184707642,0.613680362701416,-0.1607850342988968,-0.5229897499084473,0.4484618604183197,-0.18166041374206543
1.6757320165634155,0.46357929706573486,-0.5582857728004456,-0.5466502904891968,0.4600815176963806,-0.17508983612060547
1.579935908317566,0.20007272064685822,-0.9699491858482361,-0.5570875406265259,0.4590632915496826,-0.15259277820587158
1.3447328805923462,-0.16835550963878632,-1.3251439332962036,-0.5452886819839478,0.45063167810440063,-0.12303347140550613
1.0313879251480103,-0.5375463962554932,-1.5600512027740479,-0.49479877948760986,0.43654724955558777,-0.08700335025787354
0.7346884608268738,-0.7716637849807739,-1.5696346759796143,-0.4151897430419922,0.4012613296508789,-0.06054103374481201
0.4684368968009949,-0.886877179145813,-1.4308723211288452,-0.3342779278755188,0.3600463271141052,-0.036494240164756775
0.16119028627872467,-0.9565024375915527,-1.3004597425460815,-0.28464072942733765,0.3389989137649536,0.0035251975059509277
-0.3454054296016693,-0.9530506134033203,-1.2991629838943481,-0.2527899742126465,0.3888019621372223,0.05705110728740692
-0.9581528306007385,-0.8861010670661926,-1.3685981035232544,-0.2236083745956421,0.48076343536376953,0.10002712905406952
-1.2961763143539429,-0.7812057733535767,-1.6236082315444946,-0.15399932861328125,0.566179096698761,0.04064953327178955
-1.068427562713623,-0.8250454068183899,-2.0134165287017822,-0.12657487392425537,0.5873470306396484,-0.10496984422206879
-0.6518002152442932,-0.9955103993415833,-2.3724615573883057,-0.050362229347229004,0.5385679602622986,-0.1906406283378601
-0.46372026205062866,-1.13815176486969,-2.528940200805664,0.0017191767692565918,0.37282973527908325,-0.10757273435592651
-0.3646511435508728,-1.1965628862380981,-2.4363176822662354,0.05902397632598877,0.16990870237350464,0.0017685294151306152
-0.21643072366714478,-1.0965487957000732,-2.1775691509246826,0.13390284776687622,0.025724351406097412,0.053271904587745667
-0.16383640468120575,-0.8867570757865906,-1.7960489988327026,0.226173996925354,-0.039115846157073975,0.1100187599658966
-0.38855528831481934,-0.6059871912002563,-1.3686225414276123,0.29392075538635254,-0.04818230867385864,0.19774028658866882
-0.8958314657211304,-0.3599625527858734,-0.9676956534385681,0.3370059132575989,-0.03195798397064209,0.2697521448135376
-1.3532823324203491,-0.28500887751579285,-0.6706215143203735,0.33428215980529785,-0.010287582874298096,0.22163888812065125
-1.5787625312805176,-0.39689505100250244,-0.4388406276702881,0.30819159746170044,-0.015678346157073975,0.07332833111286163
-1.6355180740356445,-0.6109104156494141,-0.2298724204301834,0.2561376690864563,-0.05784076452255249,-0.05011504888534546
-1.6155706644058228,-0.8409788012504578,-0.06860111653804779,0.1838175654411316,-0.10291063785552979,-0.11612927913665771
-1.5819895267486572,-1.0047087669372559,0.05042700842022896,0.12965726852416992,-0.14206397533416748,-0.12419098615646362
-1.5877476930618286,-1.1028673648834229,0.10846634209156036,0.10386162996292114,-0.16421294212341309,-0.09339441359043121
-1.608054518699646,-1.0939624309539795,0.14768466353416443,0.07667803764343262,-0.1735011339187622,-0.0707864761352539
-1.589219093322754,-0.9679383039474487,0.1667734533548355,0.07540649175643921,-0.17955803871154785,-0.07088512182235718
-1.5328127145767212,-0.7557549476623535,0.24336138367652893,0.09519720077514648,-0.17354631423950195,-0.08917544782161713
-1.471309781074524,-0.4391855299472809,0.43832215666770935,0.13590413331985474,-0.1975305676460266,-0.08832472562789917
-1.4573959112167358,-0.04905201867222786,0.6945216059684753,0.15585196018218994,-0.23664885759353638,-0.07286685705184937
-1.4368834495544434,0.3360286056995392,0.877295732498169,0.18229401111602783,-0.25636303424835205,-0.064938485622406
-1.3834611177444458,0.4961107075214386,0.8077274560928345,0.1701500415802002,-0.2212749719619751,-0.09037720412015915
-1.2178380489349365,0.4797283113002777,0.7213359475135803,0.18020415306091309,-0.20550328493118286,-0.13093769550323486
-1.0029617547988892,0.34224754571914673,0.6731508374214172,0.18549871444702148,-0.23357611894607544,-0.1620997190475464
-0.8461260199546814,0.0229116789996624,0.5868480205535889,0.18453818559646606,-0.2581368684768677,-0.1637842059135437
-0.7210102677345276,-0.2921971082687378,0.47592276334762573,0.16561251878738403,-0.27530980110168457,-0.14153999090194702
-0.506987988948822,-0.5046119093894958,0.3094496726989746,0.1600567102432251,-0.27384835481643677,-0.12306833267211914
-0.11065713316202164,-0.6211596131324768,0.1987275928258896,0.1520763635635376,-0.27278321981430054,-0.14153164625167847
0.30117639899253845,-0.500982403755188,0.0991605818271637,0.1635904312133789,-0.26955312490463257,-0.10983657836914062
0.6910279393196106,-0.28553375601768494,-0.029595190659165382,0.16012632846832275,-0.26954346895217896,-0.05103396996855736
1.0380353927612305,-0.16155563294887543,-0.19567443430423737,0.16500324010849,-0.2676839828491211,-0.004184901714324951
1.2914972305297852,-0.16473621129989624,-0.2830912470817566,0.1930491328239441,-0.26882457733154297,0.04349571838974953
1.312963604927063,-0.13773798942565918,-0.2045830488204956,0.2750147581100464,-0.2844129204750061,0.12726479768753052
1.0457698106765747,0.005207560025155544,0.017236096784472466,0.35712212324142456,-0.27901166677474976,0.23209714889526367
0.7554768919944763,0.04797063767910004,0.22205369174480438,0.4607703685760498,-0.2306218147277832,0.2656272053718567
0.47839275002479553,0.027486110106110573,0.33986425399780273,0.5073133707046509,-0.1779140830039978,0.2266981154680252
0.20943929255008698,-0.06013716012239456,0.5067511796951294,0.5112718939781189,-0.21096748113632202,0.1755874752998352
0.031587447971105576,-0.15198199450969696,0.8084736466407776,0.49921780824661255,-0.2579212784767151,0.11246514320373535
0.10462883859872818,-0.1798006147146225,1.187760591506958,0.5303068161010742,-0.21748095750808716,0.01084446907043457
0.33309370279312134,-0.06265082955360413,1.4732636213302612,0.4953373670578003,-0.11090677976608276,-0.0643794983625412
0.6253194212913513,0.20445936918258667,1.6280632019042969,0.4403988718986511,0.014390766620635986,-0.08800576627254486
0.8903812766075134,0.5695242285728455,1.6986579895019531,0.3409910202026367,0.07186514139175415,-0.08664923906326294
1.1013261079788208,0.9001986384391785,1.7006524801254272,0.24864298105239868,0.09729349613189697,-0.08453023433685303
1.2907507419586182,1.1628481149673462,1.6948888301849365,0.13812291622161865,0.1283661425113678,-0.11945747584104538
1.4729863405227661,1.3158373832702637,1.8148562908172607,0.10545957088470459,0.16280829906463623,-0.1529902070760727
1.5442239046096802,1.3258302211761475,1.8936278820037842,0.0871773362159729,0.22654196619987488,-0.16368365287780762
1.4724805355072021,1.2128616571426392,1.8202563524246216,0.04186779260635376,0.31661325693130493,-0.14182031154632568
1.3104426860809326,1.0932493209838867,1.6777334213256836,-0.01922440528869629,0.3731653690338135,-0.1277429461479187
1.1348204612731934,0.994866669178009,1.4886428117752075,-0.053887784481048584,0.4148964285850525,-0.12252330780029297
1.0699166059494019,0.8909702897071838,1.257948637008667,-0.0965806245803833,0.4539795219898224,-0.16402578353881836
1.1231621503829956,0.8080625534057617,1.045973300933838,-0.14229774475097656,0.4445091485977173,-0.2114688754081726
1.1793668270111084,0.745724081993103,0.9109246134757996,-0.17025983333587646,0.4237121343612671,-0.21670186519622803
1.1914641857147217,0.6890787482261658,0.8624066114425659,-0.19426476955413818,0.375945508480072,-0.1954088807106018
1.1199095249176025,0.6399610042572021,0.8538880348205566,-0.2189234495162964,0.3439106345176697,-0.15999722480773926
0.9873140454292297,0.6162604689598083,0.8138961791992188,-0.24662017822265625,0.330710768699646,-0.12853145599365234
0.8369534015655518,0.5709445476531982,0.6945217251777649,-0.2911384701728821,0.3404207229614258,-0.11590576171875
0.7706462144851685,0.47800618410110474,0.5422250032424927,-0.32493478059768677,0.3650527894496918,-0.13737249374389648
0.7745822668075562,0.4061606824398041,0.41778451204299927,-0.3335585594177246,0.3706689476966858,-0.16435110569000244
0.7989606261253357,0.37538108229637146,0.35288652777671814,-0.32631802558898926,0.3663492798805237,-0.15504872798919678
0.7563311457633972,0.3873220384120941,0.2856452465057373,-0.3289746642112732,0.3637771010398865,-0.11602520942687988
0.6624082326889038,0.4247734248638153,0.19469204545021057,-0.33235639333724976,0.34906071424484253,-0.08653914928436279
0.5549681186676025,0.44826626777648926,0.028959400951862335,-0.3573002815246582,0.3404945731163025,-0.056832317262887955
0.49874863028526306,0.40249550342559814,-0.13199733197689056,-0.3517735004425049,0.34874996542930603,-0.06957674771547318
0.4372539222240448,0.26269593834877014,-0.28026866912841797,-0.33243972063064575,0.3550761044025421,-0.07712900638580322
0.31030023097991943,0.050420649349689484,-0.41828393936157227,-0.31717342138290405,0.36049893498420715,-0.07316101342439651
0.12889254093170166,-0.2202606201171875,-0.5739963054656982,-0.3060568571090698,0.36572664976119995,-0.057822346687316895
-0.054322440177202225,-0.5052869915962219,-0.7871858477592468,-0.31280362606048584,0.37045618891716003,-0.04572821781039238
-0.13975168764591217,-0.696074903011322,-0.9967255592346191,-0.3115846514701843,0.3772892951965332,-0.04189765453338623
-0.10733763128519058,-0.7131091952323914,-1.128702163696289,-0.25596678256988525,0.3929476737976074,-0.04541122913360596
-0.045438528060913086,-0.6134241223335266,-1.2257457971572876,-0.17115718126296997,0.40766435861587524,-0.03957772254943848
-0.04658722132444382,-0.5402427911758423,-1.3286796808242798,-0.12686532735824585,0.3966798782348633,-0.013918043114244938
-0.18548843264579773,-0.49581441283226013,-1.4270857572555542,-0.13805365562438965,0.3528806269168854,0.019018888473510742
-0.35958921909332275,-0.48381125926971436,-1.4359711408615112,-0.12324631214141846,0.3246062099933624,0.03459256887435913
-0.5160532593727112,-0.5048031806945801,-1.4779435396194458,-0.05042314529418945,0.37462812662124634,0.0024412870407104492
-0.6154412627220154,-0.594261884689331,-1.7047171592712402,-0.00026404857635498047,0.4523111879825592,-0.022496463730931282
-0.6662317514419556,-0.7144695520401001,-2.00881028175354,0.020962059497833252,0.4756370484828949,-0.043235599994659424
-0.7151883244514465,-0.7925904393196106,-2.1348347663879395,0.06472277641296387,0.37885937094688416,-0.05435776710510254
-0.7901620268821716,-0.8252348303794861,-2.0602476596832275,0.10822999477386475,0.2293427288532257,-0.03672659397125244
-0.8439182043075562,-0.8115836381912231,-1.906369924545288,0.1122846007347107,0.09379133582115173,-0.018049895763397217
-0.8025246858596802,-0.7442736625671387,-1.7383460998535156,0.09987026453018188,-0.0035302042961120605,-0.02285880595445633
-0.6903715133666992,-0.6328354477882385,-1.6368778944015503,0.09261906147003174,-0.0524824857711792,-0.02549368143081665
-0.5410680174827576,-0.46246445178985596,-1.6128315925598145,0.12011110782623291,-0.055438458919525146,-0.029604792594909668
-0.4709396958351135,-0.2869891822338104,-1.5828051567077637,0.19276165962219238,-0.04234534502029419,-0.013498909771442413
-0.6545447111129761,-0.22718827426433563,-1.4396228790283203,0.3056931495666504,-0.03806459903717041,0.022620730102062225
-1.0301140546798706,-0.4061623811721802,-1.2076798677444458,0.3993551731109619,-0.06340277194976807,0.03689295053482056
-1.4873998165130615,-0.7866086363792419,-0.9516346454620361,0.42739546298980713,-0.11683386564254761,0.018178585916757584
-1.8448448181152344,-1.247879981994629,-0.7209146618843079,0.3958839178085327,-0.18420708179473877,-0.03296637907624245
-1.9384633302688599,-1.638850450515747,-0.47625261545181274,0.33727818727493286,-0.2536311745643616,-0.10957920551300049
-1.919103741645813,-1.7999012470245361,-0.21428140997886658,0.29437899589538574,-0.30833184719085693,-0.1361183524131775
-1.883776307106018,-1.7298072576522827,0.023264965042471886,0.23965078592300415,-0.33436334133148193,-0.10611951351165771
-1.8067500591278076,-1.5981391668319702,0.18048614263534546,0.19677704572677612,-0.3148360252380371,-0.08346933126449585
-1.5874422788619995,-1.283496379852295,0.2404249757528305,0.20367014408111572,-0.27222222089767456,-0.1029047966003418
-1.297751784324646,-0.9946529269218445,0.3270108103752136,0.21025431156158447,-0.24921292066574097,-0.14308112859725952
-1.032345175743103,-0.774310290813446,0.5129462480545044,0.2226298451423645,-0.25616180896759033,-0.15380454063415527
-0.8692525029182434,-0.6680884957313538,0.6896037459373474,0.24614167213439941,-0.2529637813568115,-0.12983638048171997
-0.8307114839553833,-0.6313823461532593,0.7826880216598511,0.20320779085159302,-0.24433684349060059,-0.0688788890838623
-0.7875245809555054,-0.6733629107475281,0.7151639461517334,0.10695314407348633,-0.25522637367248535,-0.029564201831817627
-0.6421960592269897,-0.6447628140449524,0.5568070411682129,0.031839609146118164,-0.24654603004455566,-0.036288440227508545
-0.40032899379730225,-0.5722916722297668,0.3740537464618683,-0.011866271495819092,-0.2452991008758545,-0.047430746257305145
-0.1155322715640068,-0.4204714000225067,0.2701255679130554,-0.01217883825302124,-0.2526004910469055,-0.05368441343307495
0.13399392366409302,-0.2208932638168335,0.2557401657104492,0.014269888401031494,-0.29230576753616333,-0.02663004770874977
0.24943511188030243,-0.010781636461615562,0.17515861988067627,0.001090705394744873,-0.3140175938606262,0.040153618901968
0.2940044701099396,0.1433279812335968,0.021347422152757645,-0.015437602996826172,-0.31389808654785156,0.09123694896697998
0.3271714150905609,0.17394310235977173,-0.0928376093506813,0.0009867548942565918,-0.3207414150238037,0.11499351263046265
0.35602670907974243,0.06213323026895523,-0.19818560779094696,0.04036593437194824,-0.31617486476898193,0.11557400226593018
0.34232309460639954,-0.07704904675483704,-0.3447868824005127,0.09129595756530762,-0.29937171936035156,0.12332820892333984
0.2918063700199127,-0.12866012752056122,-0.36226198077201843,0.17446017265319824,-0.2813277244567871,0.13641011714935303
0.2104501724243164,-0.03931346908211708,-0.04469924047589302,0.31010162830352783,-0.3077247142791748,0.13620591163635254
0.09994179010391235,0.0755147859454155,0.34519192576408386,0.3898438811302185,-0.30851560831069946,0.13912129402160645
-0.026003163307905197,0.08312990516424179,0.5506709218025208,0.42113196849823,-0.24801719188690186,0.11062777787446976
-0.10636407136917114,-0.002106321509927511,0.6663846969604492,0.4117545485496521,-0.18246132135391235,0.056790661066770554
-0.08462764322757721,-0.09519945830106735,0.7933562397956848,0.4393158555030823,-0.12993472814559937,-0.024388909339904785
0.05039267987012863,-0.1295269876718521,0.9108113646507263,0.48533254861831665,-0.04746431112289429,-0.08817756175994873
0.3341139853000641,-0.10270509868860245,0.9409016966819763,0.5268405675888062,0.051607489585876465,-0.14529860019683838
0.6528450846672058,0.02342439629137516,1.0030144453048706,0.5223670601844788,0.07413071393966675,-0.167263925075531
0.9083519577980042,0.1587671935558319,1.1817597150802612,0.440343976020813,0.011356830596923828,-0.15742582082748413
1.1626313924789429,0.2754393219947815,1.3863354921340942,0.3650202751159668,-0.0023752450942993164,-0.14903879165649414
1.4438315629959106,0.38510146737098694,1.5423578023910522,0.272549569606781,0.0266055166721344,-0.15992146730422974
1.7170575857162476,0.5047997236251831,1.6419250965118408,0.17673367261886597,0.07611200213432312,-0.15850891172885895
1.9429800510406494,0.6271324753761292,1.6501051187515259,0.08155655860900879,0.12019598484039307,-0.16927991807460785
2.12103009223938,0.8142495155334473,1.512263298034668,-0.03994154930114746,0.1918555498123169,-0.17773038148880005
2.366419553756714,1.058142066001892,1.3203107118606567,-0.14546215534210205,0.2605520188808441,-0.20606233179569244
2.6825907230377197,1.3437316417694092,1.2156885862350464,-0.16472268104553223,0.34133657813072205,-0.23555363714694977
2.8727333545684814,1.5671954154968262,1.2463700771331787,-0.052149295806884766,0.4331268072128296,-0.23085260391235352
2.6948533058166504,1.6599504947662354,1.2177252769470215,-0.08191972970962524,0.42443832755088806,-0.12335918843746185
2.2839620113372803,1.5655409097671509,1.099257469177246,-0.11616462469100952,0.4086728096008301,-0.062428951263427734
1.7711760997772217,1.3296399116516113,1.0359042882919312,-0.12498641014099121,0.3667442500591278,-0.04305410757660866
1.2731788158416748,0.9839518666267395,1.0506864786148071,-0.1075398325920105,0.3347651958465576,-0.06471413373947144
0.8173940777778625,0.586874783039093,1.0988742113113403,-0.11036127805709839,0.31445038318634033,-0.09543663263320923
0.4114936888217926,0.2145584672689438,1.122117519378662,-0.1409948468208313,0.32816725969314575,-0.11423707008361816
0.2072983980178833,-0.020525414496660233,1.0727561712265015,-0.17873328924179077,0.3663122355937958,-0.15120887756347656
0.1685899794101715,-0.16614948213100433,0.9001241326332092,-0.1949596405029297,0.43836644291877747,-0.19972336292266846
0.17521625757217407,-0.22632798552513123,0.6421160697937012,-0.23150432109832764,0.4775483310222626,-0.21515733003616333
0.15096254646778107,-0.21854360401630402,0.3304624557495117,-0.28288447856903076,0.47603312134742737,-0.20691359043121338
0.16311927139759064,-0.10080577433109283,0.21431714296340942,-0.2915942072868347,0.46175873279571533,-0.20842009782791138
0.2892455458641052,0.1764288693666458,0.51410973072052,-0.1862751841545105,0.41515684127807617,-0.22550761699676514
0.2602654993534088,0.38267984986305237,0.72112637758255,-0.16970252990722656,0.383321076631546,-0.1977941393852234
0.03709259629249573,0.3315604031085968,0.5868022441864014,-0.23218762874603271,0.4421437978744507,-0.1473836898803711
-0.17623822391033173,0.12170238047838211,0.32648900151252747,-0.30871737003326416,0.46530380845069885,-0.15225887298583984
-0.2854149341583252,-0.06016692891716957,0.16159914433956146,-0.30811989307403564,0.4617314636707306,-0.19172370433807373
-0.3285074234008789,-0.12631423771381378,0.1019870787858963,-0.28565680980682373,0.4483349025249481,-0.2002776861190796
-0.3676746189594269,-0.13625068962574005,0.009083038195967674,-0.27657079696655273,0.4426427483558655,-0.18928098678588867
-0.4053840637207031,-0.13086488842964172,-0.1762721687555313,-0.2892898917198181,0.4430709481239319,-0.16928863525390625
-0.4307122826576233,-0.07054509967565536,-0.4111866354942322,-0.28935760259628296,0.4481606185436249,-0.1625204086303711
-0.4711408317089081,-0.04843161255121231,-0.6355921030044556,-0.2784954309463501,0.43787580728530884,-0.15656697750091553
-0.5243942737579346,-0.15726487338542938,-0.776016891002655,-0.250441312789917,0.41668957471847534,-0.16368162631988525
-0.5907655358314514,-0.36572694778442383,-0.9011198282241821,-0.23555779457092285,0.3830641806125641,-0.16185498237609863
-0.6413066387176514,-0.5665991306304932,-1.0206719636917114,-0.2228885293006897,0.3588727116584778,-0.14747607707977295
-0.7040406465530396,-0.631720244884491,-1.1729357242584229,-0.20847398042678833,0.35161763429641724,-0.11135363578796387
-0.761931300163269,-0.5403412580490112,-1.3055967092514038,-0.18249255418777466,0.3531779646873474,-0.07628203183412552
-0.8484439849853516,-0.37762486934661865,-1.4610259532928467,-0.07231956720352173,0.4063863754272461,-0.051656126976013184
-0.9578178524971008,-0.3429689109325409,-1.7030417919158936,0.007923245429992676,0.4475661814212799,-0.045752279460430145
-1.051504373550415,-0.48298996686935425,-1.9487035274505615,0.06030476093292236,0.4125324487686157,-0.06629245728254318
-1.1451407670974731,-0.7744615077972412,-2.0234522819519043,0.06648319959640503,0.2712557315826416,-0.0965159460902214
-1.449889898300171,-1.257571816444397,-1.9193288087844849,0.11650294065475464,0.07333534955978394,-0.11326175928115845
-1.9280425310134888,-1.913727879524231,-1.8408631086349487,0.18133461475372314,-0.05900144577026367,-0.0808916687965393
-1.9877820014953613,-2.126002550125122,-1.9867477416992188,0.19439005851745605,-0.10703936219215393,-0.06572055071592331
-1.722000002861023,-1.6813981533050537,-2.2371537685394287,0.2231433391571045,-0.14949142932891846,-0.08321249485015869
-1.298124074935913,-1.049403429031372,-2.0541419982910156,0.38759565353393555,-0.20117300748825073,-0.06889933347702026
-0.8305365443229675,-0.5422539114952087,-1.5351091623306274,0.5698366165161133,-0.28549104928970337,-0.1127944141626358
-0.6434968113899231,-0.291174054145813,-1.075581431388855,0.5515587329864502,-0.34440672397613525,-0.019593238830566406
-0.5382148027420044,-0.4292048513889313,-0.895932137966156,0.43351876735687256,-0.31256717443466187,0.04819689691066742
-0.4437694251537323,-0.6345265507698059,-0.8796794414520264,0.328146755695343,-0.27743566036224365,0.07725031673908234
-0.4137619137763977,-0.7860981225967407,-0.9022120833396912,0.2550916075706482,-0.2604033350944519,0.13908511400222778
-0.4036911427974701,-0.938346266746521,-1.0175282955169678,0.21496355533599854,-0.22406268119812012,0.15044863522052765
-0.2542046308517456,-0.9435387849807739,-1.1851862668991089,0.19246011972427368,-0.17997276782989502,0.10365694761276245
0.17287574708461761,-0.7530511617660522,-1.31044340133667,0.22394347190856934,-0.1496472954750061,-0.009825408458709717
0.7820877432823181,-0.47104331851005554,-1.350799560546875,0.23900312185287476,-0.1619235873222351,-0.0946422666311264
1.3337067365646362,-0.18279236555099487,-1.3763086795806885,0.21221321821212769,-0.19624531269073486,-0.10747325420379639
1.7300300598144531,0.07441782206296921,-1.287053108215332,0.20664739608764648,-0.20907634496688843,-0.06616517901420593
1.867558479309082,0.18560615181922913,-1.200424313545227,0.21914523839950562,-0.2276187539100647,-0.024397611618041992
1.483620285987854,0.005032705143094063,-1.162699580192566,0.27012163400650024,-0.24463677406311035,0.048863351345062256
0.9979742765426636,-0.3160383105278015,-0.8902013897895813,0.42185574769973755,-0.28622573614120483,0.029761701822280884
0.9125475883483887,-0.2406989336013794,-0.3619798719882965,0.5596154928207397,-0.3013598918914795,-0.09668809175491333
1.272110104560852,0.29642757773399353,0.2190195769071579,0.6070763468742371,-0.3056598901748657,-0.20900818705558777
1.6929668188095093,1.0430645942687988,0.6073911786079407,0.5223202705383301,-0.24774789810180664,-0.23422002792358398
1.9361445903778076,1.570644736289978,0.8136932849884033,0.41107648611068726,-0.17796605825424194,-0.20021206140518188
2.0289595127105713,1.7567557096481323,0.9783415794372559,0.34871459007263184,-0.11595499515533447,-0.17357081174850464
2.0005812644958496,1.6592375040054321,1.1255176067352295,0.30964475870132446,-0.05976921319961548,-0.17030826210975647
1.905167818069458,1.4300813674926758,1.280569076538086,0.266194224357605,0.00708925724029541,-0.13126063346862793
1.7833354473114014,1.1504018306732178,1.4647259712219238,0.2303667664527893,0.05398273468017578,-0.109519362449646
1.5521564483642578,0.8550975918769836,1.616234540939331,0.18967187404632568,0.09207737445831299,-0.07320752739906311
1.3174574375152588,0.6546274423599243,1.71308434009552,0.1639639139175415,0.14612412452697754,-0.04607301950454712
1.2431565523147583,0.5598868727684021,1.8258953094482422,0.14608627557754517,0.19654273986816406,-0.08221662044525146
1.236372947692871,0.5251866579055786,1.8821994066238403,0.09434187412261963,0.26097506284713745,-0.09617996215820312
1.1970622539520264,0.4639338254928589,1.9204962253570557,0.045104384422302246,0.31779414415359497,-0.09141948819160461
1.0215815305709839,0.3596104085445404,1.9466543197631836,0.023522675037384033,0.3413381278514862,-0.053162455558776855
0.8312728404998779,0.28071191906929016,1.9396562576293945,-0.009806334972381592,0.3404953181743622,-0.027417629957199097
0.8217640519142151,0.3335449695587158,1.8929427862167358,-0.0755581259727478,0.3182627558708191,-0.0607890784740448
1.0082851648330688,0.40821269154548645,1.7365596294403076,-0.14605402946472168,0.3361751437187195,-0.09340950846672058
1.3068691492080688,0.4413876235485077,1.5763869285583496,-0.15691721439361572,0.36870190501213074,-0.12426602840423584
1.3391437530517578,0.4002789258956909,1.481209635734558,-0.13411957025527954,0.3746081292629242,-0.047545939683914185
1.078021764755249,0.30470046401023865,1.487829566001892,-0.12885671854019165,0.32415124773979187,0.06472119688987732
0.8167168498039246,0.22039955854415894,1.5311506986618042,-0.12390124797821045,0.2792253792285919,0.10399162769317627
0.7943610548973083,0.1491057574748993,1.5605437755584717,-0.09248661994934082,0.25273123383522034,0.07372212409973145
0.9046146869659424,0.15161320567131042,1.5780693292617798,-0.04674410820007324,0.28048384189605713,0.052073001861572266
0.8316624164581299,0.34626078605651855,1.6865822076797485,0.022904515266418457,0.2881433963775635,0.07986533641815186
0.31362757086753845,0.495428204536438,1.9402523040771484,0.12387120723724365,0.24612927436828613,0.13975346088409424
-0.30841535329818726,0.4642963707447052,2.205510139465332,0.2343297004699707,0.21421191096305847,0.13782083988189697
-0.61210036277771,0.13268320262432098,2.2988839149475098,0.26046085357666016,0.26551854610443115,0.011773645877838135
-0.6900904178619385,-0.41286250948905945,2.248267650604248,0.17906761169433594,0.31699395179748535,-0.07235464453697205
-0.6743428707122803,-0.784045398235321,2.138584852218628,0.0550609827041626,0.340278297662735,-0.04818534851074219
-0.5739035606384277,-0.7556934356689453,2.1279795169830322,-0.0033922195434570312,0.30995362997055054,0.012824028730392456
-0.45128968358039856,-0.45062193274497986,2.1852169036865234,-0.052466750144958496,0.2772326171398163,0.06752723455429077
-0.450967401266098,-0.11073216050863266,2.170768976211548,-0.13738209009170532,0.2766297161579132,0.1525290608406067
-0.5744708180427551,0.00758258206769824,1.9675499200820923,-0.2583785057067871,0.3068934679031372,0.21682968735694885
-0.6085402369499207,-0.015098956413567066,1.6470249891281128,-0.34667110443115234,0.36250168085098267,0.21369266510009766
-0.488471120595932,0.08560092747211456,1.377462387084961,-0.4106711149215698,0.3609907329082489,0.18398797512054443
-0.39290204644203186,0.34791484475135803,1.1429363489151,-0.44930189847946167,0.3307183086872101,0.19099768996238708
-0.39848870038986206,0.7521480321884155,0.9337202310562134,-0.4704313278198242,0.30507779121398926,0.22220337390899658
-0.4886406660079956,1.176317811012268,0.726126492023468,-0.4960496425628662,0.29100221395492554,0.2414076328277588
-0.4785727560520172,1.629184365272522,0.3657044768333435,-0.5164231061935425,0.3196013569831848,0.22362834215164185
-0.30493229627609253,1.881974220275879,-0.15615306794643402,-0.5902550220489502,0.38292425870895386,0.12867391109466553
-0.13809114694595337,1.7921252250671387,-0.6159883737564087,-0.6148169040679932,0.3957269787788391,0.047765493392944336
-0.2867811918258667,1.5561522245407104,-1.0178322792053223,-0.5941213369369507,0.3906201720237732,0.08164525032043457
-0.6427441239356995,1.3132554292678833,-1.2911279201507568,-0.4795219898223877,0.4059467911720276,0.13744163513183594
-0.8985291719436646,1.3006560802459717,-1.4198986291885376,-0.3218291997909546,0.401150107383728,0.09795460104942322
-0.9887102246284485,1.3810762166976929,-1.5713528394699097,-0.21412408351898193,0.4091617166996002,0.01407596468925476
-0.9341967105865479,1.430740237236023,-1.8149718046188354,-0.22481513023376465,0.44519609212875366,-0.057986438274383545
-0.8687369227409363,1.3445452451705933,-2.1898069381713867,-0.2880474328994751,0.4730652868747711,-0.10052967071533203
-0.8764051795005798,1.2020957469940186,-2.7400214672088623,-0.3685164451599121,0.5272136926651001,-0.08741456270217896
-0.7807303667068481,1.023131012916565,-3.1819965839385986,-0.34655624628067017,0.5833214521408081,-0.12128150463104248
-0.3193158209323883,1.1549241542816162,-3.151261329650879,-0.061911821365356445,0.5549798607826233,-0.23226463794708252
0.3286702334880829,1.5848320722579956,-3.109055757522583,0.26437532901763916,0.4369753897190094,-0.38018226623535156
0.7254039645195007,1.7895290851593018,-3.239068031311035,0.2706035375595093,0.35089895129203796,-0.34505295753479004
0.7600176930427551,1.4030569791793823,-3.3657305240631104,0.28673243522644043,0.31190770864486694,-0.28295934200286865
0.4475521743297577,0.6133045554161072,-3.4856936931610107,0.25797557830810547,0.2669045627117157,-0.21224135160446167
-0.02901187539100647,-0.32566696405410767,-3.577113628387451,0.20322436094284058,0.25815504789352417,-0.1642453670501709
-0.5118028521537781,-1.157884120941162,-3.553527355194092,0.20472776889801025,0.24419716000556946,-0.1304478645324707
-0.8416796326637268,-1.6995574235916138,-3.5107429027557373,0.28416335582733154,0.2393077313899994,-0.1281474232673645
-1.0011926889419556,-1.8149036169052124,-3.488342523574829,0.377282977104187,0.22100213170051575,-0.11660998314619064
-1.103968620300293,-1.5754529237747192,-3.508010149002075,0.4046892523765564,0.20476841926574707,-0.08103162050247192
-1.0997755527496338,-1.1887763738632202,-3.4224941730499268,0.4823509454727173,0.20256292819976807,-0.08763281255960464
-1.110115885734558,-0.7878867387771606,-3.2376911640167236,0.5677971243858337,0.14774751663208008,-0.1014556810259819
-1.2127835750579834,-0.5741136074066162,-3.002617835998535,0.6239161491394043,0.08686774969100952,-0.1169811487197876
-1.3565876483917236,-0.6070948243141174,-2.653873920440674,0.6960616111755371,0.004383563995361328,-0.17786253988742828
-1.4769009351730347,-0.8423575758934021,-2.2068021297454834,0.7696467041969299,-0.088034987449646,-0.2547147274017334
-1.3914034366607666,-1.1915066242218018,-1.658699631690979,0.8077937364578247,-0.20516419410705566,-0.321222722530365
-1.1562721729278564,-1.5104010105133057,-1.1505522727966309,0.8076237440109253,-0.2756980061531067,-0.3352122902870178
-0.8452156782150269,-1.64792001247406,-0.8367416262626648,0.7645360231399536,-0.2701779007911682,-0.2932302951812744
-0.48156723380088806,-1.4802093505859375,-0.6756842136383057,0.6785493493080139,-0.2589053511619568,-0.21869422495365143
-0.145919531583786,-1.0425597429275513,-0.6045227646827698,0.5987087488174438,-0.2740357518196106,-0.13426707684993744
0.22957740724086761,-0.38266637921333313,-0.5110372304916382,0.5237720012664795,-0.3244442343711853,-0.076151542365551
0.7007984519004822,0.36243513226509094,-0.40808188915252686,0.4757814407348633,-0.3676002621650696,-0.06729285418987274
1.3361934423446655,0.9389804005622864,-0.3221036195755005,0.4565927982330322,-0.3727266192436218,-0.10502892732620239
1.7320427894592285,1.0838063955307007,-0.16303487122058868,0.45836132764816284,-0.3833918571472168,-0.05036795139312744
1.632501482963562,0.8581027984619141,0.08274673670530319,0.44999033212661743,-0.3980916738510132,0.11234107613563538
1.1330126523971558,0.4040568470954895,0.31562694907188416,0.4290524125099182,-0.3867875337600708,0.26554960012435913
0.57454913854599,-0.07493693381547928,0.4779811501502991,0.3946129083633423,-0.35587769746780396,0.32539501786231995
0.2764984965324402,-0.2827666401863098,0.5194495320320129,0.34315013885498047,-0.29179489612579346,0.3026348054409027
0.32015296816825867,-0.16300424933433533,0.42122313380241394,0.2912701964378357,-0.2268039584159851,0.22096432745456696
0.5954017639160156,0.18771883845329285,0.2717525362968445,0.24794930219650269,-0.18041270971298218,0.15074528753757477
0.9783066511154175,0.6151975393295288,0.17680254578590393,0.250652015209198,-0.1762213110923767,0.09104490280151367
1.270944595336914,0.9947571158409119,0.23342932760715485,0.28128916025161743,-0.17631012201309204,0.0702362209558487
1.3808170557022095,1.3246639966964722,0.3691333532333374,0.3229644298553467,-0.15911269187927246,0.09975302219390869
1.3758186101913452,1.5803062915802002,0.5047858953475952,0.3567078709602356,-0.10421252250671387,0.13539423048496246
1.322168231010437,1.7437036037445068,0.6536909341812134,0.3812994360923767,-0.057283997535705566,0.13178111612796783
1.2949960231781006,1.8576292991638184,0.828997790813446,0.3689587116241455,-0.027015209197998047,0.08869679272174835
1.2843258380889893,1.8702764511108398,1.054608941078186,0.3748909831047058,-0.003218233585357666,0.023414328694343567
1.2207406759262085,1.760223150253296,1.2965635061264038,0.3789794445037842,0.021152138710021973,-0.01721799373626709
1.0922739505767822,1.5291740894317627,1.5034823417663574,0.3537219762802124,0.04592055082321167,-0.047261446714401245
0.9701185822486877,1.2987208366394043,1.6406023502349854,0.2949625253677368,0.0804450511932373,-0.06882372498512268
0.8836944699287415,1.1849255561828613,1.7276862859725952,0.22709709405899048,0.11734956502914429,-0.09834828972816467
0.9649918079376221,1.1563591957092285,1.8694826364517212,0.18777793645858765,0.14837580919265747,-0.15501883625984192
1.1095014810562134,1.1889958381652832,1.982690453529358,0.1414569616317749,0.18368542194366455,-0.20227819681167603
1.2097313404083252,1.194158673286438,2.0559706687927246,0.07748210430145264,0.22376233339309692,-0.19743050634860992
1.1328701972961426,1.0606878995895386,2.1228625774383545,0.06153106689453125,0.2771964371204376,-0.1806238293647766
0.7938051819801331,0.8384404182434082,2.1670045852661133,0.04887193441390991,0.33109188079833984,-0.1271517127752304
0.32855233550071716,0.5884398818016052,2.138644218444824,0.03885459899902344,0.4063923954963684,-0.0725255012512207
0.14145700633525848,0.4284304976463318,2.1018521785736084,0.02962958812713623,0.42264115810394287,-0.1366344690322876
0.24192367494106293,0.3331901431083679,2.1173083782196045,0.012418568134307861,0.3943331837654114,-0.22462719678878784
0.37108495831489563,0.2243526577949524,2.19964599609375,0.0007959604263305664,0.3653923273086548,-0.24535596370697021
0.35233765840530396,0.07786724716424942,2.3353466987609863,-0.0032669901847839355,0.3655490577220917,-0.19064795970916748
0.1023656502366066,0.011928652413189411,2.4966883659362793,-0.04526418447494507,0.37856584787368774,-0.09734846651554108
-0.1809624284505844,0.07086621224880219,2.594892740249634,-0.10822141170501709,0.4264896512031555,-0.017042621970176697
-0.36993253231048584,0.14465519785881042,2.523756980895996,-0.1918048858642578,0.49548912048339844,-0.02237987518310547
-0.413753479719162,0.17666304111480713,2.2495670318603516,-0.2867109775543213,0.5838795900344849,-0.06193745136260986
-0.360186904668808,0.2528519928455353,2.006070613861084,-0.353299617767334,0.5980916023254395,-0.09723764657974243
-0.3818947374820709,0.32682523131370544,1.928194284439087,-0.3201730251312256,0.5616582632064819,-0.09949266910552979
-0.60349041223526,0.3304516077041626,1.945297122001648,-0.283250093460083,0.5128655433654785,-0.042772188782691956
-0.9675124883651733,0.23942595720291138,1.824402928352356,-0.3300625681877136,0.4859699606895447,0.026166453957557678
-1.1659436225891113,0.12083347141742706,1.5586646795272827,-0.40494847297668457,0.49829161167144775,0.026426300406455994
-1.0488511323928833,0.06453756988048553,1.2069647312164307,-0.49080294370651245,0.5126108527183533,-0.049707286059856415
-0.7591230869293213,0.09395014494657516,0.9183929562568665,-0.5249719619750977,0.4818589687347412,-0.0928068608045578
-0.5473064184188843,0.20980627834796906,0.6808679103851318,-0.5312253832817078,0.4604039192199707,-0.06755421310663223
-0.5142082571983337,0.36524009704589844,0.47213196754455566,-0.5210877656936646,0.4410003423690796,0.001214146614074707
-0.6077315807342529,0.5391951203346252,0.2057144045829773,-0.5393379926681519,0.43885740637779236,0.060868680477142334
-0.6571063995361328,0.693871796131134,-0.15430034697055817,-0.5530372262001038,0.44320547580718994,0.05744291841983795
-0.5866107940673828,0.7487266659736633,-0.5197079181671143,-0.5636714696884155,0.4462760090827942,0.00932168960571289
-0.5072236061096191,0.6744491457939148,-0.8274241089820862,-0.5306199193000793,0.42069756984710693,-0.03350771218538284
-0.5864164233207703,0.6713041663169861,-1.119841456413269,-0.4689580202102661,0.41594329476356506,-0.011144883930683136
-0.7190487384796143,0.7021170854568481,-1.3864153623580933,-0.39205873012542725,0.39319875836372375,0.013179004192352295
-0.7706621289253235,0.6611564755439758,-1.5757622718811035,-0.2933526039123535,0.38118571043014526,-0.00196177139878273
-0.6997641921043396,0.47482168674468994,-1.7894337177276611,-0.24056237936019897,0.36532261967658997,-0.039221107959747314
-0.5139545798301697,0.25644999742507935,-2.157154083251953,-0.2387073040008545,0.3874731957912445,-0.04930293560028076
-0.3792928159236908,0.2182249277830124,-2.603245735168457,-0.2791367769241333,0.3966984748840332,0.009927390143275261
-0.4724685549736023,0.29949629306793213,-2.9513399600982666,-0.24318230152130127,0.42395004630088806,0.10451483726501465
-0.7191320657730103,0.25094130635261536,-3.175896406173706,-0.10119587182998657,0.44278234243392944,0.15045154094696045
-0.9026327729225159,-0.0361068919301033,-3.542856454849243,0.08304226398468018,0.49244484305381775,0.11819905042648315
-1.0177772045135498,-0.5176678895950317,-3.9561424255371094,0.2706472873687744,0.5098986625671387,-0.003312230110168457
-1.2350327968597412,-0.8278758525848389,-4.2258124351501465,0.44250714778900146,0.4531938135623932,-0.05880469083786011
-1.5375869274139404,-0.8469061255455017,-4.344961643218994,0.5309578776359558,0.4027833640575409,-0.052960872650146484
-1.641091227531433,-0.8439990282058716,-4.182524681091309,0.6538695096969604,0.32157498598098755,-0.14144939184188843
-1.4013707637786865,-0.8960119485855103,-3.8756792545318604,0.7210448384284973,0.20463472604751587,-0.2882577180862427
-0.8527756333351135,-0.9346985816955566,-3.623102903366089,0.7069377899169922,0.1005060076713562,-0.4094924330711365
-0.08886917680501938,-0.8739883303642273,-3.486682891845703,0.6613308191299438,0.010119497776031494,-0.48381054401397705
0.7446049451828003,-0.6897361874580383,-3.279087543487549,0.622910737991333,-0.071311354637146,-0.4924476146697998
1.453959584236145,-0.39939552545547485,-2.9859437942504883,0.641193151473999,-0.09803074598312378,-0.4356357455253601
1.8909796476364136,-0.06032675877213478,-2.618398904800415,0.6453394293785095,-0.12597870826721191,-0.3013737201690674
1.9845149517059326,0.20724622905254364,-2.251666784286499,0.6383845806121826,-0.1361907720565796,-0.15007661283016205
1.754686713218689,0.2557101249694824,-2.0666608810424805,0.6208775043487549,-0.14672470092773438,-0.020311415195465088
1.2927440404891968,0.1479576975107193,-1.9228006601333618,0.5866393446922302,-0.15393954515457153,0.06850887835025787
0.846376359462738,-0.01900678128004074,-1.6150546073913574,0.5935457944869995,-0.21467161178588867,0.09560883045196533
0.5412817001342773,-0.17914979159832,-1.1678189039230347,0.6322970986366272,-0.29450708627700806,0.06895449757575989
0.2862098813056946,-0.42911604046821594,-0.7467004060745239,0.6263363361358643,-0.3529850244522095,0.05703216791152954
0.005098157562315464,-0.7079794406890869,-0.4081253707408905,0.5815730094909668,-0.35435909032821655,0.07474197447299957
-0.20153416693210602,-0.9251283407211304,-0.11963685601949692,0.5559523105621338,-0.33422142267227173,0.08042490482330322
-0.3420673608779907,-0.9906262755393982,0.03419617936015129,0.5121407508850098,-0.2855074405670166,0.09511822462081909
-0.35458528995513916,-0.8383836150169373,0.12682773172855377,0.4652634561061859,-0.2576524615287781,0.1056898981332779
-0.19884023070335388,-0.4189147353172302,0.30906954407691956,0.4477759301662445,-0.2830039858818054,0.09665948152542114
-0.002329187700524926,0.14727872610092163,0.49253877997398376,0.45698583126068115,-0.28927528858184814,0.0927215963602066
0.23645809292793274,0.7084780931472778,0.5524739027023315,0.4859533905982971,-0.253570020198822,0.08936858177185059
0.5335440039634705,1.2807791233062744,0.5976202487945557,0.5401844382286072,-0.22184133529663086,0.043473899364471436
0.8368769884109497,1.767745852470398,0.9059203267097473,0.6160573959350586,-0.23474478721618652,-0.012997090816497803
0.9557849764823914,2.0441362857818604,1.4701699018478394,0.6811802387237549,-0.25172585248947144,0.006825268268585205
0.6071839332580566,1.9045555591583252,2.0024144649505615,0.6453830599784851,-0.22634166479110718,0.14148545265197754
0.039062920957803726,1.327023983001709,2.352725028991699,0.5925590395927429,-0.14773011207580566,0.2299674153327942
-0.3738868236541748,0.6599993705749512,2.4474120140075684,0.5302191376686096,-0.03968465328216553,0.1885378062725067
-0.3846080005168915,0.20964519679546356,2.54398512840271,0.4340088963508606,0.009224653244018555,0.0711478441953659
-0.08755919337272644,0.179372176527977,2.5770230293273926,0.3481365442276001,0.04997456073760986,-0.03317457437515259
0.39775437116622925,0.5504510998725891,2.628919839859009,0.27311837673187256,0.08547919988632202,-0.08551478385925293
0.9426915049552917,1.1331812143325806,2.6862828731536865,0.21164149045944214,0.11913275718688965,-0.12247155606746674
1.235508918762207,1.7195991277694702,2.6693406105041504,0.1615140438079834,0.15538883209228516,-0.0863017588853836
1.148921012878418,2.074420213699341,2.5305991172790527,0.09188586473464966,0.20240288972854614,0.00585627555847168
0.9824455380439758,2.269195556640625,2.424943208694458,0.0625905990600586,0.23318755626678467,0.018693633377552032
0.8916831016540527,2.3544509410858154,2.4663288593292236,0.06565976142883301,0.2460019290447235,-0.05268806219100952
0.7821802496910095,2.3289010524749756,2.5449717044830322,0.07342195510864258,0.27346035838127136,-0.11414213478565216
0.6122947931289673,2.157667636871338,2.580773115158081,0.06407678127288818,0.33361080288887024,-0.1565535068511963
0.424421489238739,1.8764190673828125,2.572033166885376,0.04116690158843994,0.37737569212913513,-0.19234991073608398
0.2493227869272232,1.5732982158660889,2.4974777698516846,0.021098792552947998,0.429740309715271,-0.21588194370269775
0.15549738705158234,1.3338072299957275,2.4381353855133057,-0.006780445575714111,0.4633568525314331,-0.2435547113418579
0.13902762532234192,1.1698882579803467,2.492807149887085,-0.0005820989608764648,0.48152774572372437,-0.26641058921813965
0.13175906240940094,1.073348879814148,2.6260716915130615,0.01858079433441162,0.4943001866340637,-0.2738572359085083
0.06853499263525009,1.0530965328216553,2.709881544113159,0.04578351974487305,0.5199193954467773,-0.2761859893798828
-0.10979945957660675,1.0201703310012817,2.6132583618164062,0.016901850700378418,0.5735499858856201,-0.24974143505096436
-0.31456905603408813,0.9561196565628052,2.425778865814209,-0.04545706510543823,0.614848256111145,-0.2327881157398224
-0.41097015142440796,0.8115113377571106,2.2662296295166016,-0.08980792760848999,0.6275495886802673,-0.2609250545501709
-0.441536545753479,0.5753419399261475,2.0963497161865234,-0.1528792381286621,0.6350428462028503,-0.3003005385398865
-0.44181692600250244,0.303435742855072,1.8683568239212036,-0.24047303199768066,0.6510181427001953,-0.3061102628707886
-0.4282308518886566,0.07045353949069977,1.5324387550354004,-0.34053874015808105,0.6705460548400879,-0.29170137643814087
-0.3831135928630829,-0.09438219666481018,1.0564842224121094,-0.44706082344055176,0.6809700727462769,-0.2736526429653168
-0.24554921686649323,-0.21995821595191956,0.5754514336585999,-0.5361613035202026,0.6501607894897461,-0.2693284749984741
-0.032602451741695404,-0.3659559190273285,0.24549996852874756,-0.5637432336807251,0.5895528793334961,-0.27539435029029846
0.1703995019197464,-0.47160395979881287,-0.014317807741463184,-0.5663054585456848,0.5295437574386597,-0.2521768808364868
0.3100060820579529,-0.5216141939163208,-0.4414657652378082,-0.6263160705566406,0.5344682335853577,-0.18752135336399078
0.4534453749656677,-0.5019441843032837,-1.0276323556900024,-0.7422170042991638,0.556359052658081,-0.1437697559595108
0.6362825036048889,-0.49093255400657654,-1.644291639328003,-0.7889959812164307,0.5681565999984741,-0.1157287210226059
0.7226502895355225,-0.5781164765357971,-2.1649844646453857,-0.7191832661628723,0.5752242803573608,-0.0956578403711319
0.45323219895362854,-0.9473472833633423,-2.5785934925079346,-0.5444144010543823,0.551777184009552,-0.029357686638832092
-0.2570829391479492,-1.5087672472000122,-2.9134256839752197,-0.30286842584609985,0.5154024362564087,0.07442782819271088
-1.0204373598098755,-2.0432534217834473,-3.091789484024048,-0.07165753841400146,0.4453614354133606,0.11956952512264252
-1.5298024415969849,-2.336195945739746,-3.114121198654175,0.07544118165969849,0.3557887077331543,0.09028279781341553
-1.8184750080108643,-2.2444255352020264,-3.1324076652526855,0.13314568996429443,0.3220405876636505,0.07962656021118164
-1.8877488374710083,-1.7339625358581543,-3.2181196212768555,0.11143088340759277,0.33487120270729065,0.0730639100074768
-1.6365032196044922,-0.9992653131484985,-3.330796957015991,0.09037554264068604,0.36807164549827576,0.01494675874710083
-1.0459493398666382,-0.20462892949581146,-3.4526381492614746,0.10156762599945068,0.3847963511943817,-0.10050606727600098
-0.2876090705394745,0.5024000406265259,-3.605461597442627,0.12988919019699097,0.3880545496940613,-0.18169116973876953
0.4001149833202362,1.014663577079773,-3.6734459400177,0.193603515625,0.391737699508667,-0.19213217496871948
0.9831691384315491,1.3060871362686157,-3.7388384342193604,0.2880786657333374,0.38355857133865356,-0.1636432409286499
1.459001898765564,1.3481483459472656,-3.8506975173950195,0.37409549951553345,0.4026874899864197,-0.12118542194366455
1.7753746509552002,1.173811674118042,-3.9746880531311035,0.46395474672317505,0.3954346179962158,-0.06054878234863281
1.9420052766799927,0.791359007358551,-4.020277976989746,0.5649355053901672,0.3484687805175781,0.002439796458929777
1.8995023965835571,0.3630511164665222,-3.804814577102661,0.6788045763969421,0.24053078889846802,0.05997586250305176
1.5967204570770264,0.09047375619411469,-3.176584482192993,0.8321733474731445,0.05988943576812744,0.153051495552063
1.1811662912368774,-0.044364962726831436,-2.426454782485962,0.8628538846969604,-0.15231198072433472,0.25004440546035767
0.8479894995689392,-0.14428117871284485,-1.80024254322052,0.8560488224029541,-0.2505021095275879,0.25560128688812256
0.5707495212554932,-0.23466560244560242,-1.4476548433303833,0.7872728705406189,-0.28361862897872925,0.2371484637260437
0.29004761576652527,-0.34358400106430054,-1.251824140548706,0.7045595049858093,-0.2957836389541626,0.22542178630828857
0.06819886714220047,-0.5214938521385193,-1.027148723602295,0.6454914808273315,-0.33253979682922363,0.19344723224639893
-0.06718818098306656,-0.7197844386100769,-0.7721778154373169,0.6007359623908997,-0.35918521881103516,0.13319368660449982
-0.1584210842847824,-0.8676617741584778,-0.4768664240837097,0.5679267048835754,-0.39081424474716187,0.10353286564350128
-0.2210463285446167,-0.9166797995567322,-0.22828516364097595,0.5221821069717407,-0.40208911895751953,0.09970714151859283
-0.2759331166744232,-0.8481631875038147,-0.0659349262714386,0.4623192846775055,-0.40977734327316284,0.11757290363311768
-0.33151382207870483,-0.6735777854919434,0.001309606246650219,0.4088059961795807,-0.4153199791908264,0.132468119263649
-0.38352063298225403,-0.3452690839767456,0.1113610714673996,0.36305129528045654,-0.423572838306427,0.1475202441215515
-0.3993198573589325,-0.00476984353736043,0.3179027736186981,0.3880367577075958,-0.4033662676811218,0.12319381535053253
-0.48504891991615295,0.26505860686302185,0.545161783695221,0.41403982043266296,-0.3665236830711365,0.10232555866241455
-0.6847208738327026,0.40210700035095215,0.73677659034729,0.4252166152000427,-0.32598602771759033,0.09924250841140747
-0.8811596035957336,0.3098503053188324,0.9055227041244507,0.44727346301078796,-0.2907390594482422,0.0636456087231636
-1.071153998374939,0.05496523901820183,1.144181728363037,0.48498228192329407,-0.2913479804992676,0.026348836719989777
-1.3518052101135254,-0.3048454523086548,1.4098621606826782,0.5052244067192078,-0.25361913442611694,0.02635938674211502
-1.4394645690917969,-0.653091311454773,1.6754175424575806,0.5123691558837891,-0.18568319082260132,-0.017944391816854477
-1.1822054386138916,-0.7811217904090881,1.8696036338806152,0.4600870609283447,-0.13822436332702637,-0.0890079140663147
-0.7989197969436646,-0.7288228869438171,2.038384199142456,0.4323364496231079,-0.08595407009124756,-0.10436475276947021
-0.5367848873138428,-0.47132647037506104,2.137634038925171,0.3927563428878784,-0.017821192741394043,-0.041007161140441895
-0.19711588323116302,-0.09944841265678406,2.239616632461548,0.3726619482040405,0.04347711801528931,-0.04081237316131592
0.24752679467201233,0.22563865780830383,2.4327821731567383,0.37677353620529175,0.08200407028198242,-0.09058308601379395
0.5258479118347168,0.22972047328948975,2.621128797531128,0.39923375844955444,0.11501431465148926,-0.09558773040771484
0.6169596910476685,-0.05710594728589058,2.9093658924102783,0.4495948553085327,0.1575365662574768,-0.056062400341033936
0.47933974862098694,-0.33795517683029175,3.2265336513519287,0.46680748462677,0.18668144941329956,0.024125877767801285
0.2968215346336365,-0.4906741976737976,3.450456142425537,0.429401159286499,0.2726852297782898,0.08597946166992188
0.3114676773548126,-0.5147584080696106,3.639350175857544,0.3785440921783447,0.3706773817539215,0.07318711280822754
0.40376126766204834,-0.80373215675354,3.8660941123962402,0.3866943120956421,0.4354298412799835,0.028009653091430664
0.2681410610675812,-1.3776482343673706,4.053857803344727,0.3922814726829529,0.509193480014801,0.08842713385820389
0.16779825091362,-1.8679996728897095,4.267282962799072,0.34387147426605225,0.5579972267150879,0.124472975730896
0.2655138373374939,-2.0238044261932373,4.469262599945068,0.28077971935272217,0.6084442138671875,0.12007366120815277
0.5414614081382751,-1.850727915763855,4.643548011779785,0.2063191533088684,0.6638580560684204,0.12532593309879303
0.9032831192016602,-1.4450762271881104,4.801486015319824,0.1738898754119873,0.7100625038146973,0.12391382455825806
1.1601687669754028,-1.062170147895813,4.895197868347168,0.15639400482177734,0.7427646517753601,0.13799817860126495
1.202853798866272,-0.9272620677947998,4.589040279388428,0.05955040454864502,0.7784961462020874,0.1759221851825714
1.049527645111084,-1.075190782546997,3.894172430038452,-0.08487081527709961,0.8153578042984009,0.204349547624588
0.7817484140396118,-1.2656441926956177,3.125371217727661,-0.18514740467071533,0.7719569206237793,0.23478642106056213
0.3622182011604309,-1.3723782300949097,2.5357277393341064,-0.1817958950996399,0.7167098522186279,0.2912323772907257
-0.013701132498681545,-1.3140649795532227,2.081695318222046,-0.1482222080230713,0.6715624332427979,0.33636146783828735
-0.19344110786914825,-1.0803323984146118,1.7095320224761963,-0.1629103422164917,0.6386060118675232,0.31805720925331116
-0.246090829372406,-0.8254489302635193,1.399856448173523,-0.1525435447692871,0.611492931842804,0.27497434616088867
-0.27473965287208557,-0.6696420907974243,1.0783653259277344,-0.163746178150177,0.6091917157173157,0.2610439360141754
-0.3027648627758026,-0.6132712364196777,0.7864169478416443,-0.16152513027191162,0.5968914031982422,0.227536141872406
-0.4598824679851532,-0.7613740563392639,0.6077785491943359,-0.13005858659744263,0.5747238993644714,0.2455196976661682
-0.6868351697921753,-0.9317944645881653,0.5481485724449158,-0.08086258172988892,0.5513452887535095,0.25997450947761536
-0.9126702547073364,-0.9622946977615356,0.475831001996994,-0.04485398530960083,0.526522159576416,0.3031099736690521
-1.0239098072052002,-0.8267090916633606,0.25454628467559814,-0.09366023540496826,0.5186746716499329,0.2990259826183319
-1.0554757118225098,-0.5718045234680176,-0.11605849117040634,-0.16593784093856812,0.5134608149528503,0.2979724407196045
-1.0907092094421387,-0.42703476548194885,-0.4413832426071167,-0.20471066236495972,0.48521649837493896,0.303602933883667
-1.053910732269287,-0.3731210231781006,-0.5921514630317688,-0.15853095054626465,0.45878732204437256,0.2716478705406189
-0.9774155616760254,-0.19297023117542267,-0.6669694781303406,-0.07923620939254761,0.4324808120727539,0.2482396960258484
-0.9133447408676147,0.1804419755935669,-0.8586499691009521,-0.09837472438812256,0.4245380759239197,0.2523380517959595
-0.8444518446922302,0.6602926850318909,-1.2080984115600586,-0.14313817024230957,0.4276280105113983,0.25455594062805176
-0.8135478496551514,1.0531495809555054,-1.710750699043274,-0.191933274269104,0.43975234031677246,0.23463702201843262
-0.8199533224105835,1.3672646284103394,-2.186117649078369,-0.21283966302871704,0.46443867683410645,0.22723960876464844
-0.7710579037666321,1.656785249710083,-2.328716993331909,-0.07860630750656128,0.44609856605529785,0.15158802270889282
-0.9742248058319092,1.7473127841949463,-2.2913708686828613,0.03711509704589844,0.400023877620697,0.1383887529373169
-1.2835692167282104,1.7212251424789429,-2.353851795196533,0.09492415189743042,0.42120492458343506,0.14356103539466858
-1.3969658613204956,1.8136987686157227,-2.777151346206665,0.0308266282081604,0.4744180142879486,0.09609478712081909
-1.1172950267791748,2.0646095275878906,-3.478956699371338,-0.0721619725227356,0.5280336141586304,-0.022568464279174805
-0.4017733633518219,2.540407180786133,-4.128672122955322,-0.05524241924285889,0.5095363855361938,-0.1795681118965149
0.5297971367835999,2.9932568073272705,-4.247326374053955,0.09373754262924194,0.4383779764175415,-0.2981162667274475
1.2222180366516113,2.974834680557251,-3.8524982929229736,0.40661418437957764,0.3128849267959595,-0.36885619163513184
1.077339768409729,2.357703924179077,-3.6569278240203857,0.44915854930877686,0.1816883385181427,-0.2480158805847168
0.4188055992126465,1.3862929344177246,-3.75736141204834,0.4104509949684143,0.15311403572559357,-0.11997245252132416
-0.12245850265026093,0.5514282584190369,-4.079909801483154,0.4141949415206909,0.12950080633163452,-0.1127423495054245
-0.32704177498817444,0.016714857891201973,-4.426034927368164,0.43446052074432373,0.12054720520973206,-0.16402392089366913
-0.14237838983535767,-0.17135652899742126,-4.531641483306885,0.5466820001602173,0.08655315637588501,-0.24059945344924927
0.18418850004673004,-0.22264692187309265,-4.400640487670898,0.6495779156684875,0.012710154056549072,-0.27038878202438354
0.5172342658042908,-0.18914875388145447,-4.195135116577148,0.6904717683792114,-0.05823862552642822,-0.263982355594635
0.7477043271064758,-0.07757873088121414,-4.008152008056641,0.6769716739654541,-0.1150662899017334,-0.20022422075271606
0.8285064697265625,0.02283267118036747,-3.8560032844543457,0.6741147637367249,-0.1430422067642212,-0.11532366275787354
0.8274034857749939,-0.041704367846250534,-3.48351788520813,0.6920139193534851,-0.15730047225952148,-0.027307480573654175
0.8365209698677063,-0.28532376885414124,-2.771437883377075,0.7695679664611816,-0.209003746509552,0.008897796273231506
0.5413477420806885,-0.7800718545913696,-1.8855787515640259,0.8166905045509338,-0.30299168825149536,0.07919366657733917
-0.22971798479557037,-1.3884446620941162,-1.0180288553237915,0.776389479637146,-0.40920037031173706,0.21045732498168945
-1.2594729661941528,-2.134187698364258,-0.38312941789627075,0.696076512336731,-0.452762246131897,0.31326764822006226
-2.066311836242676,-2.6679091453552246,0.175307035446167,0.617743730545044,-0.4286014437675476,0.32458218932151794
-2.3087310791015625,-2.7878313064575195,0.7441155314445496,0.5541092157363892,-0.43548595905303955,0.18530112504959106
-2.255746841430664,-2.592099666595459,1.1803959608078003,0.46541258692741394,-0.3901834487915039,0.08347225189208984
-2.0849831104278564,-2.2298197746276855,1.296578049659729,0.3516886234283447,-0.3099867105484009,0.022292137145996094
-1.8030891418457031,-1.7469161748886108,1.1971853971481323,0.24317345023155212,-0.23471105098724365,-0.012295961380004883
-1.3816072940826416,-1.137951135635376,1.0673967599868774,0.1708010733127594,-0.21989411115646362,-0.06105278432369232
-0.924480140209198,-0.5552935004234314,0.8888162970542908,0.1490279734134674,-0.19791865348815918,-0.09343896806240082
-0.45861703157424927,-0.08874893933534622,0.6586763858795166,0.12384647130966187,-0.18364930152893066,-0.10783921182155609
-0.13979552686214447,0.20112018287181854,0.4727214276790619,0.1407046914100647,-0.1787647008895874,-0.07952061295509338
-0.11307107657194138,0.4712015986442566,0.49375680088996887,0.20000487565994263,-0.1673135757446289,0.010940507054328918
-0.2612784802913666,0.6993845701217651,0.5471019744873047,0.26428472995758057,-0.1478426456451416,0.0727277547121048
-0.3408450186252594,0.8656925559043884,0.550375759601593,0.2975360155105591,-0.12295132875442505,0.06853656470775604
-0.22853043675422668,0.9168131947517395,0.41219210624694824,0.3342416286468506,-0.0760418176651001,0.01640981435775757
0.10293194651603699,0.8901643753051758,0.35965731739997864,0.3527830243110657,-0.11325502395629883,-0.06615155935287476
0.410482257604599,0.880725622177124,0.5191785097122192,0.39546823501586914,-0.20525234937667847,-0.08241866528987885
0.5592504739761353,0.9329084753990173,0.8200539946556091,0.4056782126426697,-0.271001935005188,-0.03348470479249954
0.6370968222618103,1.004630208015442,1.1255567073822021,0.4180920720100403,-0.2499142289161682,0.03405642509460449
0.701396107673645,1.0752249956130981,1.301947832107544,0.4022900462150574,-0.1825428605079651,0.07039737701416016
0.6741493344306946,1.1257847547531128,1.277061104774475,0.36398744583129883,-0.08861607313156128,0.11493254452943802
0.6267336010932922,1.16200852394104,1.2884963750839233,0.3630593419075012,-0.05820053815841675,0.11284363269805908
0.5283968448638916,1.1819658279418945,1.4774316549301147,0.3995524048805237,-0.07658106088638306,0.09681636840105057
0.4585353434085846,1.1725636720657349,1.7977614402770996,0.44754940271377563,-0.11881965398788452,0.06103873252868652
0.45099878311157227,1.1296027898788452,2.1207847595214844,0.4670919179916382,-0.11131125688552856,0.017997324466705322
0.4628486931324005,1.0567784309387207,2.458118438720703,0.4745960235595703,-0.05945169925689697,-0.02649819850921631
0.523470938205719,0.8826811909675598,2.77770733833313,0.4468432068824768,0.02284306287765503,-0.0655982494354248
0.6245629787445068,0.6256516575813293,2.946650981903076,0.36690032482147217,0.13375002145767212,-0.09406280517578125
0.6664915680885315,0.4145892560482025,2.844510793685913,0.2414807677268982,0.23264330625534058,-0.0724029541015625
0.6085858345031738,0.28927674889564514,2.4998912811279297,0.10615837574005127,0.3047204911708832,-0.02799391560256481
0.6186781525611877,0.23501528799533844,2.226264715194702,0.018703162670135498,0.3114514946937561,-0.007591841742396355
0.7002907395362854,0.28656336665153503,2.225926399230957,0.037342190742492676,0.25469353795051575,-0.023073911666870117
0.6595683097839355,0.36972954869270325,2.3318936824798584,0.01891845464706421,0.198348730802536,0.014427365735173225
0.5261469483375549,0.41698285937309265,2.3944482803344727,-0.022207140922546387,0.1838892698287964,0.05187058448791504
0.4329961836338043,0.4189908802509308,2.3302688598632812,-0.09453928470611572,0.19412270188331604,0.04738795757293701
0.41151392459869385,0.37426337599754333,2.2217466831207275,-0.15353989601135254,0.21271564066410065,0.038041889667510986
0.4209299683570862,0.3411436378955841,2.052164316177368,-0.21922922134399414,0.21970149874687195,0.027020931243896484
0.40463268756866455,0.36077380180358887,1.889404535293579,-0.26161062717437744,0.23184485733509064,0.03493142127990723
0.3627345561981201,0.5578876733779907,1.7825263738632202,-0.27890098094940186,0.21904262900352478,0.05262184143066406
0.3070002496242523,0.908650815486908,1.686018466949463,-0.31497544050216675,0.20034298300743103,0.08194947242736816
0.48520132899284363,1.5503153800964355,1.45863938331604,-0.3855617046356201,0.23078250885009766,0.056170471012592316
0.9895731210708618,2.2190773487091064,1.1310348510742188,-0.4764733910560608,0.25787875056266785,-0.07138776779174805
1.373103380203247,2.157012939453125,0.8101661205291748,-0.4739633798599243,0.26902636885643005,-0.16713835299015045
1.348110318183899,1.4172295331954956,0.47229820489883423,-0.4432705044746399,0.2552262544631958,-0.1623600870370865
0.918398916721344,0.36954015493392944,0.22968247532844543,-0.41058409214019775,0.2272154986858368,-0.05786964297294617
0.3309878706932068,-0.5402323603630066,0.02653740718960762,-0.4064874053001404,0.2183298021554947,0.04172608256340027
-0.061411891132593155,-1.075628638267517,-0.15378515422344208,-0.4228407144546509,0.23855969309806824,0.06518149375915527
-0.06776587665081024,-1.2071391344070435,-0.48567119240760803,-0.4647194743156433,0.30337876081466675,0.014014467597007751
0.2191019505262375,-0.9884080290794373,-1.027883529663086,-0.5180931687355042,0.40044349431991577,-0.06411577761173248
0.6226998567581177,-0.7122027277946472,-1.6006450653076172,-0.5571402311325073,0.4343744218349457,-0.10894753038883209
0.9972430467605591,-0.6949014663696289,-2.0529510974884033,-0.5140325427055359,0.4334782660007477,-0.13730445504188538
1.1484404802322388,-0.9046329259872437,-2.400125503540039,-0.4528456926345825,0.41393643617630005,-0.10194527357816696
1.096744418144226,-1.195896863937378,-2.636711835861206,-0.39910101890563965,0.4146144986152649,-0.03678584098815918
0.9386324882507324,-1.4242274761199951,-2.7291762828826904,-0.32993555068969727,0.42346906661987305,0.012485980987548828
0.7737918496131897,-1.4858628511428833,-2.6863527297973633,-0.23419803380966187,0.4452245235443115,0.03709006309509277
0.6051191687583923,-1.3901158571243286,-2.7613608837127686,-0.16933798789978027,0.4964258372783661,0.08023792505264282
0.5221437215805054,-1.2057262659072876,-3.155198335647583,-0.11043649911880493,0.592749297618866,0.06617891788482666
0.2454712688922882,-0.8405480980873108,-3.9201853275299072,-0.07430422306060791,0.7207281589508057,0.14947879314422607
0.08315828442573547,-0.351508766412735,-4.452735424041748,0.09792119264602661,0.769563615322113,0.17913436889648438
0.2135934829711914,0.06345749646425247,-4.365581035614014,0.39487171173095703,0.6665852069854736,0.06011676788330078
0.209918811917305,0.2851066291332245,-3.915107488632202,0.6151540875434875,0.48745691776275635,-0.023199796676635742
-0.08993371576070786,0.2064012885093689,-3.377784013748169,0.6808928847312927,0.2681589126586914,-0.04974174499511719
-0.3584703505039215,-0.28590917587280273,-2.7835376262664795,0.7026769518852234,0.06652498245239258,-0.14056891202926636
-0.26324892044067383,-1.0489540100097656,-2.096548557281494,0.727709174156189,-0.05697762966156006,-0.29726022481918335
0.09109421074390411,-1.742664098739624,-1.3791239261627197,0.7028467655181885,-0.12262976169586182,-0.37264561653137207
0.4016585350036621,-2.101346254348755,-0.8221706748008728,0.6236159205436707,-0.12011533975601196,-0.30263596773147583
0.37532755732536316,-2.1728758811950684,-0.5765159130096436,0.48873329162597656,-0.0730101466178894,-0.1308906078338623
0.042027585208415985,-1.9702093601226807,-0.5623136162757874,0.3443584442138672,-0.036250174045562744,0.07618273794651031
-0.21232227981090546,-1.5190072059631348,-0.5736141800880432,0.252091646194458,-0.05237925052642822,0.16469812393188477
-0.183866947889328,-0.9345690011978149,-0.6104601621627808,0.1882125735282898,-0.09405374526977539,0.12722408771514893
