rotation_x,rotation_y,rotation_z,acceleration_x,acceleration_y,acceleration_z
-0.2579711973667145,-0.21683582663536072,-0.3441021740436554,0.09577306360006332,0.02098393440246582,0.07155126333236694
-0.32271745800971985,-0.3088473975658417,0.047692760825157166,0.08497132360935211,0.003931969404220581,0.011462867259979248
-0.037099555134773254,-0.4648618698120117,0.0460064522922039,0.07562695443630219,-0.017177462577819824,-0.04263186454772949
0.22167719900608063,-0.6218163967132568,-0.22863659262657166,0.0674884170293808,-0.0072387754917144775,-0.0004361271858215332
0.19173672795295715,-0.49714839458465576,-0.30665335059165955,0.10325799137353897,0.023320317268371582,0.04643040895462036
0.013773447833955288,-0.218390554189682,-0.06874930113554001,0.11599404364824295,0.01827576756477356,0.04499536752700806
-0.11011340469121933,-0.1844925731420517,-0.059115540236234665,0.08840484917163849,-0.03634324669837952,0.01304781436920166
-0.13178221881389618,-0.12957517802715302,-0.3805728256702423,0.07550644874572754,-0.019245505332946777,0.02660912275314331
-0.19230444729328156,0.0204431414604187,-0.3940563499927521,0.13134273886680603,0.028028130531311035,0.08271026611328125
-0.2243289351463318,0.18740303814411163,-0.12903408706188202,0.16621577739715576,0.04184582829475403,0.11474007368087769
-0.17787015438079834,0.07032759487628937,-0.08651109784841537,0.14090284705162048,-0.010503709316253662,0.0919719934463501
-0.0683508962392807,-0.04279058054089546,-0.10821697115898132,0.13029491901397705,-0.03476676344871521,0.06346821784973145
-0.027930373325943947,0.07670404016971588,-0.08229893445968628,0.09578463435173035,-0.029231250286102295,0.05740654468536377
-0.14077332615852356,0.04971201345324516,-0.11273367702960968,0.0813279002904892,-0.055922359228134155,0.06225007772445679
-0.22933414578437805,0.01726330630481243,-0.16646477580070496,0.05081620812416077,-0.06053060293197632,0.009295940399169922
-0.16802959144115448,0.23884251713752747,-0.1411621868610382,0.06642131507396698,-0.045041292905807495,0.013931572437286377
-0.022656084969639778,0.311021625995636,0.016716312617063522,0.06079231575131416,-0.0443250834941864,0.0815509557723999
0.05970389023423195,0.005711550358682871,0.09239449352025986,0.013774603605270386,-0.09262004494667053,0.08350425958633423
0.15268729627132416,-0.017350731417536736,0.033705420792102814,0.008021458983421326,-0.14125236868858337,0.0538865327835083
0.12226193398237228,-0.07225216925144196,0.028326448053121567,-0.0008345916867256165,-0.13845670223236084,0.06230521202087402
0.11404165625572205,-0.18611329793930054,0.17133960127830505,0.015594489872455597,-0.18546637892723083,-0.003230869770050049
0.13962265849113464,-0.05266735702753067,0.0593014657497406,-0.012330308556556702,-0.22139745950698853,-0.026352524757385254
-0.015158813446760178,-0.07242928445339203,-0.08293142169713974,0.009830877184867859,-0.21513816714286804,-0.0018291473388671875
-0.16561737656593323,-0.28536680340766907,-0.12362244725227356,0.04314778745174408,-0.1949174702167511,-0.0657840371131897
-0.2615186274051666,-0.436752587556839,-0.20887316763401031,0.059545036405324936,-0.11854052543640137,-0.10687506198883057
-0.2728935182094574,-0.3465242385864258,0.013056525960564613,0.06660410761833191,-0.0685950219631195,-0.13982897996902466
0.07289579510688782,0.11316775530576706,0.3321615755558014,0.06618177145719528,-0.05135384202003479,-0.12832236289978027
0.3233412206172943,0.0022296581882983446,0.2779979705810547,0.028449147939682007,0.011813968420028687,-8.285045623779297e-06
0.16174368560314178,-0.4026082158088684,0.26454129815101624,0.037608854472637177,0.041268348693847656,0.01271754503250122
0.1347745656967163,-0.08179962635040283,0.3778155744075775,0.005561575293540955,0.07004764676094055,-0.0052544474601745605
0.07313717901706696,0.05181701108813286,0.4154199957847595,-0.012632817029953003,0.06133052706718445,0.08835995197296143
-0.15623962879180908,-0.408173531293869,0.13811026513576508,-0.02685070037841797,0.02481183409690857,0.031094253063201904
-0.22365936636924744,-0.40047213435173035,-0.20003187656402588,-0.0070977583527565,0.09929847717285156,-0.06747335195541382
-0.12330931425094604,-0.034447234123945236,-0.04255280643701553,0.07564456015825272,0.14223089814186096,-0.05200982093811035
0.05180034041404724,0.1719265878200531,0.38355380296707153,0.06385768204927444,0.09373429417610168,-0.023131847381591797
0.26072385907173157,0.40115225315093994,0.2930394411087036,-0.014379791915416718,0.0006157457828521729,0.001398622989654541
0.311472624540329,0.4403735399246216,0.13900138437747955,0.013341442681849003,0.003168821334838867,0.09543156623840332
0.14311352372169495,0.3711787462234497,0.15053941309452057,0.034624189138412476,0.030566543340682983,0.18549048900604248
-0.18706238269805908,0.108863465487957,0.1143442839384079,0.0508454367518425,-0.01607978343963623,0.15770071744918823
-0.2879684567451477,0.0906943827867508,0.05239139497280121,0.04777359962463379,0.0065746009349823,0.05368095636367798
-0.1791926622390747,0.2551518678665161,0.1490411013364792,0.08227978646755219,0.047371506690979004,0.036424338817596436
-0.07887039333581924,0.3456692397594452,0.3728615641593933,0.0941045880317688,0.03966602683067322,0.04693692922592163
-0.0823565274477005,0.29162415862083435,0.4606572091579437,0.08930053561925888,-0.012618869543075562,0.0039406418800354
0.02976931631565094,0.38648325204849243,0.5392178297042847,0.06964489072561264,-0.012822389602661133,-0.04052239656448364
0.07927767187356949,0.44923025369644165,0.6452692151069641,0.09337875247001648,-0.03787273168563843,0.009202837944030762
0.0014976069796830416,0.26912158727645874,0.7295223474502563,0.10169299691915512,-0.07357269525527954,0.0035814642906188965
-0.03670172765851021,0.2673919200897217,0.7682722210884094,0.11140307784080505,-0.0710761547088623,-0.06820005178451538
-0.000946511747315526,0.4292316734790802,0.9074399471282959,0.09216466546058655,-0.05793046951293945,-0.10513991117477417
0.008585968986153603,0.41213032603263855,0.9703834056854248,0.0862998217344284,-0.036104559898376465,-0.11090415716171265
0.026163944974541664,0.6625853776931763,1.1202763319015503,0.13960084319114685,-0.022721916437149048,-0.06067317724227905
-0.10775475949048996,0.054905470460653305,1.164537787437439,0.08017215132713318,0.0189058780670166,-0.04408186674118042
-0.1727246791124344,0.0751892551779747,1.0613809823989868,0.06495983898639679,0.04372549057006836,-0.17226147651672363
-0.13618457317352295,0.43894487619400024,1.075498104095459,0.12978994846343994,0.11849209666252136,-0.09156841039657593
-0.10976144671440125,0.6003769040107727,1.4010674953460693,0.19676898419857025,0.1095166802406311,0.003541707992553711
-0.10751169919967651,0.3074447512626648,1.3294832706451416,0.1866927444934845,0.07298544049263,0.014892578125
-0.05495695769786835,0.10762911289930344,1.1506595611572266,0.18274050951004028,0.0815335214138031,-0.04788237810134888
-0.048060402274131775,0.37953540682792664,1.1365933418273926,0.19301973283290863,0.10874095559120178,-0.02406078577041626
-0.14551669359207153,0.4998515844345093,1.1100172996520996,0.1821664422750473,0.08795902132987976,0.024140477180480957
-0.18554547429084778,0.5938606858253479,1.0547878742218018,0.16015353798866272,0.074758380651474,0.030496716499328613
-0.022962259128689766,0.7114415168762207,1.0163404941558838,0.16080927848815918,0.07575595378875732,0.047720134258270264
0.08048541098833084,0.7453896403312683,1.0089699029922485,0.17019224166870117,0.06730931997299194,0.11556434631347656
0.06467872112989426,0.44319701194763184,1.0323926210403442,0.12250137329101562,0.02479448914527893,0.11750173568725586
0.09433114528656006,0.1775614470243454,0.7705866098403931,0.08653627336025238,-0.021205127239227295,0.02395343780517578
0.18588420748710632,0.27882617712020874,0.5601385235786438,0.09602594375610352,-0.002658665180206299,-0.03052467107772827
0.1837821751832962,0.3912387490272522,0.5320735573768616,0.13531571626663208,0.01233440637588501,-0.02013874053955078
0.23979729413986206,0.3439059555530548,0.6289846301078796,0.15740618109703064,-0.014891088008880615,-0.038553059101104736
0.3324659466743469,0.25327613949775696,0.6150676608085632,0.13107405602931976,-0.020184338092803955,-0.03929358720779419
0.25485119223594666,0.14756281673908234,0.5753117203712463,0.10496717691421509,-0.027864456176757812,-0.04248785972595215
0.14868411421775818,0.14494064450263977,0.5523760914802551,0.08311451971530914,-0.01346936821937561,-0.06044095754623413
0.14791305363178253,0.22043295204639435,0.5455265641212463,0.09608681499958038,0.011151373386383057,-0.05018770694732666
0.3199306130409241,0.408056378364563,0.6876927614212036,0.1547081023454666,-0.015698730945587158,0.005483031272888184
0.1954289674758911,-0.05495483800768852,0.6313008069992065,0.10480478405952454,0.02573460340499878,0.07855963706970215
-0.34420204162597656,-0.6818721294403076,0.39061933755874634,0.0337454229593277,0.022724628448486328,-0.0597304105758667
-0.5724045634269714,-0.26739126443862915,0.27065590023994446,0.005468487739562988,0.10007315874099731,-0.18367278575897217
-0.29128310084342957,0.6901068091392517,0.5979365706443787,0.06831984221935272,0.1677708923816681,-0.10503679513931274
0.031223811209201813,0.7798956632614136,0.9385706186294556,0.08015967905521393,0.09359705448150635,0.03799295425415039
0.1760624647140503,0.17244796454906464,0.841076672077179,0.06098814308643341,0.046992868185043335,0.08538985252380371
0.12124016880989075,-0.021829867735505104,0.539578378200531,0.03893706202507019,0.09724754095077515,0.07558727264404297
-0.05251869559288025,0.1768677830696106,0.7246947884559631,0.08100299537181854,0.1020885705947876,0.07192099094390869
-0.15096984803676605,0.29123857617378235,0.746658205986023,0.028511017560958862,0.06433925032615662,0.09108269214630127
-0.21132224798202515,0.2232971042394638,0.5123521685600281,0.011617813259363174,0.015084832906723022,0.048675477504730225
-0.19946791231632233,0.34827303886413574,0.3862268924713135,0.0344734787940979,0.032197922468185425,0.013987421989440918
-0.15058347582817078,0.5758914947509766,0.5212833285331726,0.09403234720230103,0.015197277069091797,0.06710416078567505
-0.1634466052055359,0.4717067778110504,0.5707941651344299,0.05489493906497955,-0.044454753398895264,0.0847291350364685
-0.11055919528007507,0.15882915258407593,0.4443083703517914,0.04336622357368469,-0.0962333083152771,-0.0036266446113586426
0.059345394372940063,0.3270995616912842,0.3666709363460541,0.029380768537521362,-0.06924712657928467,-0.053244590759277344
0.03954277187585831,0.4913328289985657,0.4720386266708374,0.06218935549259186,-0.08015364408493042,0.0006489753723144531
-0.060662705451250076,0.26351431012153625,0.5083901882171631,0.06865309178829193,-0.10189169645309448,0.0017469525337219238
0.006366218440234661,0.044261347502470016,0.507318377494812,0.017735615372657776,-0.1065734326839447,-0.11089670658111572
0.12002893537282944,0.038860026746988297,0.4382646679878235,-0.007260546088218689,-0.09627148509025574,-0.17095410823822021
0.19287794828414917,0.20085211098194122,0.4020800292491913,-0.018858179450035095,-0.07248735427856445,-0.19669312238693237
0.30901390314102173,0.8741612434387207,0.5001851320266724,0.058167651295661926,-0.05990833044052124,-0.08405172824859619
0.09989475458860397,0.5067384243011475,0.5592499375343323,0.06250470876693726,-0.09611755609512329,0.014171004295349121
-0.08896824717521667,-0.021786479279398918,0.3055082857608795,-0.0031133750453591347,-0.09169718623161316,-0.09725695848464966
0.07104633003473282,0.0051045846194028854,0.12085791677236557,0.018756285309791565,0.03778594732284546,-0.15124571323394775
0.43169906735420227,0.4238640367984772,0.3883650004863739,0.07838235795497894,0.11391842365264893,-0.05636483430862427
0.5454360842704773,0.4947080612182617,0.5075092315673828,0.05097116529941559,0.10134419798851013,0.07228595018386841
0.3509938418865204,0.20977237820625305,0.3834628462791443,0.03688058257102966,0.08680388331413269,0.1312451958656311
0.025560591369867325,0.022246403619647026,0.28295230865478516,0.03578408062458038,0.11865866184234619,0.13269084692001343
-0.24032087624073029,-0.06071384251117706,0.260362833738327,0.0629173219203949,0.12839218974113464,0.07244789600372314
-0.25650838017463684,-0.01976933889091015,0.27192601561546326,0.03470155596733093,0.13652560114860535,0.001047968864440918
-0.07382574677467346,0.16200384497642517,0.3771727681159973,0.026730641722679138,0.11678072810173035,-0.01952230930328369
0.16353455185890198,0.19717533886432648,0.40604275465011597,-0.002568870782852173,0.07793247699737549,0.044240474700927734
0.2848455607891083,0.07900210469961166,0.3034127950668335,-0.01792532205581665,0.04245594143867493,0.10388582944869995
0.16660988330841064,0.0628594309091568,0.11126192659139633,-0.013102486729621887,0.013650238513946533,0.13148057460784912
-0.07561264932155609,-0.13616153597831726,-0.028258204460144043,0.032410070300102234,-0.0005740523338317871,0.11011195182800293
-0.12161532044410706,-0.17368504405021667,-0.0647316575050354,0.05376961827278137,0.004473984241485596,0.023016035556793213
0.034606002271175385,-0.07860530912876129,-0.04968493431806564,0.050437524914741516,-0.009430080652236938,-0.0212591290473938
0.10061540454626083,-0.31051355600357056,-0.09508103877305984,0.05359853804111481,-0.01968151330947876,-0.00999605655670166
-0.03494175523519516,-0.5154814124107361,-0.12469501793384552,0.019032642245292664,-0.009185105562210083,-0.045967698097229004
-0.2314620465040207,-0.44944995641708374,-0.16686302423477173,-0.005643276497721672,-0.024238795042037964,-0.11093592643737793
-0.14478236436843872,0.042828794568777084,-0.13720959424972534,0.003707572817802429,-0.05791011452674866,-0.10025477409362793
-0.18508495390415192,-0.23387804627418518,-0.30794697999954224,0.007547616958618164,0.0014958083629608154,0.0335732102394104
-0.49874773621559143,-0.6438067555427551,-0.44645801186561584,0.028613300994038582,0.030935972929000854,-0.00538712739944458
-0.7726812362670898,-0.6808261275291443,-0.4391492009162903,0.032183364033699036,0.10742294788360596,-0.10487419366836548
-0.6430203318595886,-0.41462787985801697,-0.14079885184764862,-0.0007245242595672607,0.08287107944488525,-0.259222149848938
0.09429413080215454,0.2556911110877991,0.07629333436489105,-0.07578736543655396,0.048775553703308105,-0.248151957988739
0.5943039655685425,0.23423032462596893,-0.05537228658795357,-0.06680797040462494,0.007685333490371704,-0.08102226257324219
0.65883868932724,0.0128584960475564,-0.179835706949234,-0.09293292462825775,-0.011064887046813965,0.019091248512268066
0.4190283417701721,0.09028349071741104,-0.37256813049316406,-0.11340925097465515,-0.011640429496765137,0.09126460552215576
0.1148746982216835,0.20328600704669952,-0.48528945446014404,-0.08446183800697327,-0.04186013340950012,0.12374907732009888
-0.01940169744193554,0.329362690448761,-0.6751389503479004,-0.03468094766139984,-0.031720906496047974,0.14774459600448608
-0.030015332624316216,0.28774940967559814,-0.7968201637268066,0.01939995586872101,-0.005813002586364746,0.17239981889724731
-0.0005549739580601454,0.04939411208033562,-0.6493302583694458,0.08543598651885986,0.011550217866897583,0.148623526096344
0.10084749758243561,-0.018338751047849655,-0.3999071717262268,0.057804614305496216,0.013650953769683838,0.08265376091003418
0.1511257290840149,0.04657280445098877,-0.28553810715675354,0.021286187693476677,-0.044832855463027954,0.04129868745803833
0.0661698430776596,0.025317929685115814,-0.3572726249694824,0.02671341598033905,-0.03836256265640259,0.0005013942718505859
-0.0007269559428095818,0.12781204283237457,-0.2224457859992981,0.08234754204750061,-0.013642549514770508,-0.06441330909729004
0.07027262449264526,0.32553011178970337,0.13077951967716217,0.08106590807437897,0.01814281940460205,-0.08853113651275635
0.11638970673084259,0.18854917585849762,0.32190191745758057,0.04485577344894409,-0.0023941993713378906,-0.04718512296676636
0.03282146528363228,-0.13912467658519745,0.299677312374115,-0.0005259513854980469,-0.008131563663482666,-0.1179078221321106
0.039636917412281036,0.07090713083744049,0.3310277760028839,-0.006578698754310608,0.06058621406555176,-0.1662214994430542
0.037089042365550995,0.4125651717185974,0.7087517976760864,0.09102566540241241,0.06835708022117615,-0.04822617769241333
-0.14827486872673035,0.14886528253555298,0.9484126567840576,0.06164392828941345,-0.02038753032684326,-0.02743816375732422
-0.2701707184314728,-0.08694581687450409,0.7903308868408203,0.01690673641860485,-0.03292986750602722,-0.06909871101379395
-0.22637313604354858,-0.15917684137821198,0.7716097235679626,0.03813032805919647,0.02059227228164673,-0.12315744161605835
0.058122582733631134,0.19004397094249725,0.8863715529441833,0.08133238554000854,0.06332835555076599,-0.07271188497543335
0.2569952607154846,0.2993737459182739,0.9463695883750916,0.11429178714752197,0.06713110208511353,0.06914186477661133
0.23701563477516174,0.1217084527015686,0.9218347072601318,0.109372079372406,0.02772587537765503,0.1265450119972229
0.06847524642944336,-0.023079076781868935,0.6980152726173401,0.09349776804447174,0.024424076080322266,0.13540881872177124
-0.1930251270532608,-0.13778020441532135,0.49820688366889954,0.057793766260147095,0.04202944040298462,0.07273948192596436
-0.35935384035110474,-0.14890749752521515,0.33629873394966125,0.0552697628736496,0.0634966790676117,-0.014186620712280273
-0.3008531928062439,0.033122509717941284,0.29449382424354553,0.06518673896789551,0.06469705700874329,-0.08394080400466919
0.002895059995353222,0.473702073097229,0.3652746379375458,0.07604542374610901,0.07829463481903076,-0.024044036865234375
0.1746089905500412,0.4628188908100128,0.43652501702308655,0.09691134095191956,0.04494616389274597,0.10318392515182495
0.1725139170885086,0.15146157145500183,0.3978293240070343,0.09628187119960785,0.01700189709663391,0.14836347103118896
0.07923814654350281,-0.016031155362725258,0.29428213834762573,0.07438324391841888,-0.0022104978561401367,0.09864503145217896
0.013812205754220486,0.11032734811306,0.27983558177948,0.054245010018348694,-0.03171330690383911,0.02608633041381836
0.014863996766507626,0.14844276010990143,0.24885612726211548,0.06632944941520691,-0.06342259049415588,0.007813334465026855
0.05422398820519447,0.03337246924638748,0.1978655755519867,0.09497977793216705,-0.06984338164329529,-0.015936553478240967
0.027874691411852837,-0.05335795506834984,0.22620472311973572,0.11611469089984894,-0.07306087017059326,-0.0706014633178711
0.04683490842580795,-0.16536931693553925,0.31162187457084656,0.0920829176902771,-0.0480477511882782,-0.12899422645568848
0.15814460813999176,-0.041698798537254333,0.28399282693862915,0.05776764824986458,-0.02521952986717224,-0.15899747610092163
0.21330904960632324,0.3800126612186432,0.24102607369422913,0.11591635644435883,-0.015049517154693604,-0.09714710712432861
0.04255502671003342,0.25023603439331055,0.34762662649154663,0.1919352412223816,0.004797697067260742,0.06412804126739502
-0.2651273310184479,-0.2764052152633667,0.4454163610935211,0.12768858671188354,-0.006588995456695557,-0.021717607975006104
-0.33469054102897644,0.01753401942551136,0.35129114985466003,0.06581228971481323,0.03254714608192444,-0.12616026401519775
-0.1901572048664093,0.36244872212409973,0.44372862577438354,0.08821481466293335,0.07591494917869568,-0.10619354248046875
0.13954055309295654,0.5988934636116028,0.6909170150756836,0.11180618405342102,0.07025653123855591,-0.03344911336898804
0.4128837585449219,0.553334653377533,0.7635819315910339,0.0884297788143158,0.05180269479751587,0.07092440128326416
0.4271520674228668,0.24225832521915436,0.7590605020523071,0.05114370584487915,0.035294294357299805,0.12013494968414307
0.18094736337661743,0.1270119696855545,0.6369616985321045,0.0016653873026371002,0.017104774713516235,0.10786372423171997
-0.1213051825761795,0.30692094564437866,0.5312625169754028,-0.047489434480667114,0.0035647153854370117,0.04224193096160889
-0.2653011977672577,0.64931720495224,0.34497469663619995,-0.032314568758010864,-0.008525192737579346,0.03171360492706299
-0.21532368659973145,0.5814099311828613,0.2807633876800537,0.026289628818631172,-0.001138925552368164,0.05969274044036865
-0.08628428727388382,0.4254528880119324,0.4099291265010834,0.06982265412807465,0.02921244502067566,0.04792487621307373
0.04901085048913956,0.5054119229316711,0.6717151403427124,0.029548287391662598,-0.00032770633697509766,0.022216439247131348
0.0769512876868248,0.5687317848205566,0.6839402318000793,-0.00015401840209960938,-0.05732506513595581,0.06264156103134155
0.006160920951515436,0.402544766664505,0.6195464134216309,0.006863981485366821,-0.06327304244041443,0.06653767824172974
-0.01715252920985222,0.32680943608283997,0.6552119851112366,0.05054832994937897,-0.047359079122543335,-0.00512850284576416
0.05844531208276749,0.4355718195438385,0.7660811543464661,0.08239363133907318,-0.02829483151435852,-0.04400277137756348
0.08655693382024765,0.44487282633781433,0.9156364798545837,0.0877813845872879,-0.026068270206451416,-0.0396992564201355
0.012587684206664562,0.25354230403900146,0.9558457732200623,0.07567505538463593,-0.03260558843612671,-0.06529837846755981
-0.03493644669651985,0.27768751978874207,0.8563296794891357,0.07122163474559784,0.020716100931167603,-0.12697046995162964
-0.05740021914243698,0.6903248429298401,0.9834498763084412,0.14935067296028137,0.07095074653625488,-0.08503526449203491
-0.20474079251289368,0.4903724193572998,1.1807537078857422,0.17295028269290924,0.06453263759613037,-0.025478720664978027
-0.3620368242263794,0.17888888716697693,1.2647933959960938,0.11944784224033356,0.04212421178817749,-0.04196572303771973
-0.3777620792388916,0.12788984179496765,1.200782060623169,0.10788771510124207,0.0388164222240448,-0.11321151256561279
-0.17320653796195984,0.6272542476654053,1.1466655731201172,0.12322450429201126,0.034692972898483276,-0.12973201274871826
0.07572592049837112,0.9634937644004822,1.3185193538665771,0.18756581842899323,0.0523676872253418,0.052502989768981934
0.1174292042851448,0.5244474411010742,1.4039065837860107,0.18462660908699036,-0.010605424642562866,0.12886673212051392
-0.05437222123146057,0.11343749612569809,1.0263652801513672,0.12219920009374619,-0.043788254261016846,0.08148735761642456
-0.33769455552101135,0.22998784482479095,0.7171623706817627,0.12915101647377014,0.018272876739501953,0.015401899814605713
-0.4326592683792114,0.5871742367744446,0.819983720779419,0.18088006973266602,0.0742805004119873,0.0009061098098754883
-0.23970720171928406,0.6312556266784668,1.1205412149429321,0.18422837555408478,0.04630139470100403,0.01282346248626709
0.11198772490024567,0.5434346795082092,1.1461701393127441,0.12750659883022308,-0.014393001794815063,0.029139995574951172
0.17144590616226196,0.49298104643821716,0.9580627083778381,0.10352881997823715,-0.03803876042366028,0.08862483501434326
-0.013717712834477425,0.3526113033294678,0.9315384030342102,0.09623943269252777,-0.04216304421424866,0.11185187101364136
-0.037543151527643204,0.24301713705062866,0.8629798293113708,0.0664600282907486,-0.08201786875724792,0.0511135458946228
0.10359923541545868,0.13893984258174896,0.6720311045646667,0.05545397102832794,-0.09528335928916931,0.008260011672973633
0.10184761136770248,0.0681941881775856,0.5363527536392212,0.05376266688108444,-0.09977495670318604,-0.01972341537475586
0.0967273935675621,0.1164371445775032,0.47959208488464355,0.050906918942928314,-0.09696835279464722,-0.05202531814575195
0.21034850180149078,0.18823714554309845,0.486747682094574,0.06313818693161011,-0.10698458552360535,-0.024702370166778564
0.21214400231838226,-0.008288421668112278,0.42655837535858154,0.05108407512307167,-0.12025490403175354,0.01858597993850708
0.12150266766548157,-0.07293424010276794,0.23849214613437653,0.025294486433267593,-0.10471287369728088,-0.023827195167541504
0.0563715361058712,0.058237120509147644,0.17330493032932281,0.06988725066184998,-0.06203529238700867,-0.0070015788078308105
0.07909145951271057,0.1479872316122055,0.3665510416030884,0.13535985350608826,-0.0734224021434784,0.08065807819366455
-0.1325792372226715,-0.5003015995025635,0.2292173057794571,0.0659673660993576,-0.07042151689529419,0.062339723110198975
-0.3162382245063782,-0.6288480758666992,-0.0182384941726923,0.016013339161872864,-0.03214570879936218,-0.13667482137680054
-0.2202419936656952,0.15116451680660248,0.03928293287754059,0.0380389541387558,0.03404325246810913,-0.16123199462890625
0.07297283411026001,0.7037646770477295,0.398341566324234,0.0971858948469162,0.03271627426147461,-0.010500669479370117
0.32381364703178406,0.48372912406921387,0.4247629642486572,0.09203740954399109,-0.014922142028808594,0.08579146862030029
0.38252007961273193,-0.0030999421142041683,0.19402901828289032,0.07090047746896744,-0.002242565155029297,0.11062115430831909
0.1654980331659317,-0.09858537465333939,0.17253904044628143,0.03412234038114548,0.05986759066581726,0.07860696315765381
-0.11675892025232315,0.11915136873722076,0.19818715751171112,-0.03843393176794052,0.06434944272041321,0.02425992488861084
-0.28091469407081604,0.4599112272262573,0.12629203498363495,-0.025100726634263992,0.041870951652526855,0.019235312938690186
-0.21851378679275513,0.49046531319618225,0.16624635457992554,0.034180544316768646,0.044623732566833496,0.10198080539703369
-0.11272281408309937,0.2749624252319336,0.3168102502822876,0.04317646473646164,0.02623853087425232,0.1300506591796875
-0.08069860935211182,0.23676003515720367,0.35818353295326233,0.010634180158376694,-0.025919437408447266,0.10462957620620728
-0.13416163623332977,0.24101580679416656,0.3604460060596466,0.0035836827009916306,-0.056063175201416016,0.07121747732162476
-0.13793973624706268,0.2676502764225006,0.4162026047706604,-0.014505600556731224,-0.0697358250617981,0.03844958543777466
-0.08572077006101608,0.23431454598903656,0.3839508295059204,0.025754690170288086,-0.10067793726921082,0.014005303382873535
0.01930965855717659,0.30006468296051025,0.42440423369407654,0.03869836404919624,-0.08872106671333313,-0.03032153844833374
0.09355887025594711,0.41693171858787537,0.5613620281219482,0.07709304988384247,-0.08419403433799744,-0.008930623531341553
0.08842243999242783,0.3130066394805908,0.6636925935745239,0.07370474934577942,-0.09137746691703796,0.00632929801940918
0.0574718713760376,0.15188340842723846,0.6338832974433899,0.03665250167250633,-0.08393785357475281,-0.0640343427658081
-7.988512516021729e-05,0.12514497339725494,0.5490872263908386,0.011608373373746872,-0.03506064414978027,-0.1300838589668274
0.0004965555854141712,0.4863748848438263,0.6016450524330139,0.058060962706804276,0.015642493963241577,-0.17256617546081543
0.032942600548267365,0.6848288178443909,0.9645909667015076,0.09311307966709137,0.036062926054000854,-0.044750869274139404
-0.13192562758922577,0.16237367689609528,0.9677031636238098,0.045568883419036865,-0.04833930730819702,-0.08318513631820679
-0.13849735260009766,0.16994796693325043,0.8358770608901978,0.0033044256269931793,-0.0372852087020874,-0.17747515439987183
0.013300856575369835,0.3349047303199768,0.8568785786628723,0.05633373558521271,0.02688467502593994,-0.0943569540977478
0.12946045398712158,0.3049347698688507,0.9316139221191406,0.05541794002056122,0.011718720197677612,-0.020794034004211426
0.23225927352905273,0.32669585943222046,0.8098973631858826,0.05209985375404358,0.04785838723182678,0.054127633571624756
0.27603843808174133,0.4440280497074127,0.8544461131095886,0.10394637286663055,0.06618905067443848,0.14548176527023315
0.1421118974685669,0.2799142599105835,0.8602634072303772,0.09390144050121307,0.05695819854736328,0.21709591150283813
-0.2400641292333603,-0.17834186553955078,0.6374079585075378,0.08373832702636719,0.0062341392040252686,0.16079509258270264
-0.5321786999702454,-0.34420472383499146,0.34237807989120483,0.044858865439891815,0.055009305477142334,-0.009293675422668457
-0.5266786217689514,-0.048625849187374115,0.2818198800086975,0.09896157681941986,0.09168258309364319,-0.10087400674819946
-0.18036875128746033,0.4432036280632019,0.5922448039054871,0.15358376502990723,0.1394822895526886,-0.04053312540054321
0.15000493824481964,0.5087620615959167,0.9244961142539978,0.12016353011131287,0.07080677151679993,0.06481415033340454
0.30871373414993286,0.3420844078063965,0.876589834690094,0.041927993297576904,-0.023747622966766357,0.08999639749526978
0.28727391362190247,0.28097984194755554,0.6160821318626404,0.001454375684261322,-0.06372299790382385,0.12409722805023193
0.09400156140327454,0.26413682103157043,0.42253297567367554,-0.012639045715332031,-0.10216474533081055,0.12274497747421265
-0.08766399323940277,0.12212785333395004,0.27612724900245667,0.023233652114868164,-0.12979376316070557,0.09553647041320801
-0.03200570121407509,-0.07537039369344711,0.15663500130176544,0.02304653823375702,-0.1310952603816986,0.006355106830596924
0.09087112545967102,-0.07397640496492386,0.1046481728553772,0.026192985475063324,-0.12919265031814575,-0.04957467317581177
0.08831467479467392,-0.033688418567180634,0.10488162934780121,0.023915424942970276,-0.12624070048332214,-0.05209052562713623
0.006001953035593033,-0.0822996273636818,0.08841291069984436,0.015849905088543892,-0.11811530590057373,-0.06570494174957275
-0.01536012627184391,0.023932291194796562,0.040249139070510864,0.011135989800095558,-0.09706306457519531,-0.0869971513748169
0.07965487241744995,0.18692758679389954,0.1310727596282959,0.06915738433599472,-0.0662393569946289,-0.08297502994537354
0.31202858686447144,0.310031533241272,0.41170600056648254,0.13108402490615845,-0.07916259765625,0.015665054321289062
0.16431593894958496,-0.3680180013179779,0.3545283377170563,0.03666086494922638,-0.038867026567459106,0.08284813165664673
-0.3820642828941345,-0.8843306303024292,0.04195015877485275,-0.01381424069404602,-0.040723830461502075,-0.08504390716552734
-0.47989773750305176,-0.19199511408805847,-0.06293380260467529,-0.009454786777496338,0.06786781549453735,-0.186623215675354
-0.08385109156370163,0.6542424559593201,0.299450159072876,0.10943706333637238,0.1265673041343689,-0.04404854774475098
0.18901610374450684,0.307096391916275,0.5882722735404968,0.16249817609786987,0.049573302268981934,0.07003998756408691
0.3321855366230011,-0.32521000504493713,0.518384575843811,0.07773245126008987,0.022403746843338013,0.0028434395790100098
0.3849283754825592,-0.1550011932849884,0.38316693902015686,0.03490661084651947,0.032000213861465454,-0.05355900526046753
0.13612127304077148,0.27122560143470764,0.26630789041519165,0.04653778672218323,0.02875596284866333,-0.026559114456176758
-0.048255447298288345,0.5738436579704285,0.27884629368782043,0.09418518096208572,0.03164157271385193,0.0024799704551696777
-0.006999066099524498,0.6456093788146973,0.2731049656867981,0.14075952768325806,0.03758901357650757,0.04662764072418213
0.010924984700977802,0.41625258326530457,0.3938920199871063,0.18790985643863678,0.04572215676307678,0.050677478313446045
0.018816351890563965,0.42202553153038025,0.6028426885604858,0.17396727204322815,0.07032695412635803,-0.007894277572631836
0.09515345096588135,0.7386713027954102,0.838722825050354,0.17327742278575897,0.05717456340789795,-0.02023416757583618
0.09106311202049255,0.8331582546234131,1.0100902318954468,0.13970668613910675,0.04684862494468689,0.049753665924072266
-0.0024126588832587004,0.7541348934173584,1.0704669952392578,0.11702574789524078,0.03414461016654968,0.05132955312728882
-0.0005294051952660084,0.8779568672180176,1.1618826389312744,0.12423712015151978,0.039488375186920166,0.02287006378173828
-0.028335001319646835,0.9137988686561584,1.3331657648086548,0.15148279070854187,0.06120377779006958,0.041722774505615234
-0.060171980410814285,0.7859874963760376,1.608856439590454,0.11758206784725189,0.05905336141586304,5.08427619934082e-05
-0.03610799461603165,0.7390563488006592,1.657282829284668,0.06938515603542328,0.06434834003448486,-0.04652124643325806
-0.035387832671403885,0.8346205949783325,1.7559095621109009,0.07263325154781342,0.08350476622581482,-0.08794283866882324
-0.05071771517395973,0.9528067708015442,1.9722567796707153,0.06491795182228088,0.13911637663841248,-0.06792747974395752
-0.057601235806941986,0.8563133478164673,2.2052531242370605,0.05539640784263611,0.1320960521697998,-0.0799490213394165
0.042285170406103134,0.6783734560012817,2.3651249408721924,0.023268580436706543,0.1814318299293518,-0.0723922848701477
0.2248453050851822,0.6057198643684387,2.551126718521118,0.05257536470890045,0.18589788675308228,0.008082032203674316
0.1350334733724594,0.5172579884529114,2.5774638652801514,0.10329894721508026,0.12497633695602417,0.03396385908126831
-0.2825573682785034,0.42342013120651245,2.498990297317505,0.11648279428482056,0.08192819356918335,-0.0559157133102417
-0.7123875617980957,0.1796186864376068,2.4216973781585693,0.06417737901210785,0.14890629053115845,-0.19119471311569214
-0.5416686534881592,0.33505627512931824,2.422511577606201,0.0907742828130722,0.15264743566513062,-0.3196209669113159
0.20159105956554413,1.0465352535247803,2.611656904220581,0.21804624795913696,0.1410028040409088,-0.24399858713150024
0.7580273747444153,1.4453823566436768,2.6984384059906006,0.25070783495903015,0.1389804482460022,-0.04565376043319702
0.7692397236824036,1.3430362939834595,2.7637085914611816,0.20803427696228027,0.09870463609695435,0.06813031435012817
0.41851234436035156,0.9078819155693054,2.443504810333252,0.13184994459152222,0.02695298194885254,0.024311542510986328
0.08844498544931412,0.9431890845298767,1.9307622909545898,0.11614581942558289,0.0541500449180603,-0.054009854793548584
-0.0777517780661583,1.3275874853134155,1.8189723491668701,0.23712192475795746,0.09361213445663452,-0.05063360929489136
-0.10421725362539291,1.4073331356048584,1.8679012060165405,0.31631678342819214,0.10469004511833191,-0.004598498344421387
-0.13424928486347198,1.0363701581954956,2.0397017002105713,0.32052716612815857,0.10289740562438965,-0.018508195877075195
-0.05766255408525467,1.047067403793335,2.19990873336792,0.2324621081352234,0.0755433440208435,-0.061799466609954834
-0.03830820694565773,1.0345667600631714,2.076080799102783,0.20799344778060913,0.02736690640449524,-0.018841564655303955
-0.13028132915496826,0.75616455078125,1.9963345527648926,0.22728613018989563,0.02795541286468506,-0.017450988292694092
-0.06914158165454865,0.647005558013916,1.9946333169937134,0.18154117465019226,0.0725683867931366,-0.07222193479537964
0.07791560143232346,0.6465609669685364,2.0193586349487305,0.14841142296791077,0.0732538104057312,-0.0768575668334961
0.2408788651227951,0.6837486624717712,2.027379035949707,0.10399425774812698,0.04143768548965454,-0.04518687725067139
0.308885782957077,0.5399730801582336,1.8755768537521362,0.06351561099290848,0.001934140920639038,0.0024518966674804688
0.2985500991344452,0.48264944553375244,1.598463773727417,0.02279609441757202,-0.02031034231185913,-0.004566192626953125
0.21398630738258362,0.6091914772987366,1.3556668758392334,0.02592814713716507,-0.0160161554813385,0.022970497608184814
0.15652166306972504,0.5190291404724121,1.25606107711792,0.026488449424505234,0.010101765394210815,0.05475342273712158
0.30155932903289795,0.39531436562538147,1.2938015460968018,-0.025194797664880753,-0.005057245492935181,0.024898171424865723
0.5399114489555359,0.42196527123451233,1.158583641052246,-0.05928557366132736,-0.04433736205101013,0.02828073501586914
0.532895028591156,0.4405582845211029,0.8470804691314697,-0.07648158073425293,-0.05268397927284241,0.10926604270935059
-0.031072821468114853,0.1264898031949997,0.4697115123271942,-0.10630486905574799,-0.02555575966835022,0.16912388801574707
-0.6017590761184692,0.14942075312137604,0.33419644832611084,-0.06649717688560486,0.0083903968334198,0.0943952202796936
-0.6202039122581482,0.5803890824317932,0.4272715747356415,-0.07617910951375961,0.001709967851638794,0.0030952095985412598
-0.23150020837783813,0.6515709161758423,0.37487271428108215,-0.08087362349033356,-0.008240312337875366,-0.047511398792266846
0.11360806226730347,0.4330793619155884,0.3021506369113922,-0.09246127307415009,0.03759676218032837,-0.017682790756225586
-0.005135386250913143,-0.03529057651758194,0.39255815744400024,-0.07473082095384598,0.07805460691452026,0.0023080110549926758
-0.21453939378261566,-0.11210422962903976,0.6041529774665833,-0.09568768739700317,0.049918681383132935,-0.08790278434753418
-0.20091938972473145,0.3349989950656891,0.4816146194934845,-0.16345760226249695,0.031198590993881226,-0.1300884485244751
-0.08468673378229141,0.5037811994552612,0.4132096767425537,-0.10619433969259262,0.02920621633529663,-0.03826946020126343
0.00647297827526927,0.2171168476343155,0.4885042905807495,-0.05069461464881897,0.03281781077384949,0.009785175323486328
0.12654495239257812,0.26782718300819397,0.675493597984314,-0.07284530997276306,0.032043009996414185,0.007933616638183594
0.200394406914711,0.4519836902618408,0.7159786820411682,-0.08901612460613251,-0.0038881003856658936,0.08093327283859253
0.11789071559906006,0.27346116304397583,0.6945132613182068,-0.07649364322423935,-0.06433823704719543,0.10917812585830688
0.0966179370880127,0.20678967237472534,0.6138231754302979,-0.07762559503316879,-0.06513723731040955,0.08156675100326538
0.1589811146259308,0.32392072677612305,0.6218473315238953,-0.03673999756574631,-0.05440327525138855,0.08127421140670776
0.20731915533542633,0.358010470867157,0.7087351679801941,-0.058675166219472885,-0.059050798416137695,0.08734643459320068
0.11573492735624313,0.2500392198562622,0.6141383051872253,-0.09947800636291504,-0.07788011431694031,0.08439368009567261
-0.09552906453609467,0.05710863694548607,0.46170347929000854,-0.07793175429105759,-0.11013662815093994,-0.019104957580566406
-0.20846876502037048,0.13889628648757935,0.3122393488883972,-0.08192162215709686,-0.04991966485977173,-0.11709332466125488
-0.23087061941623688,0.359530508518219,0.3577953577041626,-0.06102554127573967,-0.0073597729206085205,-0.1864345669746399
0.1295100897550583,0.9670859575271606,0.573192834854126,0.016672685742378235,-0.0019267797470092773,-0.11678880453109741
0.17104887962341309,0.3232945501804352,0.710528552532196,0.011402931064367294,-0.005505293607711792,0.018543243408203125
-0.12817025184631348,-0.41962090134620667,0.4872618317604065,-0.020201392471790314,-0.0376240611076355,-0.10476720333099365
-0.23554542660713196,-0.07421187311410904,0.26353919506073,-0.03615618869662285,0.07154110074043274,-0.15491312742233276
-0.19324836134910583,0.4351065158843994,0.5259205102920532,0.025982681661844254,0.13155749440193176,-0.09473997354507446
0.017520125955343246,0.623956024646759,0.7974374890327454,0.03816700726747513,0.07971757650375366,-0.009447216987609863
0.2606278955936432,0.42395591735839844,0.6819651126861572,0.02023153007030487,0.039804428815841675,0.054467618465423584
0.2501493990421295,-0.00222351448610425,0.5329353213310242,0.014561831951141357,0.05042552947998047,0.11424022912979126
-0.11817608028650284,-0.36380189657211304,0.4113229811191559,-0.002855725586414337,0.05896666646003723,0.08232808113098145
-0.3798381984233856,-0.18899346888065338,0.326005756855011,-0.03521892428398132,0.0524466335773468,-0.018044352531433105
-0.24021880328655243,0.16028614342212677,0.2528325021266937,-0.027727164328098297,0.027882397174835205,-0.05048114061355591
0.10973230004310608,0.2523399889469147,0.12548117339611053,-0.02014874666929245,0.03847262263298035,0.018508195877075195
0.27716514468193054,0.040392857044935226,0.0879574865102768,0.012949050404131413,0.030497461557388306,0.09165161848068237
0.15835312008857727,-0.14797499775886536,0.0919685810804367,-0.010679647326469421,0.007892459630966187,0.09557569026947021
0.01655404083430767,-0.2503373920917511,-0.0541621558368206,-0.034943439066410065,-0.033377885818481445,0.01707637310028076
-0.0007740375585854053,-0.09587376564741135,-0.2152138352394104,-0.0425109937787056,-0.02463957667350769,-0.023648321628570557
0.06642339378595352,-0.12133628875017166,-0.2768858075141907,-0.011689236387610435,-0.02961239218711853,-0.012442529201507568
0.11131900548934937,-0.32147520780563354,-0.3682470917701721,-0.01782148703932762,-0.015699118375778198,-0.034192562103271484
0.06054999306797981,-0.32805871963500977,-0.3967890441417694,-0.04364509508013725,-0.00889560580253601,-0.05567044019699097
-0.04920167103409767,-0.24993796646595,-0.5342638492584229,-0.07949305325746536,-0.016240090131759644,-0.08151304721832275
-0.0906456932425499,-0.12282820045948029,-0.6499081254005432,-0.08503494411706924,0.018667906522750854,-0.06753212213516235
-0.004310050047934055,-0.04130392149090767,-0.5603167414665222,-0.042409658432006836,-0.0015114247798919678,0.0047356486320495605
-0.03317736089229584,-0.4765643775463104,-0.6732439994812012,-0.09737640619277954,0.00410008430480957,0.05083495378494263
-0.27657872438430786,-0.6561934351921082,-0.9391652345657349,-0.11199155449867249,0.015551835298538208,-0.026982784271240234
-0.6260890960693359,-0.6847889423370361,-1.0750401020050049,-0.1317950189113617,0.08434650301933289,-0.08164894580841064
-0.7069731950759888,-0.4783482849597931,-1.1088590621948242,-0.1278403252363205,0.0843224823474884,-0.17375445365905762
-0.34899261593818665,0.05337922275066376,-1.0387306213378906,-0.11207327246665955,0.10844147205352783,-0.16179627180099487
0.1557275950908661,0.15979085862636566,-0.9676264524459839,-0.07809260487556458,0.11734530329704285,-0.019002020359039307
0.3636105954647064,-0.332411527633667,-0.8822830319404602,-0.10147996246814728,0.1199975311756134,0.06539261341094971
0.26586616039276123,-0.46003714203834534,-0.9957795143127441,-0.20649336278438568,0.09869471192359924,0.025300800800323486
-0.011554624885320663,-0.06544353812932968,-1.1676830053329468,-0.21350900828838348,0.08717122673988342,0.047739267349243164
-0.18717968463897705,0.0013773712562397122,-1.2541929483413696,-0.16603657603263855,0.07286599278450012,0.08238816261291504
-0.09153518825769424,-0.1546538919210434,-1.285413384437561,-0.1265304684638977,0.05564826726913452,0.06148874759674072
0.0771808847784996,-0.27253052592277527,-1.2504311800003052,-0.1009429544210434,0.05689230561256409,0.030505895614624023
0.12095358967781067,-0.09133019298315048,-1.1380373239517212,-0.13577666878700256,0.032588034868240356,-0.005834817886352539
0.1133774071931839,-0.03817226365208626,-1.0709689855575562,-0.13539224863052368,-0.01106274127960205,0.005962789058685303
0.19123265147209167,-0.11233141273260117,-1.090065360069275,-0.14000549912452698,-0.010867893695831299,0.00771176815032959
0.3196728229522705,-0.12711915373802185,-1.05545175075531,-0.10406146198511124,-0.018727809190750122,-0.044164299964904785
0.41235536336898804,0.041527651250362396,-0.9537901878356934,-0.07828401774168015,0.0058377087116241455,-0.011307060718536377
0.3129085600376129,-0.01834288239479065,-0.8107461333274841,-0.0525665357708931,-0.012761890888214111,0.040573954582214355
0.1614469438791275,-0.19908113777637482,-0.7922040224075317,-0.08074209839105606,-0.03003901243209839,-0.0173872709274292
0.13256919384002686,-0.19770407676696777,-0.8022791743278503,-0.08338871598243713,0.00830763578414917,-0.1001209020614624
0.16887663304805756,-0.07054047286510468,-0.6015962362289429,-0.04915352165699005,0.03571394085884094,-0.1022222638130188
0.26885318756103516,0.1358056515455246,-0.3832628130912781,-0.029834404587745667,-0.0055762529373168945,-0.016859889030456543
0.1015569269657135,-0.22835730016231537,-0.4505186080932617,-0.060385093092918396,-0.003426671028137207,0.029932916164398193
-0.2934987545013428,-0.4520825445652008,-0.47200021147727966,-0.021456606686115265,0.018514424562454224,-0.006865143775939941
-0.38031551241874695,-0.39749881625175476,-0.2836567163467407,-0.013229124248027802,0.06241878867149353,-0.08211970329284668
-0.09647218137979507,-0.33053338527679443,-0.2075665146112442,-0.036177270114421844,0.050236403942108154,-0.15473854541778564
0.30124688148498535,-0.21076937019824982,-0.25887271761894226,-0.04607012867927551,0.08802735805511475,-0.09503823518753052
0.3704302906990051,-0.2698611915111542,-0.2129470705986023,0.000881679356098175,0.10912415385246277,0.017514705657958984
0.22252777218818665,-0.3855370879173279,-0.16630639135837555,-0.02706277370452881,0.08845216035842896,0.050128281116485596
-0.05307474732398987,-0.4676834046840668,-0.33550694584846497,-0.09236903488636017,0.06947162747383118,0.024527430534362793
