rotation_x,rotation_y,rotation_z,acceleration_x,acceleration_y,acceleration_z
0.06938239932060242,0.23206359148025513,0.4795786142349243,0.1176157146692276,-0.058768391609191895,-0.04284048080444336
0.06848309934139252,0.17582131922245026,0.5267110466957092,0.09319861233234406,-0.03999459743499756,0.015178680419921875
0.042359549552202225,0.23941245675086975,0.561306357383728,0.09743476659059525,-0.03548383712768555,0.013855040073394775
-0.014432067051529884,0.37318721413612366,0.5861472487449646,0.10702337324619293,-0.028345823287963867,0.024530768394470215
-0.03522660210728645,0.6285732388496399,0.6190391182899475,0.10612580180168152,-0.04108595848083496,0.016364574432373047
0.015015149489045143,0.8374128341674805,0.6263429522514343,0.11901430785655975,-0.07210010290145874,-0.025629639625549316
0.06619590520858765,0.815949022769928,0.6125476956367493,0.1060156300663948,-0.06633496284484863,-0.014168977737426758
0.06682692468166351,0.7319183349609375,0.6666048169136047,0.14798612892627716,-0.04025226831436157,0.05351132154464722
-0.015417281538248062,0.6782065629959106,0.785895049571991,0.18247167766094208,-0.02230370044708252,0.09683740139007568
-0.17939142882823944,0.8149344325065613,0.9512672424316406,0.20361633598804474,-0.012981176376342773,0.1048654317855835
-0.36857619881629944,1.079883098602295,1.0600179433822632,0.21472418308258057,0.0008536577224731445,0.07982224225997925
-0.5399214029312134,1.3809844255447388,1.0199302434921265,0.18158477544784546,-0.0033188462257385254,0.06265920400619507
-0.6700021624565125,1.581931233406067,0.8978483080863953,0.09078146517276764,-0.014963269233703613,0.06429880857467651
-0.9220079779624939,1.4263888597488403,0.9013428688049316,0.1355838179588318,-0.013857424259185791,0.16505450010299683
-1.249109148979187,1.1321340799331665,1.16483736038208,0.16168458759784698,0.020185917615890503,0.2681617736816406
-1.6770845651626587,1.0722198486328125,1.34666109085083,0.11851339042186737,0.02064874768257141,0.2586885094642639
-1.9393038749694824,0.7247693538665771,1.4769480228424072,0.151744082570076,-0.020720094442367554,0.19421309232711792
-1.674638032913208,-0.0764867439866066,1.5216760635375977,0.22838155925273895,-0.09326934814453125,0.061444878578186035
-1.2166895866394043,-0.9228206872940063,1.38424813747406,0.18736465275287628,-0.028078466653823853,-0.07394641637802124
-0.9090524315834045,-0.7758756279945374,1.0404856204986572,0.16957694292068481,0.10925012826919556,-0.09988421201705933
-0.24906697869300842,0.31574490666389465,0.15405507385730743,0.05517374724149704,0.020487487316131592,-0.2059001922607422
0.49773406982421875,1.0681334733963013,-0.06828994303941727,-0.03743378818035126,-0.14041143655776978,-0.39939796924591064
0.8122574090957642,0.8813837766647339,0.748531699180603,0.11602330207824707,0.005309015512466431,-0.4154115319252014
0.5088903307914734,0.7169528007507324,1.5975490808486938,0.1667935997247696,-0.034873127937316895,-0.29435932636260986
0.27247151732444763,0.7829330563545227,1.5455962419509888,0.10727003216743469,-0.20132839679718018,-0.18366718292236328
0.12192691117525101,0.7972079515457153,1.4917066097259521,0.1310698688030243,-0.008654505014419556,-0.14214974641799927
0.1330406218767166,0.5693038105964661,1.4354195594787598,0.025844406336545944,0.008576780557632446,-0.1330907940864563
0.2805369198322296,0.49335235357284546,1.351505160331726,-0.03880036994814873,0.04634752869606018,-0.08456695079803467
0.37398162484169006,0.7374297976493835,1.2280391454696655,-0.12782369554042816,0.08742934465408325,0.006373226642608643
0.3856094479560852,0.9609766602516174,1.1454143524169922,-0.18803605437278748,0.0857095718383789,0.04490375518798828
0.3506704270839691,1.0299776792526245,1.1682480573654175,-0.16359707713127136,0.07708418369293213,0.032728731632232666
0.38370639085769653,0.9977471232414246,1.2214462757110596,-0.12552687525749207,0.09172630310058594,0.009732365608215332
0.5220038294792175,0.8970506191253662,1.313073754310608,-0.12722374498844147,0.10685479640960693,-0.01063394546508789
0.6548522114753723,0.7876937985420227,1.4281549453735352,-0.11797203868627548,0.10586270689964294,-0.019720792770385742
0.6578866243362427,0.7649941444396973,1.4726431369781494,-0.1372472494840622,0.1086168885231018,0.02200978994369507
0.5043709874153137,0.762500524520874,1.4307111501693726,-0.13139908015727997,0.14223378896713257,0.0803220272064209
0.37275514006614685,0.9302005767822266,1.292406678199768,-0.1333526223897934,0.13412782549858093,0.11664760112762451
0.2625362277030945,0.8138942122459412,1.1804091930389404,-0.14458215236663818,0.13191896677017212,0.09899574518203735
0.18951843678951263,0.3513931334018707,1.0529594421386719,-0.15886351466178894,0.13639351725578308,0.0845346450805664
0.08582188189029694,0.10855400562286377,0.885845959186554,-0.1708172708749771,0.14075228571891785,0.11138302087783813
-0.013083776459097862,0.12653189897537231,0.7062580585479736,-0.16121788322925568,0.11320102214813232,0.11827194690704346
-0.008947846479713917,0.15192601084709167,0.629086434841156,-0.1250014752149582,0.06300556659698486,0.08996254205703735
0.10165496915578842,0.07010311633348465,0.6654530763626099,-0.07880181074142456,0.03642699122428894,0.06883418560028076
0.23969048261642456,-0.040510792285203934,0.7177527546882629,-0.06638097018003464,0.007054805755615234,0.026654481887817383
0.24238748848438263,0.06434468179941177,0.700279712677002,-0.11491518467664719,-0.010535091161727905,0.050692081451416016
0.17632055282592773,0.23804624378681183,0.6169013977050781,-0.14204277098178864,-0.009975939989089966,0.0936400294303894
0.104265958070755,0.27059659361839294,0.5188230276107788,-0.13288471102714539,-0.021106719970703125,0.09471344947814941
-0.032791998237371445,0.14151866734027863,0.44241127371788025,-0.10546834766864777,-0.03940021991729736,0.0765376091003418
-0.14994624257087708,-0.040802568197250366,0.3011923134326935,-0.10542664676904678,-0.045210033655166626,0.03615385293960571
-0.13676752150058746,-0.18363885581493378,0.10408657044172287,-0.14779457449913025,-0.05868196487426758,-0.009675979614257812
-0.10650733858346939,-0.1312752217054367,0.05285246670246124,-0.16871455311775208,-0.06407368183135986,-0.03965836763381958
-0.07787641137838364,0.284832626581192,0.12844471633434296,-0.1438532918691635,-0.10145950317382812,-0.02411067485809326
-0.0705312117934227,0.8121082186698914,0.2424428015947342,-0.13278014957904816,-0.15506327152252197,-0.05469954013824463
-0.21653617918491364,1.1573190689086914,0.3614577054977417,-0.13259389996528625,-0.18358030915260315,-0.10673403739929199
-0.4190581142902374,1.0932140350341797,0.4910362660884857,-0.027449805289506912,-0.1491769254207611,-0.21077990531921387
-0.5770164728164673,0.889905571937561,0.6228190064430237,0.059322282671928406,-0.11109989881515503,-0.3142499327659607
-0.4346567392349243,0.5624532103538513,0.7132912874221802,0.11589688062667847,-0.05764022469520569,-0.43695294857025146
-0.015421304851770401,0.14498111605644226,0.6909781694412231,0.1242009699344635,0.009892940521240234,-0.48580485582351685
0.48430678248405457,-0.24888189136981964,0.5896511673927307,0.09873214364051819,0.06609901785850525,-0.3886643052101135
0.8196629881858826,-0.46359795331954956,0.49202969670295715,0.03328763693571091,0.08368644118309021,-0.16518354415893555
0.8308573961257935,-0.2974449694156647,0.5586370825767517,0.0004836469888687134,0.0772053599357605,0.06461703777313232
0.5995573401451111,0.03982680290937424,0.5654510259628296,-0.052885502576828,0.0373939573764801,0.2174033522605896
0.30175524950027466,0.2182963341474533,0.5811532139778137,-0.08126384764909744,0.03732740879058838,0.26365476846694946
0.05258934199810028,-0.006227065343409777,0.5087964534759521,-0.09787610173225403,0.05420827865600586,0.18537300825119019
-0.1739749014377594,-0.3293885886669159,0.41512230038642883,-0.08050219714641571,0.09877195954322815,0.12427628040313721
-0.27979421615600586,-0.5498113036155701,0.373850017786026,-0.05152960494160652,0.09425267577171326,0.08953732252120972
-0.1992415189743042,-0.6527140140533447,0.3490608036518097,-0.052448779344558716,0.07267338037490845,0.06667536497116089
-0.01783427968621254,-0.5273144245147705,0.2626963257789612,-0.09828115999698639,0.06458643078804016,0.058474957942962646
0.13102538883686066,-0.3522278666496277,0.08058781176805496,-0.15725263953208923,0.06800052523612976,0.0779467225074768
0.20189811289310455,-0.287489116191864,-0.09551721066236496,-0.1685718297958374,0.07692870497703552,0.10369497537612915
0.2514427900314331,-0.34983280301094055,-0.17015692591667175,-0.11086774617433548,0.0858471691608429,0.095100998878479
0.23408085107803345,-0.3324115574359894,-0.17793846130371094,-0.08419711142778397,0.056337714195251465,0.11501789093017578
0.1357804834842682,-0.2546241581439972,-0.16474449634552002,-0.07247518748044968,0.041704535484313965,0.15920555591583252
-0.015504409559071064,-0.24866262078285217,-0.18749216198921204,-0.07627975940704346,0.03358781337738037,0.18968820571899414
-0.1721803843975067,-0.20089933276176453,-0.24428792297840118,-0.08461114764213562,0.03165698051452637,0.20878350734710693
-0.14681164920330048,-0.2066541612148285,-0.3546331226825714,-0.10142208635807037,0.03838706016540527,0.14920413494110107
0.03130239620804787,-0.1817878782749176,-0.43478065729141235,-0.07914392650127411,0.057294607162475586,0.07401245832443237
0.17379455268383026,-0.12349343299865723,-0.46850672364234924,-0.07087691873311996,0.04203397035598755,0.04694020748138428
0.20026721060276031,-0.05949002131819725,-0.4901110529899597,-0.06633647531270981,0.01826918125152588,0.05222398042678833
0.12264791876077652,0.019541338086128235,-0.4787468910217285,-0.06389918178319931,-0.00440293550491333,0.0692676305770874
-0.0785670280456543,0.10151945799589157,-0.4584120213985443,-0.048454150557518005,-0.026098251342773438,0.10229325294494629
-0.19131919741630554,0.27626800537109375,-0.4189263582229614,-0.05216304212808609,-0.03482168912887573,0.10233128070831299
0.0371086522936821,0.15576982498168945,-0.26480841636657715,-0.00276067852973938,-0.013240635395050049,-0.03605574369430542
0.19413049519062042,-0.08675571531057358,-0.25529342889785767,-0.005390070378780365,0.005412459373474121,-0.0847012996673584
0.0734945684671402,-0.266290545463562,-0.36236757040023804,-0.08867102861404419,0.008538007736206055,0.0024763941764831543
-0.13339877128601074,-0.5111320614814758,-0.4647708237171173,-0.1490733027458191,-0.03779548406600952,0.07242625951766968
-0.40355607867240906,-0.41783860325813293,-0.5121487379074097,-0.23770099878311157,-0.13582414388656616,0.10058164596557617
-0.5863426923751831,-0.11845846474170685,-0.5240999460220337,-0.22252774238586426,-0.1299329400062561,0.07444494962692261
-0.6023933291435242,-0.1304781287908554,-0.49012020230293274,-0.12311278283596039,-0.0882972776889801,-0.06497085094451904
-0.5835610628128052,-0.25813913345336914,-0.4751411974430084,-0.07996836304664612,-0.07603451609611511,-0.17917633056640625
-0.6359752416610718,-0.2574794590473175,-0.5192652344703674,-0.07734115421772003,-0.04613587260246277,-0.20756959915161133
-0.574245274066925,-0.2720892131328583,-0.6227149367332458,-0.06554773449897766,0.006190299987792969,-0.23427969217300415
-0.31996044516563416,-0.23222611844539642,-0.7100639939308167,-0.06568102538585663,0.0268077552318573,-0.28219521045684814
-0.07765091210603714,-0.05373326689004898,-0.7514399886131287,-0.07156001776456833,0.02690640091896057,-0.27418792247772217
0.05993647128343582,0.09071559458971024,-0.763966977596283,-0.04046846181154251,0.03790256381034851,-0.24622583389282227
0.1740332394838333,0.08027564734220505,-0.7617864012718201,0.024175148457288742,0.06338247656822205,-0.252289354801178
0.24743369221687317,0.02089259959757328,-0.6923704743385315,0.09406226873397827,0.09178552031517029,-0.25096601247787476
0.19211037456989288,-0.07855416089296341,-0.5849753618240356,0.14759397506713867,0.11596617102622986,-0.18462848663330078
0.01232287846505642,-0.1531095951795578,-0.5410915613174438,0.15580828487873077,0.14263153076171875,-0.0651475191116333
-0.08213363587856293,-0.14325757324695587,-0.5315166115760803,0.11299410462379456,0.15574738383293152,0.045525431632995605
0.10396428406238556,-0.16342587769031525,-0.46673843264579773,0.07132535427808762,0.14954373240470886,0.06250476837158203
0.3950496017932892,-0.22659441828727722,-0.40812045335769653,0.05647476017475128,0.14232313632965088,0.0577702522277832
0.5581393837928772,-0.2128145843744278,-0.3912994861602783,0.0351870022714138,0.14663207530975342,0.11848068237304688
0.5665818452835083,-0.08178477734327316,-0.34017354249954224,0.011209814809262753,0.140608549118042,0.1964450478553772
0.44063255190849304,0.15150205790996552,-0.23548945784568787,0.023562459275126457,0.14016246795654297,0.2611274719238281
0.2715870440006256,0.19024446606636047,-0.08211322128772736,0.0075930943712592125,0.11511349678039551,0.27254265546798706
0.060778357088565826,0.03600582480430603,0.026521211490035057,0.013350771740078926,0.10695934295654297,0.252490758895874
-0.13741450011730194,-0.05780797079205513,0.030020026490092278,-0.012460990808904171,0.12467306852340698,0.22996723651885986
-0.239515483379364,-0.002881997963413596,-0.025244686752557755,-0.04802364856004715,0.13222551345825195,0.18787992000579834
-0.28358709812164307,0.09584371000528336,-0.0551777184009552,-0.04937741532921791,0.12820619344711304,0.1378278136253357
-0.2898736000061035,0.11391323059797287,-0.035457778722047806,-0.028446510434150696,0.10401946306228638,0.0964059829711914
-0.31916287541389465,0.07702022045850754,-0.016860246658325195,-0.011201166547834873,0.0787794291973114,0.03978341817855835
-0.384604811668396,-0.005477732513099909,-0.004399654921144247,0.008009194396436214,0.0551723837852478,-0.0004163384437561035
-0.42298802733421326,-0.18590763211250305,-0.040423620492219925,0.0688663050532341,0.05956244468688965,-0.056629955768585205
-0.37065666913986206,-0.2846167981624603,-0.04722347855567932,0.11782865971326828,0.0531211793422699,-0.09072691202163696
-0.30413496494293213,-0.14450134336948395,-0.0012658038176596165,0.12625209987163544,-0.0022028684616088867,-0.07914352416992188
-0.38698482513427734,0.2715158462524414,0.1569983959197998,0.14415907859802246,-0.08295068144798279,-0.0379185676574707
-0.7087115049362183,0.8118193745613098,0.40903499722480774,0.19254891574382782,-0.12884849309921265,0.011177599430084229
-1.0626373291015625,0.9571126699447632,0.7677397131919861,0.3069917559623718,-0.12897297739982605,-0.03430366516113281
-1.289939284324646,0.6938858032226562,1.0977792739868164,0.35865849256515503,-0.14230996370315552,-0.1604328751564026
-1.3120548725128174,0.3637176752090454,1.2277079820632935,0.36271384358406067,-0.09467548131942749,-0.27015501260757446
-1.071211576461792,0.1352202445268631,1.211222767829895,0.3264831304550171,-0.021604418754577637,-0.33728092908859253
-0.5650124549865723,0.02256087400019169,1.14329195022583,0.27697834372520447,0.01225423812866211,-0.3367460370063782
0.0005144234746694565,0.17374084889888763,1.1084063053131104,0.2315574735403061,0.0034453272819519043,-0.26214540004730225
0.3042861223220825,0.6220418214797974,1.0277377367019653,0.154862642288208,-0.012775033712387085,-0.09241384267807007
0.3147176504135132,0.9997239112854004,1.0194950103759766,0.13214823603630066,-0.010249465703964233,0.05962890386581421
0.17618127167224884,1.018993854522705,1.1293476819992065,0.17615625262260437,-0.039346009492874146,0.10265880823135376
0.023116163909435272,0.8288167119026184,1.1676315069198608,0.1644950807094574,-0.033128708600997925,0.10983771085739136
0.038478679955005646,0.4307369589805603,1.1175345182418823,0.11107730120420456,0.00015884637832641602,0.06276476383209229
0.16758449375629425,0.27604570984840393,1.0722500085830688,0.09293848276138306,0.023880332708358765,0.0321384072303772
0.3341873586177826,0.3976653814315796,1.0507557392120361,0.05039960891008377,0.02263018488883972,0.06453287601470947
0.4225724935531616,0.628759503364563,1.0231337547302246,0.01854843646287918,0.03887784481048584,0.10978549718856812
0.3566928207874298,0.7419747710227966,1.030715823173523,0.002054654061794281,0.038319915533065796,0.15721219778060913
0.12774783372879028,0.6227291822433472,1.0923454761505127,0.020663350820541382,0.038125813007354736,0.19147425889968872
-0.03657440096139908,0.3509279489517212,1.1354020833969116,0.033327169716358185,0.04033803939819336,0.16299790143966675
-0.06371642649173737,0.07127675414085388,1.1088720560073853,0.03153473138809204,0.05397799611091614,0.09813672304153442
0.039626386016607285,-0.07295925915241241,1.028940200805664,0.02349814772605896,0.07659855484962463,0.056535303592681885
0.179985910654068,-0.06642676889896393,0.9607704877853394,-0.0040496960282325745,0.06554338335990906,0.056314289569854736
0.2264101505279541,0.009382562711834908,0.8955416083335876,-0.027355782687664032,0.04598289728164673,0.0945354700088501
0.21970251202583313,-0.04335674270987511,0.8817796111106873,-0.020454421639442444,0.02587294578552246,0.11817264556884766
0.17551860213279724,-0.241254523396492,0.8552393913269043,-0.010353311896324158,-0.003756403923034668,0.09742993116378784
0.12276764959096909,-0.4205528497695923,0.7471267580986023,-0.01803755573928356,-0.009186923503875732,0.07611078023910522
0.08350040018558502,-0.3955598771572113,0.5577605962753296,-0.051742441952228546,-0.028796792030334473,0.07536458969116211
0.11195169389247894,-0.20223738253116608,0.36520346999168396,-0.06629391759634018,-0.05485895276069641,0.049709439277648926
0.09856990724802017,0.07471256703138351,0.2867642939090729,-0.029804550111293793,-0.07802572846412659,0.042411863803863525
0.049484625458717346,0.0939173772931099,0.3861198127269745,0.031103596091270447,-0.12606504559516907,0.015450835227966309
-0.09042312204837799,0.08571457117795944,0.5311072468757629,0.011934932321310043,-0.21550649404525757,0.006451964378356934
-0.3510233163833618,0.11439158022403717,0.5531308054924011,-0.043361224234104156,-0.22550860047340393,0.007242858409881592
-0.781358540058136,0.2522223889827728,0.5204623937606812,-0.052194274961948395,-0.19329935312271118,0.003346383571624756
-1.0271215438842773,0.22090908885002136,0.49940747022628784,-0.022882536053657532,-0.1792440116405487,-0.09821516275405884
-0.8720718026161194,-0.04454301297664642,0.4562287926673889,0.03307877480983734,-0.11917740106582642,-0.30197471380233765
-0.3672734498977661,-0.38822343945503235,0.33334946632385254,0.06376060843467712,-0.047222405672073364,-0.4592183828353882
0.20599186420440674,-0.3932478427886963,0.206153005361557,0.06803710758686066,-0.006088674068450928,-0.48307615518569946
0.5489377379417419,-0.024618523195385933,0.16134323179721832,0.0910414308309555,0.01290041208267212,-0.3695260286331177
0.6817488670349121,0.24584855139255524,0.2405577450990677,0.16254915297031403,0.015584588050842285,-0.2626715898513794
0.6115564703941345,0.22561116516590118,0.38990268111228943,0.23803193867206573,0.014974772930145264,-0.19877493381500244
0.45825403928756714,0.1259155422449112,0.5438852310180664,0.27809715270996094,0.03674134612083435,-0.12975859642028809
0.3989938497543335,-0.015142852440476418,0.6660682559013367,0.2694130837917328,0.06247413158416748,-0.08837300539016724
0.4508032500743866,-0.10192408412694931,0.70930016040802,0.22396129369735718,0.09313380718231201,-0.0494876503944397
0.512920081615448,-0.05901322141289711,0.7267669439315796,0.1834980547428131,0.10893681645393372,0.02490013837814331
0.5380708575248718,0.06067289412021637,0.7709143757820129,0.15969619154930115,0.10162296891212463,0.10727840662002563
0.5115271210670471,0.1717098355293274,0.8233338594436646,0.1515905261039734,0.09397593140602112,0.17018401622772217
0.46349355578422546,0.21770647168159485,0.8712612986564636,0.14075452089309692,0.09885677695274353,0.20667636394500732
0.43756240606307983,0.18113897740840912,0.8629873394966125,0.11764788627624512,0.10830411314964294,0.20403563976287842
0.4075124263763428,0.21757028996944427,0.8456679582595825,0.10407021641731262,0.12996381521224976,0.2085903286933899
0.37158605456352234,0.318581759929657,0.8378396034240723,0.0891316831111908,0.12747102975845337,0.22223275899887085
0.2974207103252411,0.3951585590839386,0.8480783104896545,0.08288701623678207,0.1287018358707428,0.24054551124572754
0.18270482122898102,0.4384952783584595,0.8928402066230774,0.08316203206777573,0.11783087253570557,0.2480742335319519
0.06226707249879837,0.44619056582450867,0.9120794534683228,0.07491113245487213,0.11606466770172119,0.24192196130752563
-0.01400483213365078,0.45791417360305786,0.9081350564956665,0.04924900084733963,0.12222853302955627,0.21958881616592407
0.015377789735794067,0.4877769351005554,0.8953093886375427,0.02089644968509674,0.11005279421806335,0.16781139373779297
0.05279289558529854,0.5989748239517212,0.8844854235649109,-0.015543133020401001,0.10005369782447815,0.1389867067337036
0.005856440868228674,0.7625887393951416,0.9176279902458191,-0.020984351634979248,0.07060080766677856,0.13023525476455688
-0.18645815551280975,0.8881373405456543,0.9258086681365967,-0.022802941501140594,0.03814619779586792,0.13051694631576538
-0.4429827928543091,0.8687410354614258,0.8545395135879517,-0.012768052518367767,0.03935009241104126,0.10622292757034302
-0.6289753317832947,0.8033802509307861,0.7818515300750732,-0.004033252596855164,0.021823763847351074,0.024742841720581055
-0.6946414709091187,0.6198303699493408,0.7606850266456604,0.03678947687149048,-0.011161655187606812,-0.08225125074386597
-0.6775628328323364,0.7388229370117188,0.7518838047981262,0.039936184883117676,-0.07983967661857605,-0.16559743881225586
-0.7586613297462463,1.1349619626998901,0.8595201373100281,0.10670726746320724,-0.11272060871124268,-0.2079988718032837
-0.8493250608444214,1.3051306009292603,1.106523036956787,0.24932819604873657,-0.12692660093307495,-0.2855905294418335
-0.7937474846839905,1.1665270328521729,1.3313387632369995,0.3331049084663391,-0.1303381621837616,-0.41748201847076416
-0.5563594102859497,0.776672899723053,1.4365588426589966,0.3618640899658203,-0.05880606174468994,-0.4893621802330017
-0.0864756628870964,0.2766314446926117,1.4135011434555054,0.3198317289352417,-0.012028872966766357,-0.500177800655365
0.3304297626018524,0.1953299343585968,1.3256044387817383,0.2163461148738861,-0.01055675745010376,-0.3535667061805725
0.5459138751029968,0.5168042182922363,1.2192896604537964,0.15179792046546936,-0.014872223138809204,-0.12950551509857178
0.6218663454055786,0.8524532318115234,1.1938494443893433,0.1454024761915207,-0.02614685893058777,0.021487712860107422
0.5645947456359863,0.9203881621360779,1.3333311080932617,0.18816086649894714,-0.04839453101158142,0.10177958011627197
0.43868783116340637,0.7883595824241638,1.4626832008361816,0.20385539531707764,-0.036634862422943115,0.1541355848312378
0.329464316368103,0.643382728099823,1.4777034521102905,0.14750462770462036,-0.001231074333190918,0.18976658582687378
0.28412362933158875,0.605846643447876,1.4428277015686035,0.08122314512729645,0.023398995399475098,0.2139674425125122
0.2824814021587372,0.6651166081428528,1.4439493417739868,0.053666114807128906,0.031677305698394775,0.22368401288986206
0.24654626846313477,0.7566577196121216,1.4614835977554321,0.03310687839984894,0.036539703607559204,0.23967701196670532
0.13846808671951294,0.7966305613517761,1.4742639064788818,0.015284196473658085,0.042438894510269165,0.24508386850357056
0.010092888958752155,0.7448272705078125,1.480899453163147,0.007535234093666077,0.050335466861724854,0.22933882474899292
-0.1032613217830658,0.6955870389938354,1.4471174478530884,-0.016119271516799927,0.055971235036849976,0.2036089301109314
-0.20631511509418488,0.6768255829811096,1.3645613193511963,-0.05137041211128235,0.06793516874313354,0.18527621030807495
-0.272024929523468,0.628783643245697,1.2851873636245728,-0.0680624395608902,0.08433353900909424,0.15511780977249146
-0.2646932005882263,0.4999801516532898,1.207328200340271,-0.06827087700366974,0.08062851428985596,0.11245119571685791
-0.17208072543144226,0.31261584162712097,1.0828838348388672,-0.1016523689031601,0.05484730005264282,0.07399380207061768
-0.07461434602737427,0.24846072494983673,0.906599223613739,-0.14269603788852692,0.03344541788101196,0.0680379867553711
-0.014123966917395592,0.3252258896827698,0.7586956024169922,-0.163598895072937,-0.0026598572731018066,0.09017753601074219
-0.032728411257267,0.3717714548110962,0.679314136505127,-0.141251802444458,-0.033007025718688965,0.09890925884246826
-0.16069969534873962,0.31055936217308044,0.6303466558456421,-0.10525529086589813,-0.05730563402175903,0.09621816873550415
-0.26622095704078674,0.20919322967529297,0.5565399527549744,-0.09397698938846588,-0.07930147647857666,0.06371617317199707
-0.2573234438896179,0.154424250125885,0.4469642639160156,-0.08711639046669006,-0.09207788109779358,-0.005153775215148926
-0.18897777795791626,0.10893075913190842,0.35176071524620056,-0.0777067095041275,-0.0935606062412262,-0.07130783796310425
-0.16961917281150818,0.20220385491847992,0.33562684059143066,-0.08757543563842773,-0.14464923739433289,-0.0874890685081482
-0.3391411602497101,0.4541469216346741,0.34777286648750305,-0.09482766687870026,-0.1743229627609253,-0.06524616479873657
-0.64998459815979,0.5187922716140747,0.37167149782180786,-0.07355684041976929,-0.15879914164543152,-0.07019758224487305
-0.8585763573646545,0.16369399428367615,0.32931578159332275,-0.09167106449604034,-0.15536636114120483,-0.16830885410308838
-0.9119147062301636,-0.22772552073001862,0.17383579909801483,-0.13708265125751495,-0.1473621428012848,-0.28533363342285156
-0.7879939079284668,-0.455191433429718,0.0149107426404953,-0.12934602797031403,-0.1298014223575592,-0.37108832597732544
-0.4657842218875885,-0.5128083825111389,-0.07095074653625488,-0.05637744069099426,-0.09394428133964539,-0.4240344166755676
0.011164065450429916,-0.43462592363357544,-0.12326165288686752,-0.034755006432533264,-0.08178845047950745,-0.4318557381629944
0.4548173248767853,-0.18162763118743896,-0.23456107079982758,-0.06889328360557556,-0.05847635865211487,-0.36776190996170044
0.716346800327301,-0.007411375176161528,-0.4026328921318054,-0.08883145451545715,-0.019725322723388672,-0.27539533376693726
0.7815597057342529,0.025011688470840454,-0.4759696125984192,-0.036143019795417786,-0.00028973817825317383,-0.19225043058395386
0.7528896331787109,-0.16446763277053833,-0.4120185077190399,0.07926827669143677,0.007064521312713623,-0.1539078950881958
0.7071962952613831,-0.38486015796661377,-0.31523579359054565,0.12983477115631104,0.023854821920394897,-0.12092804908752441
0.6994904279708862,-0.5314973592758179,-0.2677524983882904,0.1128101497888565,0.04476460814476013,-0.07351964712142944
0.7086113095283508,-0.555474042892456,-0.25397464632987976,0.07771886885166168,0.06597572565078735,-0.0026416778564453125
0.7163873910903931,-0.4229115843772888,-0.2799346446990967,0.03650332987308502,0.08154609799385071,0.07900393009185791
0.7297053337097168,-0.24464678764343262,-0.3055254817008972,0.016829177737236023,0.10158687829971313,0.13995391130447388
0.7094916701316833,-0.16848890483379364,-0.24662089347839355,0.027330249547958374,0.11768513917922974,0.1869450807571411
0.6147007942199707,-0.3072560131549835,-0.15488389134407043,0.057722821831703186,0.1324162483215332,0.20984137058258057
0.4404231011867523,-0.45763829350471497,-0.09300370514392853,0.052733972668647766,0.14034658670425415,0.23136639595031738
0.29612162709236145,-0.5065052509307861,-0.07817920297384262,0.022497892379760742,0.14195993542671204,0.2422657012939453
0.28795942664146423,-0.4554402828216553,-0.11760126799345016,-0.02029682695865631,0.14329299330711365,0.21038329601287842
0.3373193144798279,-0.3446807563304901,-0.16802576184272766,-0.03402888774871826,0.14969557523727417,0.1837264895439148
0.3377479016780853,-0.24444806575775146,-0.15137246251106262,-0.010063491761684418,0.15206465125083923,0.1819138526916504
0.24753639101982117,-0.20086070895195007,-0.08074231445789337,0.002888523042201996,0.1177772581577301,0.19524270296096802
0.14424113929271698,-0.21179087460041046,0.008567532524466515,-0.008254647254943848,0.08471620082855225,0.1976320743560791
-0.008303278125822544,-0.08387786895036697,0.07612236589193344,-0.007901325821876526,0.06840339303016663,0.1949710249900818
-0.07146545499563217,0.1132834181189537,0.05680625140666962,-0.06604817509651184,0.026841014623641968,0.14706021547317505
-0.07765040546655655,0.25264713168144226,-0.008434116840362549,-0.06466443091630936,0.04557842016220093,0.044969379901885986
-0.11755842715501785,0.30730780959129333,-0.031741734594106674,-0.016871556639671326,0.04943215847015381,-0.011279582977294922
-0.16592592000961304,0.2728893458843231,-0.0618777871131897,-0.0011270791292190552,0.02093040943145752,-0.052592337131500244
-0.23271384835243225,0.24325895309448242,-0.12610989809036255,0.017514601349830627,-0.0010349154472351074,-0.06789767742156982
-0.2664601802825928,0.30810198187828064,-0.09532474726438522,0.02795366942882538,-0.07433420419692993,-0.08569830656051636
-0.38146165013313293,0.6225721836090088,0.04803752526640892,0.08714979887008667,-0.10489779710769653,-0.09725809097290039
-0.5659990906715393,0.8735244870185852,0.25418326258659363,0.18232552707195282,-0.07312077283859253,-0.1473078727722168
-0.6226509809494019,0.7575050592422485,0.36262404918670654,0.19484907388687134,-0.0645647644996643,-0.25525718927383423
-0.4080212116241455,0.28449082374572754,0.29700198769569397,0.1746794432401657,-0.012284666299819946,-0.3605228066444397
0.026942145079374313,-0.3028079867362976,0.12052978575229645,0.14460700750350952,0.03904727101325989,-0.37977778911590576
0.4010776877403259,-0.4474746882915497,-0.04657136648893356,0.07904592156410217,0.047062188386917114,-0.2417234182357788
0.5049983263015747,-0.03402575105428696,-0.12463897466659546,-6.601214408874512e-06,0.010609686374664307,-0.026079177856445312
0.4119851887226105,0.39487192034721375,-0.1437789350748062,7.950142025947571e-05,0.004245132207870483,0.10986834764480591
0.28736481070518494,0.4881193935871124,-0.06319638341665268,0.02588348090648651,-0.025517255067825317,0.11869800090789795
0.20332784950733185,0.2547270953655243,0.017510151490569115,0.054169997572898865,-0.031527698040008545,0.07435739040374756
0.14717040956020355,-0.04061809182167053,0.015319030731916428,0.047875985503196716,0.002038806676864624,0.05423545837402344
0.18530325591564178,-0.2742016911506653,-0.05761156231164932,0.014432936906814575,0.03796041011810303,0.06705528497695923
0.28757908940315247,-0.2974696159362793,-0.09157309681177139,-0.019172847270965576,0.048463284969329834,0.09976702928543091
0.35388854146003723,-0.17451836168766022,-0.08308884501457214,-0.045551881194114685,0.043085068464279175,0.15971219539642334
0.28665730357170105,-0.0021877079270780087,-0.08008405566215515,-0.07262296974658966,0.037956297397613525,0.2217552661895752
0.1610853672027588,0.08175231516361237,-0.06999625265598297,-0.08234499394893646,0.03827422857284546,0.2501787543296814
0.030841298401355743,0.044022589921951294,-0.06293275952339172,-0.07814359664916992,0.03624773025512695,0.23017311096191406
-0.10695592314004898,-0.07353484630584717,-0.10083284974098206,-0.08959949016571045,0.034673452377319336,0.2019033432006836
-0.22291801869869232,-0.1342008411884308,-0.15747466683387756,-0.09418129920959473,0.036146461963653564,0.17868274450302124
-0.2630596160888672,-0.1288367211818695,-0.1902821958065033,-0.08189018070697784,0.03182819485664368,0.14597493410110474
-0.2073737233877182,-0.126736581325531,-0.23424385488033295,-0.07735848426818848,0.023039042949676514,0.08871889114379883
-0.08674530684947968,-0.13211111724376678,-0.32741984724998474,-0.098727285861969,0.016326546669006348,0.04331827163696289
0.11713721603155136,-0.20001831650733948,-0.44667261838912964,-0.11804617941379547,0.006370186805725098,-0.015364408493041992
0.28219398856163025,-0.29958856105804443,-0.5166675448417664,-0.10713432729244232,-0.010633349418640137,-0.04625368118286133
0.34753841161727905,-0.39009764790534973,-0.5132591724395752,-0.08176620304584503,-0.03566846251487732,-0.04469740390777588
0.26401880383491516,-0.36936551332473755,-0.491961270570755,-0.07519827783107758,-0.0610995888710022,-0.017422378063201904
0.12422460317611694,-0.2525467574596405,-0.5261079668998718,-0.08563695847988129,-0.06367194652557373,-0.002051711082458496
-0.009668287821114063,-0.20913439989089966,-0.5630526542663574,-0.06823773682117462,-0.045540690422058105,-0.041932642459869385
-0.058168549090623856,-0.3688644468784332,-0.5887305736541748,-0.06149043142795563,-0.04771175980567932,-0.10647904872894287
-0.07937271147966385,-0.5879914164543152,-0.5812698006629944,-0.08703193068504333,-0.07926824688911438,-0.15921783447265625
-0.1747923046350479,-0.6528930068016052,-0.5856534242630005,-0.10943210124969482,-0.08838176727294922,-0.14783990383148193
-0.2981559634208679,-0.6848909854888916,-0.605208158493042,-0.10212205350399017,-0.061559468507766724,-0.14274317026138306
-0.2954862713813782,-0.7264853119850159,-0.6811961531639099,-0.12984484434127808,-0.04760095477104187,-0.18097126483917236
-0.19587379693984985,-0.7000718116760254,-0.867087185382843,-0.1741696149110794,-0.00830012559890747,-0.20532643795013428
-0.0432596355676651,-0.6860222816467285,-1.1057002544403076,-0.1806018054485321,0.04057043790817261,-0.2008083462715149
0.1646115481853485,-0.6904845237731934,-1.2817113399505615,-0.1352493315935135,0.08577468991279602,-0.17813068628311157
0.3009220361709595,-0.5370879769325256,-1.3416138887405396,-0.12015631794929504,0.0746462345123291,-0.10984086990356445
0.2730152904987335,-0.19784441590309143,-1.318697214126587,-0.10101410746574402,0.068325936794281,-0.02038586139678955
0.16827403008937836,0.08011007308959961,-1.2310909032821655,-0.054124683141708374,0.0725141167640686,0.008693397045135498
0.1279594898223877,0.042341601103544235,-1.202569842338562,-0.04179483652114868,0.08377525210380554,-0.07178330421447754
0.15255814790725708,-0.25798770785331726,-1.290143370628357,-0.038613513112068176,0.13337484002113342,-0.16444379091262817
0.2745189964771271,-0.517784595489502,-1.4387060403823853,-0.03393116593360901,0.1867389678955078,-0.22700607776641846
0.46452632546424866,-0.5860637426376343,-1.4945229291915894,-0.008281901478767395,0.20324274897575378,-0.22469574213027954
0.6298348903656006,-0.510291576385498,-1.4420677423477173,0.013542860746383667,0.20023703575134277,-0.1638147234916687
0.688896656036377,-0.43668243288993835,-1.3420761823654175,0.03623455762863159,0.2049771547317505,-0.07566601037979126
0.6379029750823975,-0.42353254556655884,-1.2539594173431396,0.018047958612442017,0.20048993825912476,0.00804978609085083
0.562996506690979,-0.44817158579826355,-1.1758091449737549,-0.003929153084754944,0.20471060276031494,0.06791096925735474
0.47443440556526184,-0.40934666991233826,-1.1120315790176392,-0.024355366826057434,0.1987994909286499,0.10645830631256104
0.4364096522331238,-0.3350171446800232,-1.0750994682312012,-0.04605364799499512,0.19614386558532715,0.10726213455200195
0.40441232919692993,-0.29083701968193054,-1.0168697834014893,-0.028459206223487854,0.20024335384368896,0.08731764554977417
0.39933210611343384,-0.3033811151981354,-0.9052870869636536,-0.008483663201332092,0.19315582513809204,0.07389026880264282
0.4026390612125397,-0.36633768677711487,-0.7782585620880127,0.0022700242698192596,0.18390005826950073,0.07089775800704956
0.34565046429634094,-0.42456433176994324,-0.6607635021209717,-0.018696073442697525,0.18215078115463257,0.09248477220535278
0.18708789348602295,-0.452336847782135,-0.5578924417495728,-0.02942413091659546,0.17967337369918823,0.12053787708282471
0.027288584038615227,-0.37535467743873596,-0.47566819190979004,-0.05665144696831703,0.16819345951080322,0.1262531280517578
-0.084263376891613,-0.22907127439975739,-0.41247519850730896,-0.08871687948703766,0.1504773497581482,0.09529531002044678
-0.13593411445617676,-0.09807731956243515,-0.3357219994068146,-0.08932438492774963,0.13528597354888916,0.039581120014190674
-0.20982855558395386,-0.0506327860057354,-0.2476050853729248,-0.08079011738300323,0.1124647855758667,-0.00886225700378418
-0.3828970789909363,-0.0703129917383194,-0.1930447518825531,-0.08483640849590302,0.08866703510284424,-0.01930701732635498
-0.5815438628196716,-0.1235666275024414,-0.1385948359966278,-0.06700381636619568,0.07400631904602051,-0.03567659854888916
-0.6965160369873047,-0.1696614921092987,-0.09715966880321503,-0.07300421595573425,0.030710339546203613,-0.09837990999221802
-0.8927252292633057,0.023311441764235497,-0.10230598598718643,-0.07111477851867676,0.00677114725112915,-0.14084607362747192
-1.0263853073120117,0.03099575825035572,-0.12399622797966003,-0.010843738913536072,0.02828770875930786,-0.21092045307159424
-0.9354144930839539,-0.12736840546131134,-0.12202589958906174,0.018515825271606445,0.02059614658355713,-0.314145565032959
-0.680695116519928,-0.43589460849761963,-0.16850636899471283,0.06328979134559631,0.07278025150299072,-0.36147522926330566
-0.385776162147522,-0.769717276096344,-0.27996525168418884,0.09546872973442078,0.12926846742630005,-0.3066282272338867
-0.07827683538198471,-0.9395787715911865,-0.4385089874267578,0.06501585245132446,0.15807455778121948,-0.17469185590744019
0.16590484976768494,-0.9520646333694458,-0.6020886301994324,0.007041051983833313,0.1561433970928192,-0.023843348026275635
0.19475673139095306,-0.6710954308509827,-0.7411335110664368,-0.06663510203361511,0.11782392859458923,0.13048070669174194
0.00262141739949584,-0.11537353694438934,-0.8627303242683411,-0.11972981691360474,0.07252088189125061,0.22849249839782715
-0.1880548745393753,0.29610350728034973,-0.9784243106842041,-0.08936281502246857,0.05887922644615173,0.18608564138412476
-0.3022732436656952,0.2896197438240051,-1.0542255640029907,-0.008335679769515991,0.053749263286590576,0.03496074676513672
-0.28770312666893005,-0.050800830125808716,-1.0859782695770264,0.0611167810857296,0.05441996455192566,-0.10447865724563599
-0.1331826001405716,-0.5743623375892639,-1.097117304801941,0.08718299865722656,0.049608588218688965,-0.19262748956680298
0.029997723177075386,-0.8674725890159607,-1.1456825733184814,0.04958753287792206,0.0520438551902771,-0.15402531623840332
0.08033791184425354,-0.7809893488883972,-1.2248432636260986,-0.023107916116714478,0.05391886830329895,-0.009892523288726807
0.08196016401052475,-0.5147515535354614,-1.2354333400726318,-0.07208722829818726,0.022813260555267334,0.10306107997894287
0.07741103321313858,-0.30352723598480225,-1.1438822746276855,-0.069053515791893,-0.008515506982803345,0.13284552097320557
0.06734862923622131,-0.2288849651813507,-1.0506181716918945,-0.06417378783226013,-0.02897268533706665,0.11166799068450928
0.020391706377267838,-0.2763258218765259,-1.0263445377349854,-0.07771667838096619,-0.02674826979637146,0.08010143041610718
-0.08898824453353882,-0.3878210783004761,-1.0608572959899902,-0.09854684770107269,-0.022486180067062378,0.06007641553878784
-0.1812981218099594,-0.5360720753669739,-1.084747314453125,-0.09239299595355988,-0.01768624782562256,0.02908700704574585
-0.17917494475841522,-0.6602661609649658,-1.102332592010498,-0.08288745582103729,-0.011817067861557007,-0.016015231609344482
-0.07832174748182297,-0.7067376971244812,-1.1236481666564941,-0.07403383404016495,0.0009332895278930664,-0.05058473348617554
0.09937075525522232,-0.7121366858482361,-1.1528351306915283,-0.08322906494140625,0.0073397159576416016,-0.0705873966217041
0.2622947692871094,-0.7151830196380615,-1.1976161003112793,-0.09287497401237488,0.01705452799797058,-0.06296944618225098
0.32930463552474976,-0.7487466335296631,-1.2402198314666748,-0.10342628508806229,0.02284717559814453,-0.026220381259918213
0.2598564028739929,-0.7726029753684998,-1.270052433013916,-0.11126497387886047,0.02054467797279358,0.02767258882522583
0.14238262176513672,-0.7780491709709167,-1.2870334386825562,-0.1149396225810051,0.016283631324768066,0.0610540509223938
0.10533259809017181,-0.7729465365409851,-1.3319356441497803,-0.11990422755479813,0.02915671467781067,0.03191983699798584
0.16057464480400085,-0.7973116040229797,-1.3912153244018555,-0.1300095021724701,0.0402088463306427,-0.02617049217224121
0.2277209460735321,-0.7712863683700562,-1.496395230293274,-0.14219805598258972,0.059864819049835205,-0.07347780466079712
0.1914832442998886,-0.6900476813316345,-1.5830940008163452,-0.1425454318523407,0.07754939794540405,-0.09393453598022461
0.1063212975859642,-0.6875808238983154,-1.6126919984817505,-0.11725211143493652,0.08277955651283264,-0.12401103973388672
0.2021915167570114,-0.9139334559440613,-1.6840839385986328,-0.13450473546981812,0.0831986665725708,-0.22942137718200684
0.35562998056411743,-1.1986734867095947,-1.826338768005371,-0.1983357071876526,0.09259161353111267,-0.2857774496078491
0.43406927585601807,-1.3472965955734253,-2.033371925354004,-0.2718644142150879,0.1005755364894867,-0.2695160508155823
0.4058249890804291,-1.266445517539978,-2.209874153137207,-0.31511926651000977,0.10831546783447266,-0.2368021011352539
0.3831852078437805,-1.046091079711914,-2.3259241580963135,-0.2897356450557709,0.1357395052909851,-0.2489747405052185
0.49086612462997437,-0.9357031583786011,-2.3929834365844727,-0.22513481974601746,0.19073417782783508,-0.32319146394729614
0.6621018648147583,-1.011828899383545,-2.4673728942871094,-0.2024705410003662,0.23916441202163696,-0.3835979700088501
0.7320963144302368,-1.1092495918273926,-2.579174041748047,-0.20867952704429626,0.2855296730995178,-0.37064027786254883
0.6729995608329773,-1.0794025659561157,-2.6763546466827393,-0.21331286430358887,0.32166439294815063,-0.31651341915130615
0.6684327125549316,-1.0040764808654785,-2.703481674194336,-0.18351536989212036,0.3497571349143982,-0.3223907947540283
0.8148449063301086,-0.9961047768592834,-2.7206308841705322,-0.14593058824539185,0.39040571451187134,-0.3852471113204956
1.0380624532699585,-1.1596213579177856,-2.79121994972229,-0.13561302423477173,0.4453871250152588,-0.42202407121658325
1.1995313167572021,-1.4361833333969116,-2.906977891921997,-0.12183111906051636,0.5020433664321899,-0.368965744972229
1.231345772743225,-1.6868343353271484,-2.9800331592559814,-0.12718212604522705,0.5204343795776367,-0.2459810972213745
1.078213095664978,-1.901361107826233,-2.970705509185791,-0.13598598539829254,0.5043466091156006,-0.09114539623260498
0.7737419605255127,-2.0151102542877197,-2.9009761810302734,-0.14209988713264465,0.4810728430747986,0.0460360050201416
0.5125462412834167,-1.9580821990966797,-2.805636405944824,-0.18080833554267883,0.44536590576171875,0.10430610179901123
0.41188639402389526,-1.7800410985946655,-2.7114639282226562,-0.21368473768234253,0.4176664352416992,0.06647622585296631
0.41301900148391724,-1.5799256563186646,-2.6607584953308105,-0.2390107661485672,0.3986273407936096,-0.009630799293518066
0.41949743032455444,-1.4057695865631104,-2.6262495517730713,-0.2525098919868469,0.38092857599258423,-0.07101088762283325
0.4174576699733734,-1.3730756044387817,-2.5917046070098877,-0.22788679599761963,0.3624458312988281,-0.1348850131034851
0.4119492173194885,-1.4367858171463013,-2.535858631134033,-0.21140432357788086,0.32695096731185913,-0.191825270652771
0.3306201100349426,-1.5549207925796509,-2.4655017852783203,-0.18908731639385223,0.29980963468551636,-0.20994198322296143
0.20507842302322388,-1.6508244276046753,-2.3723256587982178,-0.1684333235025406,0.2799043655395508,-0.2189585566520691
0.1456213742494583,-1.7013120651245117,-2.2766664028167725,-0.1326896995306015,0.27589941024780273,-0.24560141563415527
0.22061267495155334,-1.686318039894104,-2.2059433460235596,-0.1371127814054489,0.26804041862487793,-0.28132718801498413
0.32411813735961914,-1.6432794332504272,-2.1603505611419678,-0.14501428604125977,0.26833176612854004,-0.2849615216255188
0.34251174330711365,-1.613952398300171,-2.121283769607544,-0.14985162019729614,0.2701285481452942,-0.2408980131149292
0.3003074824810028,-1.636189579963684,-2.049506664276123,-0.1386098712682724,0.25766026973724365,-0.19165551662445068
0.18101412057876587,-1.6858128309249878,-1.9402750730514526,-0.10628141462802887,0.24144160747528076,-0.14132219552993774
0.006795216351747513,-1.7152454853057861,-1.8542847633361816,-0.09835365414619446,0.22472411394119263,-0.08614569902420044
-0.11370976269245148,-1.7070448398590088,-1.7901369333267212,-0.081027552485466,0.21780085563659668,-0.06275904178619385
-0.12992845475673676,-1.6557328701019287,-1.764275074005127,-0.0891483873128891,0.2053133249282837,-0.07240557670593262
-0.08469041436910629,-1.6162102222442627,-1.7467092275619507,-0.07594655454158783,0.20336991548538208,-0.08784842491149902
-0.042122580111026764,-1.5824772119522095,-1.71523118019104,-0.04667877405881882,0.1976335048675537,-0.08453911542892456
-0.07636040449142456,-1.4988744258880615,-1.631471872329712,-0.022920697927474976,0.17060697078704834,-0.04340958595275879
-0.15621204674243927,-1.3700377941131592,-1.5140973329544067,-0.0013170242309570312,0.1479628086090088,-0.0005114078521728516
-0.20348016917705536,-1.222706913948059,-1.4322222471237183,-0.011067867279052734,0.12751555442810059,0.00010281801223754883
-0.15340092778205872,-1.1350054740905762,-1.4433677196502686,-0.03763851523399353,0.1296345591545105,-0.0397607684135437
-0.05396468937397003,-1.09352707862854,-1.4935991764068604,-0.04893706738948822,0.13231533765792847,-0.08617323637008667
0.02401457354426384,-0.9897112250328064,-1.4977164268493652,-0.027618497610092163,0.12070813775062561,-0.10029345750808716
0.02683977037668228,-0.9002559185028076,-1.4183168411254883,0.0149005725979805,0.09042343497276306,-0.09846895933151245
-0.057629987597465515,-0.7721551060676575,-1.2464046478271484,0.04802502691745758,0.047112345695495605,-0.09347867965698242
-0.20305146276950836,-0.676521897315979,-1.0825321674346924,0.08925323188304901,0.04811161756515503,-0.09977012872695923
-0.23759683966636658,-0.7896432876586914,-1.0225111246109009,0.1194191575050354,0.0832071304321289,-0.15437138080596924
-0.057156745344400406,-1.004931092262268,-1.0222386121749878,0.11375486850738525,0.09292098879814148,-0.21395444869995117
0.11387760192155838,-1.0329874753952026,-1.0318717956542969,0.11100965738296509,0.09121817350387573,-0.1741098165512085
0.13628362119197845,-0.8980265259742737,-0.9429163932800293,0.13251708447933197,0.07640331983566284,-0.04701000452041626
0.05569416284561157,-0.7873733043670654,-0.7888845801353455,0.15434731543064117,0.0489388108253479,0.05169856548309326
-0.1187024638056755,-0.731216549873352,-0.6705843806266785,0.1361941397190094,0.027800709009170532,0.11593985557556152
-0.31072986125946045,-0.7256869077682495,-0.6148728728294373,0.11802685260772705,0.018097102642059326,0.13054847717285156
-0.4434635639190674,-0.6718299388885498,-0.6287495493888855,0.10855291783809662,0.013700723648071289,0.09322899580001831
-0.5234256386756897,-0.5335438251495361,-0.7063450813293457,0.10269723832607269,0.016468852758407593,0.04582566022872925
-0.525567889213562,-0.41061970591545105,-0.7614619135856628,0.13438141345977783,0.013782471418380737,-0.014881789684295654
-0.4781353771686554,-0.33327338099479675,-0.7430996894836426,0.1918479949235916,0.002771347761154175,-0.06987422704696655
-0.3741285502910614,-0.33787935972213745,-0.733710765838623,0.21935084462165833,0.0015700459480285645,-0.10591262578964233
-0.20348140597343445,-0.3886142373085022,-0.7686409950256348,0.20529180765151978,0.0034327805042266846,-0.11599588394165039
0.023959403857588768,-0.42141106724739075,-0.8131952285766602,0.18175718188285828,-0.0076525211334228516,-0.09408313035964966
0.14830753207206726,-0.3772486448287964,-0.8365204334259033,0.16157452762126923,-0.020185649394989014,-0.019448280334472656
0.15436020493507385,-0.2589842975139618,-0.8292551636695862,0.14557160437107086,-0.03607127070426941,0.08709019422531128
0.06469102948904037,-0.13029520213603973,-0.7792637348175049,0.13831594586372375,-0.06634458899497986,0.16394054889678955
-0.053776346147060394,-0.01615547575056553,-0.713772177696228,0.10912702977657318,-0.09404844045639038,0.20270895957946777
-0.12262805551290512,0.09149864315986633,-0.5799001455307007,0.16388358175754547,-0.09749230742454529,0.18960988521575928
-0.15917013585567474,0.16623221337795258,-0.41731730103492737,0.16691821813583374,-0.11054286360740662,0.15798813104629517
-0.15878134965896606,0.19281023740768433,-0.28520119190216064,0.15048269927501678,-0.11356842517852783,0.12360191345214844
-0.07975474745035172,0.1549026072025299,-0.20784036815166473,0.12705984711647034,-0.10108011960983276,0.07939785718917847
-0.032376132905483246,0.08410658687353134,-0.15548616647720337,0.1083376556634903,-0.09991255402565002,0.06312066316604614
-0.06697290390729904,0.01429062895476818,-0.06919248402118683,0.10393263399600983,-0.10535967350006104,0.09051531553268433
-0.11443274468183517,0.0023487303406000137,0.07188619673252106,0.12017132341861725,-0.11539691686630249,0.10574638843536377
-0.11078756302595139,0.020532965660095215,0.1876416802406311,0.11255384981632233,-0.11814224720001221,0.09858071804046631
-0.07195951044559479,0.012179240584373474,0.2313302904367447,0.09054137766361237,-0.10203957557678223,0.07773560285568237
-0.018742498010396957,-0.05554088577628136,0.2571928799152374,0.07648327946662903,-0.09310325980186462,0.05821579694747925
0.01668555475771427,-0.16754409670829773,0.31551188230514526,0.07143913209438324,-0.10197022557258606,0.04642200469970703
0.01469696220010519,-0.2120310217142105,0.3665844202041626,0.06929582357406616,-0.10910558700561523,0.03748446702957153
0.03495176136493683,-0.18201899528503418,0.3802521526813507,0.05788370594382286,-0.0967734158039093,0.016033828258514404
0.09561430662870407,-0.14092056453227997,0.368013858795166,0.058581139892339706,-0.07841798663139343,-0.0205346941947937
0.145588219165802,-0.16716022789478302,0.357926607131958,0.05097290873527527,-0.08189362287521362,-0.04108315706253052
0.07120636105537415,-0.03864530846476555,0.3521362245082855,0.015006333589553833,-0.11253654956817627,-0.013533294200897217
-0.05343528836965561,0.07838460803031921,0.35372593998908997,0.004718691110610962,-0.10830628871917725,-0.013392031192779541
-0.17086955904960632,0.12115062773227692,0.41013699769973755,0.01758691482245922,-0.11540216207504272,-0.05006462335586548
-0.20243513584136963,-0.011125674471259117,0.41503360867500305,0.017537906765937805,-0.11007529497146606,-0.11950647830963135
-0.1948898881673813,-0.11608728021383286,0.36505165696144104,-0.018776580691337585,-0.09591811895370483,-0.15417629480361938
-0.1319601833820343,-0.12436234951019287,0.30964237451553345,-0.04084828495979309,-0.0702829360961914,-0.14842700958251953
-0.006158867385238409,-0.024328749626874924,0.2614765465259552,-0.05134652554988861,-0.03853735327720642,-0.12338024377822876
0.15361301600933075,0.16921792924404144,0.21994537115097046,-0.07472255825996399,-0.01584029197692871,-0.0868268609046936
0.2946871221065521,0.2970661222934723,0.1392308920621872,-0.09299074113368988,0.014199554920196533,-0.04953408241271973
0.4383287727832794,0.2822306454181671,0.043929461389780045,-0.10065743327140808,0.051740825176239014,-0.03728419542312622
0.4545319676399231,0.21954812109470367,0.012106815353035927,-0.10146205127239227,0.05985605716705322,0.032728731632232666
0.266021192073822,0.23823285102844238,0.030541859567165375,-0.09231577813625336,0.06651648879051208,0.08339583873748779
0.028364846482872963,0.2982102930545807,0.09596115350723267,-0.057994768023490906,0.08549505472183228,0.054174721240997314
-0.0680132806301117,0.379329115152359,0.18692615628242493,-0.02404625713825226,0.11284899711608887,-0.058441102504730225
-0.015277981758117676,0.45434993505477905,0.2533382773399353,0.010737285017967224,0.1562296450138092,-0.16374224424362183
0.10229688137769699,0.4306609034538269,0.2912488579750061,0.025385797023773193,0.18872681260108948,-0.23332500457763672
0.26859602332115173,0.22421936690807343,0.28850334882736206,0.013291984796524048,0.21377921104431152,-0.23696613311767578
0.34948796033859253,-0.01394436415284872,0.25688445568084717,-0.028099611401557922,0.22051870822906494,-0.12882757186889648
0.24487927556037903,-0.0757971853017807,0.2376321703195572,-0.06540559232234955,0.21826636791229248,0.0204123854637146
0.06819706410169601,0.07276589423418045,0.22944770753383636,-0.08013047277927399,0.20843258500099182,0.08787411451339722
0.006338278762996197,0.26617684960365295,0.2633051574230194,-0.07850275933742523,0.19717296957969666,0.05309402942657471
0.08940979093313217,0.3844325840473175,0.268388569355011,-0.07532991468906403,0.19506123661994934,-0.015590667724609375
0.19987964630126953,0.4088861346244812,0.21176539361476898,-0.08075426518917084,0.1898733675479889,-0.04577076435089111
0.2786532938480377,0.34999072551727295,0.14686155319213867,-0.053232595324516296,0.16333726048469543,-0.04390925168991089
0.28378963470458984,0.3166998326778412,0.18717430531978607,0.00137387216091156,0.13507044315338135,-0.03472954034805298
0.26367640495300293,0.29226595163345337,0.2888393998146057,0.01056671142578125,0.10558876395225525,-0.03481459617614746
0.22653134167194366,0.34102508425712585,0.3507106602191925,-0.02194693684577942,0.0840824544429779,-0.0393405556678772
0.1703820675611496,0.4207698702812195,0.3450595438480377,-0.048476412892341614,0.04169550538063049,-0.06189543008804321
0.09665703773498535,0.48462429642677307,0.34739169478416443,-0.015652284026145935,0.012230455875396729,-0.09799456596374512
0.05345499888062477,0.41155919432640076,0.349537193775177,0.037987008690834045,0.008830428123474121,-0.12664061784744263
0.02290618047118187,0.12374649941921234,0.31804344058036804,0.08669976890087128,0.007928460836410522,-0.11269974708557129
0.004961383994668722,-0.2772068679332733,0.302993506193161,0.11514969170093536,-0.007244616746902466,-0.046244919300079346
-0.031198253855109215,-0.5051645636558533,0.31761932373046875,0.07855400443077087,-0.03949570655822754,0.06423211097717285
-0.10699773579835892,-0.5066450238227844,0.2738025486469269,0.014832854270935059,-0.047088444232940674,0.1696377992630005
-0.25489383935928345,-0.3616971969604492,0.1667403131723404,-0.024378567934036255,-0.052120089530944824,0.24351191520690918
-0.3299795389175415,-0.13698948919773102,0.06041618436574936,-0.04378235340118408,-0.07381677627563477,0.24345046281814575
-0.2715282440185547,0.0639548972249031,-0.05285964161157608,-0.0326673686504364,-0.08030009269714355,0.19466698169708252
-0.17719869315624237,0.21048203110694885,-0.13463422656059265,0.006940588355064392,-0.07548457384109497,0.17037057876586914
-0.08645834773778915,0.3394029438495636,-0.1388869732618332,0.03180819749832153,-0.0852171778678894,0.15582972764968872
-0.04435064271092415,0.35881492495536804,-0.10248011350631714,0.03735320270061493,-0.08493384718894958,0.1608964204788208
-0.08583372831344604,0.2886551320552826,-0.07495242357254028,0.014088869094848633,-0.07567089796066284,0.17929142713546753
-0.1577853262424469,0.17698067426681519,-0.07153285294771194,-0.015558689832687378,-0.0675663948059082,0.1825103759765625
-0.18382520973682404,0.03540936857461929,-0.10206592082977295,-0.029735445976257324,-0.07264167070388794,0.16264772415161133
-0.16097180545330048,-0.05895732343196869,-0.12246239930391312,-0.025137536227703094,-0.07788929343223572,0.15859323740005493
-0.1245606392621994,-0.05492384359240532,-0.12236659973859787,-0.02053569257259369,-0.09110140800476074,0.17528867721557617
-0.1310592144727707,0.011070706881582737,-0.08576422929763794,-0.024744912981987,-0.11052888631820679,0.19868230819702148
-0.19476905465126038,0.04959318786859512,-0.07198990136384964,-0.035505786538124084,-0.11708259582519531,0.2032221555709839
-0.2618180215358734,0.010415730066597462,-0.12695351243019104,-0.04728104919195175,-0.11956807971000671,0.16689902544021606
-0.2679792046546936,-0.06021241471171379,-0.1702420711517334,-0.03344906121492386,-0.13198569416999817,0.11508917808532715
-0.21821238100528717,-0.10561472177505493,-0.21867313981056213,-0.0249737948179245,-0.14958840608596802,0.06452041864395142
-0.13308988511562347,-0.1509561389684677,-0.25877898931503296,0.012429788708686829,-0.15597862005233765,0.042729973793029785
-0.12070896476507187,-0.1384325474500656,-0.22661131620407104,0.047671131789684296,-0.17273631691932678,0.06489431858062744
-0.19747470319271088,-0.12211418151855469,-0.15345759689807892,0.06539766490459442,-0.18874308466911316,0.08495074510574341
-0.30522745847702026,-0.19761228561401367,-0.07792641967535019,0.05211593210697174,-0.20180019736289978,0.070670485496521
-0.3939904272556305,-0.16168159246444702,-0.04568493738770485,-0.011332795023918152,-0.24022376537322998,0.04794919490814209
-0.42809247970581055,0.11629714071750641,-0.05714661628007889,0.049095191061496735,-0.17819717526435852,-0.053417861461639404
-0.4193522036075592,0.3493107855319977,0.04045560583472252,0.15293645858764648,-0.14418673515319824,-0.19333261251449585
-0.32104331254959106,0.32701051235198975,0.24553051590919495,0.19171097874641418,-0.12132486701011658,-0.3329443335533142
-0.2266538292169571,0.08333998918533325,0.34940463304519653,0.16142785549163818,-0.06674554944038391,-0.39049452543258667
-0.2428097128868103,-0.19671018421649933,0.3694576025009155,0.10520613193511963,-0.005798310041427612,-0.3490852117538452
-0.2915746569633484,-0.41646620631217957,0.34809446334838867,0.08009155094623566,0.05804559588432312,-0.29378795623779297
-0.25461864471435547,-0.5607761740684509,0.2992521822452545,0.05102036893367767,0.09718668460845947,-0.23495924472808838
-0.10881064832210541,-0.5814051628112793,0.2684960961341858,0.016314953565597534,0.11424535512924194,-0.17138028144836426
0.0810159221291542,-0.5157588720321655,0.235677108168602,-0.014638394117355347,0.1245836615562439,-0.09005868434906006
0.17744874954223633,-0.38095414638519287,0.220697283744812,-0.031614914536476135,0.12628966569900513,-0.0008856654167175293
0.13208365440368652,-0.1908901035785675,0.22773419320583344,-0.0152997225522995,0.1253526210784912,0.05186259746551514
0.025137929245829582,-0.06267700344324112,0.29360464215278625,0.015056014060974121,0.1185307502746582,0.0432092547416687
0.002592463046312332,-0.014077561907470226,0.34404683113098145,0.022864729166030884,0.12800249457359314,-0.02113240957260132
0.03422263637185097,-0.026558218523859978,0.33580607175827026,0.02528698742389679,0.14659523963928223,-0.05527293682098389
0.0731569305062294,-0.1183842271566391,0.31731435656547546,0.03983476758003235,0.14440256357192993,-0.05256998538970947
0.08909841626882553,-0.21194365620613098,0.3312359154224396,0.034873947501182556,0.12130701541900635,-0.0033178329467773438
0.06977589428424835,-0.24690128862857819,0.35769838094711304,0.0263403058052063,0.10690933465957642,0.06406164169311523
0.0465589314699173,-0.17911501228809357,0.3724583685398102,0.012017503380775452,0.09445720911026001,0.10437750816345215
0.062018681317567825,-0.047209423035383224,0.3737456202507019,0.015473723411560059,0.08586728572845459,0.12146002054214478
0.08721090853214264,0.11132544279098511,0.35322436690330505,0.017805367708206177,0.07724148035049438,0.1208944320678711
0.11034171283245087,0.2111043930053711,0.3348032534122467,0.041285887360572815,0.0722791850566864,0.11106538772583008
0.0975818857550621,0.24095827341079712,0.3292211890220642,0.05573238432407379,0.05866038799285889,0.11241567134857178
0.031744908541440964,0.22644498944282532,0.35608404874801636,0.07975181937217712,0.04039108753204346,0.12717366218566895
-0.03452057018876076,0.23834867775440216,0.39846059679985046,0.08719389140605927,0.024838656187057495,0.13313943147659302
-0.0539926141500473,0.3233959376811981,0.4458591639995575,0.09511566162109375,0.01383674144744873,0.12166780233383179
-0.005675908178091049,0.44587504863739014,0.487782746553421,0.0919572114944458,0.001367330551147461,0.09654277563095093
0.1224377229809761,0.4987459182739258,0.5257346034049988,0.07886804640293121,-0.008251726627349854,0.06926631927490234
0.1917891949415207,0.5217261910438538,0.554563581943512,0.05918152630329132,-0.014428645372390747,0.09727334976196289
0.13422822952270508,0.605570375919342,0.599666178226471,0.03754234313964844,-0.023589670658111572,0.13940680027008057
0.017853612080216408,0.756805419921875,0.6529889106750488,0.01986578106880188,-0.027502596378326416,0.14633560180664062
-0.09158636629581451,0.8937782645225525,0.704148530960083,0.004456907510757446,-0.022699028253555298,0.1006615161895752
-0.13193552196025848,0.9861159920692444,0.7363498210906982,-0.0025521963834762573,-0.0036712288856506348,0.023436427116394043
-0.1109965369105339,1.0123569965362549,0.7220151424407959,-0.019998714327812195,0.013812720775604248,-0.055281221866607666
-0.07433003187179565,0.9825481176376343,0.6370954513549805,-0.05822207033634186,0.013586550951004028,-0.10357987880706787
-0.15582633018493652,0.970173180103302,0.47004997730255127,-0.08077223598957062,0.009237676858901978,-0.13262373208999634
-0.2414301186800003,0.9070402383804321,0.2985614240169525,-0.0253240168094635,-0.005096763372421265,-0.2127244472503662
-0.15375687181949615,0.7739011645317078,0.2972118854522705,0.07810530066490173,-0.06531113386154175,-0.3036581873893738
-0.018361413851380348,0.938150942325592,0.5496636033058167,0.1769520342350006,-0.08963143825531006,-0.3203427195549011
0.08701449632644653,1.0960246324539185,0.8100000619888306,0.21119023859500885,-0.05054187774658203,-0.3207141160964966
0.2083766609430313,0.9465690851211548,0.9603070616722107,0.1612679660320282,-0.03178071975708008,-0.2916679382324219
0.19517749547958374,0.794818103313446,1.1140574216842651,0.14157995581626892,0.008173704147338867,-0.19074320793151855
0.14823421835899353,0.49183136224746704,1.2213358879089355,0.12253774702548981,0.06002289056777954,-0.12018740177154541
0.14436116814613342,0.1400555819272995,1.252258539199829,0.05627019703388214,0.07266855239868164,-0.027033567428588867
0.1066974550485611,0.029901841655373573,1.226881742477417,-0.004324078559875488,0.07750248908996582,0.0927470326423645
0.006570007652044296,0.1566501408815384,1.1803957223892212,-0.03606770187616348,0.07711654901504517,0.168765127658844
-0.10048546642065048,0.3785698115825653,1.1396058797836304,-0.038670748472213745,0.07304826378822327,0.16928398609161377
-0.10204218327999115,0.49918732047080994,1.073231816291809,-0.03536924719810486,0.08512580394744873,0.10042411088943481
-0.03633374348282814,0.4092707633972168,0.991288423538208,-0.03715796768665314,0.08949115872383118,0.055810749530792236
0.025884635746479034,0.2086416333913803,0.9271944761276245,-0.039411649107933044,0.08692774176597595,0.06501924991607666
0.05848371237516403,0.10314549505710602,0.9049924612045288,-0.061083100736141205,0.0710732638835907,0.12295836210250854
-0.009956730529665947,0.13892287015914917,0.8824154734611511,-0.0869888961315155,0.06042522192001343,0.19131100177764893
-0.12498711049556732,0.22102954983711243,0.8882008194923401,-0.08230719715356827,0.04442515969276428,0.20509761571884155
-0.1992490589618683,0.23346896469593048,0.8816395401954651,-0.08683840930461884,0.03179293870925903,0.16129225492477417
-0.24277591705322266,0.13337622582912445,0.8156008720397949,-0.1142282783985138,0.034108638763427734,0.1272217035293579
-0.23969897627830505,0.024731915444135666,0.6661439538002014,-0.13660860061645508,0.02831345796585083,0.10778021812438965
-0.2265530824661255,-0.05113169178366661,0.5346583724021912,-0.13131976127624512,0.01242154836654663,0.11866754293441772
-0.23883108794689178,-0.06717702001333237,0.44308948516845703,-0.1141132265329361,-0.009799987077713013,0.14299100637435913
-0.2660177946090698,-0.03762473911046982,0.3939736485481262,-0.10561749339103699,-0.03779268264770508,0.14573901891708374
-0.2155863344669342,-0.03524642437696457,0.3308171331882477,-0.12684175372123718,-0.06179514527320862,0.10282588005065918
-0.12477513402700424,-0.10252068936824799,0.20963580906391144,-0.14803294837474823,-0.070588618516922,0.07426285743713379
-0.041242025792598724,-0.10861247032880783,0.05893603339791298,-0.1685025840997696,-0.08340239524841309,0.05415141582489014
0.033631131052970886,-0.08021615445613861,-0.06265613436698914,-0.15094679594039917,-0.09216117858886719,0.030417978763580322
0.07187045365571976,-0.0064371791668236256,-0.12414304167032242,-0.11585327982902527,-0.10469406843185425,0.0035248994827270508
0.04424518346786499,0.02660500444471836,-0.14820995926856995,-0.08957812190055847,-0.10908102989196777,-0.02567976713180542
-0.08914677798748016,-0.07981862872838974,-0.17982107400894165,-0.0714474767446518,-0.10366207361221313,-0.05489999055862427
-0.2696530520915985,-0.29933682084083557,-0.18809357285499573,-0.09897847473621368,-0.14137017726898193,-0.10426074266433716
-0.4123974144458771,-0.28646522760391235,-0.2167814075946808,-0.12571610510349274,-0.12643668055534363,-0.1729004979133606
-0.4256611168384552,-0.2212926298379898,-0.32783472537994385,-0.13581973314285278,-0.0786135196685791,-0.2962007522583008
-0.22847792506217957,-0.23378898203372955,-0.4916846752166748,-0.1467730700969696,-0.042622923851013184,-0.40298211574554443
-0.0017258906736969948,-0.3368456959724426,-0.6521211266517639,-0.14261530339717865,-0.013264745473861694,-0.3983198404312134
0.1034274473786354,-0.4039265513420105,-0.8178352117538452,-0.12213213741779327,0.0205000638961792,-0.3118966221809387
0.14855965971946716,-0.4593363404273987,-0.9118637442588806,-0.07614856958389282,0.04745650291442871,-0.2366405725479126
0.29359740018844604,-0.6135441064834595,-0.9602976441383362,-0.0715482234954834,0.06069803237915039,-0.17321693897247314
0.39832210540771484,-0.6721151471138,-1.0431711673736572,-0.11964547634124756,0.06526428461074829,-0.048762619495391846
0.3886517882347107,-0.49513134360313416,-1.1113512516021729,-0.12611208856105804,0.07497698068618774,0.0447843074798584
0.2916097342967987,-0.17339807748794556,-1.1242034435272217,-0.10629190504550934,0.08058550953865051,0.05449718236923218
0.2589866518974304,0.04128188267350197,-1.0866444110870361,-0.06691053509712219,0.09830313920974731,-0.025325298309326172
0.27435219287872314,0.039386264979839325,-1.0470536947250366,-0.032270628958940506,0.1269448697566986,-0.10780680179595947
0.3183972239494324,-0.1628217101097107,-1.035857915878296,-0.016620099544525146,0.16221368312835693,-0.15047800540924072
0.37675940990448,-0.404839426279068,-1.0418392419815063,-0.012301385402679443,0.1857372522354126,-0.13067805767059326
0.35370051860809326,-0.5434752106666565,-1.0442405939102173,-0.005264226347208023,0.20271751284599304,-0.06022673845291138
0.36848023533821106,-0.5656459331512451,-1.0266265869140625,-0.004946425557136536,0.20159482955932617,-0.010944068431854248
0.4859544038772583,-0.5418861508369446,-0.9671328663825989,-0.014584794640541077,0.19404816627502441,0.03447568416595459
0.6145420074462891,-0.4738525152206421,-0.9215683937072754,-0.048260945826768875,0.18390896916389465,0.10122746229171753
0.6519131064414978,-0.44020795822143555,-0.8856531977653503,-0.05806547403335571,0.1921687126159668,0.17203712463378906
