rotation_x,rotation_y,rotation_z,acceleration_x,acceleration_y,acceleration_z
-0.08276005834341049,-0.6798681616783142,-0.7559953331947327,0.0731579065322876,-0.04283803701400757,0.10112321376800537
-0.014415878802537918,-0.6707804799079895,-0.618858277797699,0.10408246517181396,-0.06899130344390869,0.03853088617324829
0.05725311487913132,-0.4606645405292511,-0.5470889806747437,0.08119051158428192,-0.07225590944290161,0.0037931203842163086
0.040668923407793045,-0.4050910472869873,-0.4783761203289032,0.06896016001701355,-0.05662614107131958,0.05272561311721802
-0.05375495180487633,-0.4314383268356323,-0.4885435402393341,0.0020648986101150513,-0.03476959466934204,0.11184340715408325
-0.06863925606012344,-0.471118301153183,-0.5201109051704407,-0.04631742835044861,-0.0307500958442688,0.10484975576400757
-0.06707974523305893,-0.5220676064491272,-0.521934449672699,-0.020169392228126526,-0.0639193058013916,0.06958925724029541
-0.08188586682081223,-0.4342193603515625,-0.44865480065345764,0.029950406402349472,-0.10014480352401733,0.04141777753829956
0.001740054227411747,-0.33270177245140076,-0.3890465795993805,-0.01196703314781189,-0.07678347826004028,0.015250205993652344
0.03692520409822464,-0.3029952943325043,-0.35936886072158813,-0.018839482218027115,-0.06627488136291504,0.059544384479522705
-0.015887685120105743,-0.3373939096927643,-0.3643922805786133,-0.039773017168045044,-0.07906943559646606,0.1470029354095459
-0.11434128135442734,-0.32290107011795044,-0.32175198197364807,-0.020831361413002014,-0.07830852270126343,0.1785098910331726
-0.18543978035449982,-0.27561596035957336,-0.2903697192668915,-0.022387832403182983,-0.09755003452301025,0.14088034629821777
-0.17162172496318817,-0.21011139452457428,-0.214443176984787,-0.005406811833381653,-0.10234522819519043,0.07502055168151855
-0.1935681849718094,-0.18492884933948517,-0.22334179282188416,-0.03886610269546509,-0.0986282229423523,0.07726746797561646
-0.14167878031730652,-0.17362120747566223,-0.22586406767368317,-0.0529702752828598,-0.09279322624206543,0.0634993314743042
-0.09460300952196121,-0.20144343376159668,-0.22552113234996796,-0.041868001222610474,-0.09172660112380981,0.09561079740524292
-0.05216411501169205,-0.12242696434259415,-0.2541833221912384,-0.065032958984375,-0.09158468246459961,0.12354087829589844
-0.14173614978790283,-0.13391360640525818,-0.2901812493801117,-0.05634589493274689,-0.11059945821762085,0.16867947578430176
-0.18867625296115875,-0.15236392617225647,-0.2833060622215271,-0.03965510427951813,-0.11590135097503662,0.15556538105010986
-0.023122085258364677,-0.06914423406124115,-0.23915746808052063,-0.04233528673648834,-0.13123416900634766,0.04554194211959839
0.04372556880116463,-0.03753465414047241,-0.20794853568077087,-0.07681313157081604,-0.12038052082061768,0.04947316646575928
-0.011813856661319733,-0.007017491851001978,-0.21479499340057373,-0.0808071494102478,-0.1365550458431244,0.09364467859268188
-0.05851436406373978,-0.010195678099989891,-0.2224266231060028,-0.07540948688983917,-0.14702650904655457,0.12305480241775513
-0.10419785976409912,-0.07486168295145035,-0.2314918488264084,-0.08662721514701843,-0.1452133059501648,0.12558388710021973
-0.12167267501354218,-0.14269505441188812,-0.1738511025905609,-0.05778580904006958,-0.1761888861656189,0.05721372365951538
-0.052250321954488754,0.0033992829266935587,-0.11536774039268494,-0.06747061014175415,-0.1695924997329712,0.03544330596923828
-0.12637437880039215,0.02175559476017952,-0.14040791988372803,-0.07928474247455597,-0.16271474957466125,0.0415918231010437
-0.10315804183483124,-0.036437731236219406,-0.1865110546350479,-0.09287752211093903,-0.15433883666992188,-0.008268952369689941
0.05900060385465622,-0.010815544053912163,-0.2536450922489166,-0.10647882521152496,-0.14977627992630005,-0.02682185173034668
0.19169320166110992,-0.003012364264577627,-0.18222399055957794,-0.06223629415035248,-0.1802666187286377,0.01926445960998535
-0.04655470699071884,-0.007049968931823969,-0.07262522727251053,-0.031104370951652527,-0.20170187950134277,0.14645373821258545
-0.5238460302352905,0.01417805440723896,0.05468113347887993,0.009484406560659409,-0.14567798376083374,0.13246911764144897
-0.7313704490661621,-0.12016355246305466,-0.04521510377526283,-0.048952966928482056,-0.07778933644294739,-0.08867353200912476
-0.3746916651725769,-0.15832775831222534,-0.1895752102136612,-0.047927796840667725,-0.040394365787506104,-0.30880141258239746
0.1995934098958969,-0.007272740826010704,-0.2945011854171753,-0.04325851798057556,-0.027318984270095825,-0.36909931898117065
0.4491288959980011,0.09582080692052841,-0.3067963123321533,-0.013127952814102173,-0.004738152027130127,-0.16775649785995483
0.18184682726860046,-0.06896350532770157,-0.20855538547039032,0.053022414445877075,0.011290669441223145,0.0073760151863098145
-0.1281862109899521,-0.15687301754951477,-0.11611147224903107,0.0639132559299469,0.04646119475364685,0.021621227264404297
-0.22991448640823364,-0.20220227539539337,-0.03648659214377403,0.05948194861412048,0.06168776750564575,-0.04583847522735596
-0.16118432581424713,-0.08723609149456024,0.040476638823747635,0.10243315994739532,0.06385675072669983,-0.04982489347457886
-0.02043130435049534,0.18185032904148102,0.10819336026906967,0.10469843447208405,0.05764627456665039,-0.014258265495300293
0.011551635339856148,0.24914473295211792,0.23156298696994781,0.12320499122142792,0.05168744921684265,0.030529916286468506
-0.2387467920780182,0.17845198512077332,0.34844717383384705,0.15774069726467133,0.03288525342941284,0.10059785842895508
-0.3402402102947235,0.13032960891723633,0.3509431481361389,0.12315121293067932,0.04072004556655884,0.027575433254241943
-0.28360098600387573,0.10520143806934357,0.2224498838186264,0.06632362306118011,0.03980091214179993,-0.05427151918411255
-0.11553286761045456,0.09483443945646286,0.12846845388412476,0.0732697993516922,0.008135676383972168,-0.06685280799865723
0.07821405678987503,0.19066926836967468,0.12501992285251617,0.090013787150383,-0.0033188462257385254,-0.0258176326751709
0.07499932497739792,0.18081936240196228,0.15441323816776276,0.05553145706653595,0.004021942615509033,0.07710063457489014
-0.025250045582652092,0.015239980071783066,0.1992827206850052,0.023215681314468384,0.033944010734558105,0.12421977519989014
-0.0491904653608799,-0.22387166321277618,0.2294502854347229,0.01500270888209343,0.043868958950042725,0.11235755681991577
0.07495060563087463,-0.23129503428936005,0.16783742606639862,-0.03441016376018524,0.029282301664352417,0.05332380533218384
0.13714534044265747,-0.023338129743933678,0.13898473978042603,0.017981693148612976,-0.006185382604598999,0.06323504447937012
0.09735754132270813,0.1473873406648636,0.15276890993118286,0.030375197529792786,-0.03361779451370239,0.07089483737945557
-0.04579898715019226,0.03942457586526871,0.1589338630437851,-0.0028964150696992874,-0.0024249255657196045,0.11817586421966553
-0.10076795518398285,-0.17571473121643066,0.1593276560306549,-0.006446823477745056,0.007085323333740234,0.1040002703666687
-0.019910341128706932,-0.2177109718322754,0.18392939865589142,0.014591975137591362,-0.007409095764160156,0.018934190273284912
0.08047556132078171,-0.10534902662038803,0.16962893307209015,0.02699841558933258,-0.05008000135421753,-0.012248635292053223
0.12867377698421478,-0.07428675889968872,0.18811899423599243,0.04350753128528595,-0.0653301477432251,-0.0065340399742126465
0.12311174720525742,-0.18503659963607788,0.18847861886024475,0.03967002034187317,-0.07441100478172302,0.03314167261123657
0.14309632778167725,-0.3027530610561371,0.1636049449443817,0.002500787377357483,-0.08398807048797607,0.038852035999298096
0.23172397911548615,-0.3545326888561249,0.10670411586761475,-0.02829068899154663,-0.09289789199829102,-0.010978221893310547
0.3311237096786499,-0.27812981605529785,-0.0019944871310144663,-0.060694620013237,-0.10151910781860352,-0.023820996284484863
0.3383787274360657,-0.1647222340106964,-0.12842904031276703,-0.08120234310626984,-0.09043580293655396,-0.017661452293395996
0.3688986003398895,-0.16379645466804504,-0.15102852880954742,-0.02855198085308075,-0.08912181854248047,-0.07407152652740479
0.42603644728660583,-0.2281678318977356,-0.09820029139518738,0.003205941990017891,-0.0514945387840271,-0.09966713190078735
0.4324986934661865,-0.2875998020172119,-0.09147047251462936,-0.03865973651409149,-0.07891577482223511,-0.05606067180633545
0.28397879004478455,-0.16867853701114655,-0.11238828301429749,-0.09002389013767242,-0.1384352445602417,0.09395921230316162
-0.1429908275604248,-0.22743290662765503,-0.18615534901618958,-0.10296720266342163,-0.09555494785308838,0.07354497909545898
-0.32825252413749695,-0.42082569003105164,-0.15742605924606323,-0.026283279061317444,-0.055928051471710205,-0.14854729175567627
-0.10289758443832397,-0.32319536805152893,-0.2092173546552658,-0.043277204036712646,-0.04247182607650757,-0.3204628825187683
0.10830599069595337,-0.2180224508047104,-0.2855532467365265,-0.06597472727298737,-0.03901439905166626,-0.2638947367668152
-0.006321077700704336,-0.279362291097641,-0.3487488925457001,-0.05407726392149925,9.894371032714844e-06,-0.07295668125152588
0.03902296721935272,-0.3443809747695923,-0.3466668128967285,-0.04606221616268158,0.03881615400314331,-0.05703192949295044
0.25361159443855286,-0.39599695801734924,-0.30636706948280334,-0.05246412381529808,0.04507791996002197,-0.04996234178543091
0.28250011801719666,-0.3783199191093445,-0.35237327218055725,-0.1420983076095581,0.04430299997329712,0.06560677289962769
0.07468888908624649,-0.23986974358558655,-0.429668664932251,-0.16668812930583954,0.04826730489730835,0.14287036657333374
-0.16394731402397156,-0.06670103222131729,-0.4490496516227722,-0.10656337440013885,0.02803260087966919,0.12729084491729736
-0.33231377601623535,-0.06373072415590286,-0.3546648323535919,-0.03477470576763153,0.06257021427154541,0.05196487903594971
-0.3461705446243286,-0.1580834984779358,-0.2852681577205658,-0.03703536093235016,0.11211556196212769,0.005370914936065674
-0.1554231494665146,-0.23504532873630524,-0.2855031490325928,-0.04683135077357292,0.10475665330886841,-0.0457577109336853
0.08899588137865067,-0.22766591608524323,-0.32631900906562805,-0.031093686819076538,0.09729433059692383,-0.013944804668426514
0.145381897687912,-0.17175690829753876,-0.40460139513015747,-0.02869167923927307,0.051281630992889404,0.07797151803970337
0.1022777184844017,-0.15521597862243652,-0.3975268006324768,0.0008763223886489868,0.0387340784072876,0.15978336334228516
-0.028597896918654442,-0.23684243857860565,-0.34080377221107483,-0.010101839900016785,0.029475927352905273,0.19728994369506836
-0.10701600462198257,-0.37088543176651,-0.2718292474746704,-0.06578978896141052,0.04102051258087158,0.16338670253753662
-0.10023321956396103,-0.23959779739379883,-0.3095386028289795,-0.11782334744930267,0.04788029193878174,0.15114808082580566
0.06708250194787979,0.07489589601755142,-0.3860737085342407,-0.11281086504459381,0.007332861423492432,0.0668632984161377
0.17020662128925323,0.16409099102020264,-0.372970312833786,-0.014724090695381165,-0.03490793704986572,0.03655409812927246
0.07821457087993622,0.16725417971611023,-0.3557502329349518,-0.01826740801334381,-0.04960274696350098,0.1331508755683899
-0.057079777121543884,0.0485929511487484,-0.3036721348762512,-0.027073204517364502,-0.04288440942764282,0.1358788013458252
-0.024204585701227188,-0.0459953248500824,-0.20874738693237305,-0.014964282512664795,-0.05218470096588135,0.03280901908874512
0.0020972415804862976,0.0343753919005394,-0.15661796927452087,-0.0009908676147460938,-0.06783914566040039,0.004109680652618408
-0.03451862558722496,0.2196349799633026,-0.09237676113843918,0.01975095272064209,-0.08163654804229736,-0.010725080966949463
-0.08838720619678497,0.2028796523809433,-0.017861053347587585,0.02085012197494507,-0.05938619375228882,-0.019342541694641113
-0.1409854292869568,0.13761462271213531,-0.000990727567113936,0.0014716088771820068,-0.06356114149093628,-0.025953710079193115
-0.11986041814088821,0.058315493166446686,-0.004011563956737518,0.001268535852432251,-0.06280255317687988,-0.07272469997406006
-0.07341863960027695,0.048507653176784515,-0.0074941664934158325,0.019048422574996948,-0.07806092500686646,-0.13193118572235107
0.14957794547080994,0.1461685448884964,0.005295494105666876,0.007592946290969849,-0.09690451622009277,-0.18099498748779297
0.25544148683547974,0.37781769037246704,0.020593391731381416,0.014746606349945068,-0.1575186848640442,-0.03460198640823364
-0.2663268446922302,0.3152359426021576,0.09760551899671555,0.047972142696380615,-0.0820663571357727,0.10265058279037476
-0.9106260538101196,0.13547928631305695,0.11555389314889908,0.06292834877967834,-0.0227128267288208,0.04195725917816162
-0.7482588291168213,0.17523087561130524,0.058812592178583145,0.060894131660461426,0.014055252075195312,-0.2801274061203003
-0.12372514605522156,0.2825072705745697,0.06324390321969986,0.07304906845092773,0.017830342054367065,-0.4157446026802063
0.013451743870973587,0.2723095715045929,0.08426763862371445,0.029329508543014526,0.0570242702960968,-0.19025695323944092
0.003968093078583479,0.1740160584449768,0.13712194561958313,0.014332026243209839,0.09658616781234741,-0.07254302501678467
-0.02154720574617386,0.27061498165130615,0.2639133036136627,0.03406746685504913,0.07329648733139038,0.04742318391799927
-0.17746904492378235,0.34488704800605774,0.4398271441459656,0.11789454519748688,0.04105827212333679,0.12163609266281128
-0.26573556661605835,0.39745885133743286,0.5975325703620911,0.17534732818603516,0.041387736797332764,0.09985429048538208
-0.31850406527519226,0.38931798934936523,0.6361713409423828,0.17249354720115662,0.05651181936264038,0.04682821035385132
-0.29204317927360535,0.13793163001537323,0.6157765984535217,0.13354995846748352,0.07244464755058289,-0.06285488605499268
-0.14815057814121246,0.03314192593097687,0.5469866394996643,0.04422219097614288,0.06595996022224426,-0.1391662359237671
0.06410863995552063,0.10478445887565613,0.5074495673179626,-0.02192971110343933,0.04864150285720825,-0.11275631189346313
0.18813809752464294,0.26497918367385864,0.5389214754104614,-0.040539294481277466,0.06421259045600891,-0.03780573606491089
0.16160279512405396,0.21111001074314117,0.5101867914199829,-0.06192187964916229,0.057918012142181396,0.03931927680969238
0.0754149854183197,0.07268877327442169,0.4671217203140259,-0.028466328978538513,0.03982064127922058,0.11907941102981567
0.15076328814029694,0.03181074559688568,0.4170054495334625,-0.02038741111755371,0.03502857685089111,0.08727741241455078
0.16322042047977448,0.033772312104701996,0.39313533902168274,-0.013303279876708984,0.048760831356048584,0.10614383220672607
0.18080858886241913,0.025991518050432205,0.4034397006034851,-0.0015894770622253418,0.05444559454917908,0.09279680252075195
0.17985597252845764,0.07789004594087601,0.3843819797039032,-0.018549159169197083,0.04483497142791748,0.08602511882781982
0.053187254816293716,0.039213478565216064,0.33121415972709656,-0.021312758326530457,0.031018614768981934,0.10821020603179932
-0.06068643555045128,-0.16311438381671906,0.27904605865478516,-0.007238313555717468,0.016844600439071655,0.06945383548736572
0.06154666468501091,-0.21951165795326233,0.26763826608657837,0.030916348099708557,-0.014254391193389893,-0.03417295217514038
0.2695569396018982,-0.18558412790298462,0.24276113510131836,0.01189965009689331,-0.015883952379226685,-0.055556654930114746
0.38797858357429504,-0.17916657030582428,0.1379687339067459,-0.05792950093746185,-0.026111602783203125,-0.018641769886016846
0.4005630612373352,-0.21120178699493408,0.009446373209357262,-0.08523063361644745,-0.0554775595664978,0.009058713912963867
0.30324026942253113,-0.14736725389957428,-0.1113714650273323,-0.08493106067180634,-0.07175153493881226,0.02775394916534424
0.10086502134799957,-0.120754174888134,-0.2407996952533722,-0.09010154008865356,-0.06761932373046875,0.02767997980117798
0.02845621109008789,-0.22883763909339905,-0.28098198771476746,-0.02202710136771202,-0.07163262367248535,-0.04574483633041382
0.2520860731601715,-0.23432710766792297,-0.23429375886917114,0.010841742157936096,-0.044054388999938965,-0.16440463066101074
0.46999597549438477,-0.21028324961662292,-0.142568901181221,-0.03505013883113861,-0.07090604305267334,-0.14469528198242188
0.36425328254699707,-0.03505370765924454,-0.08908101171255112,-0.06813429296016693,-0.1260417103767395,0.05459827184677124
-0.236826092004776,-0.10093725472688675,-0.14534889161586761,-0.08515766263008118,-0.10648977756500244,0.12742739915847778
-0.7171753644943237,-0.3126586675643921,-0.1922895759344101,-0.05932857096195221,-0.03521960973739624,-0.06816744804382324
-0.5002879500389099,-0.2817719578742981,-0.3007720708847046,-0.1006338894367218,0.03964930772781372,-0.3790820837020874
0.09834771603345871,-0.24379336833953857,-0.4158385097980499,-0.1141425371170044,0.082638680934906,-0.4367109537124634
0.4767625629901886,-0.23263080418109894,-0.4054550230503082,-0.06670449674129486,0.08043980598449707,-0.2047712802886963
0.45300787687301636,-0.20656229555606842,-0.3990572392940521,-0.05652737617492676,0.08281469345092773,0.05096697807312012
0.22661495208740234,-0.27275025844573975,-0.34703895449638367,-0.048093970865011215,0.03689628839492798,0.18621283769607544
-0.05310165137052536,-0.2662960886955261,-0.32083505392074585,-0.059192951768636703,0.01467353105545044,0.21811974048614502
-0.3438802659511566,-0.16758403182029724,-0.4148753881454468,-0.09263822436332703,0.0208587646484375,0.18730586767196655
-0.42912614345550537,-0.1134694293141365,-0.4381147027015686,-0.04590509831905365,0.05674189329147339,0.060515761375427246
-0.4655269682407379,-0.13498039543628693,-0.4053865969181061,-0.02182479202747345,0.08402621746063232,-0.02581202983856201
-0.3309108018875122,-0.15279193222522736,-0.32908809185028076,-0.0054625533521175385,0.0942307710647583,-0.08338397741317749
-0.02980181574821472,-0.22074584662914276,-0.2579706907272339,0.00016048550605773926,0.07160168886184692,-0.15096241235733032
0.302788645029068,-0.22947168350219727,-0.2798112630844116,-0.00368301197886467,0.04543709754943848,-0.1328626275062561
0.38999077677726746,-0.19106517732143402,-0.35238736867904663,-0.024668004363775253,0.01809138059616089,0.03587603569030762
0.25683772563934326,-0.21490685641765594,-0.3794536292552948,-0.0253850519657135,0.005359649658203125,0.17632544040679932
0.1943785548210144,-0.21976473927497864,-0.3093060553073883,-0.013002738356590271,0.01786327362060547,0.186570405960083
0.20113232731819153,-0.17953358590602875,-0.19428454339504242,-0.022052869200706482,0.01633632183074951,0.15447521209716797
0.08737949281930923,-0.11217764765024185,-0.1266520619392395,-0.033742934465408325,0.011072337627410889,0.17380911111831665
-0.00212006364017725,-0.02188836596906185,-0.18113034963607788,-0.0896415114402771,-0.02126789093017578,0.14084231853485107
-0.017112737521529198,-0.02845504693686962,-0.19535298645496368,-0.05752938985824585,-0.044981539249420166,0.08047318458557129
0.02807372622191906,-0.13331282138824463,-0.13702312111854553,-0.00860297679901123,-0.04059410095214844,0.02832472324371338
