rotation_x,rotation_y,rotation_z,acceleration_x,acceleration_y,acceleration_z
-0.17334945499897003,0.6458840370178223,1.2556685209274292,-0.17682170867919922,-0.004707455635070801,0.20179468393325806
-0.3720536530017853,0.47851255536079407,1.2983413934707642,-0.1690746694803238,-0.02032029628753662,0.17384928464889526
-0.33737847208976746,0.3785445988178253,1.216015100479126,-0.2569296956062317,0.01275026798248291,0.05700117349624634
-0.2505670189857483,0.3782469928264618,1.1255440711975098,-0.2668135166168213,-0.01090693473815918,0.03458964824676514
-0.22895190119743347,0.4004839062690735,1.0243942737579346,-0.2515795826911926,-0.031149864196777344,0.012877941131591797
-0.16247764229774475,0.44121137261390686,0.934502124786377,-0.19315221905708313,-0.07587099075317383,0.027922213077545166
-0.17651024460792542,0.40738996863365173,0.85434490442276,-0.1771625280380249,-0.08125722408294678,0.08763408660888672
-0.24436908960342407,0.3627748191356659,0.7243531346321106,-0.18279816210269928,-0.1032031774520874,0.08519542217254639
-0.2555604577064514,0.3373152017593384,0.5941149592399597,-0.17680594325065613,-0.1162949800491333,0.017720043659210205
-0.1734652817249298,0.3379749357700348,0.4949067234992981,-0.1462191492319107,-0.13005930185317993,-0.020435869693756104
-0.042130351066589355,0.31220224499702454,0.41944441199302673,-0.1493382304906845,-0.13344019651412964,-0.02234518527984619
0.03200043737888336,0.2522447407245636,0.3764854073524475,-0.14466524124145508,-0.13897639513015747,-0.007908761501312256
0.13698327541351318,0.23392491042613983,0.32993385195732117,-0.15084809064865112,-0.14265158772468567,0.0033739209175109863
0.16501319408416748,0.21704405546188354,0.303691029548645,-0.1476321518421173,-0.15197241306304932,0.04916882514953613
0.1318168342113495,0.2509556710720062,0.22853247821331024,-0.1388130784034729,-0.16225528717041016,0.05125671625137329
0.14287935197353363,0.29557037353515625,0.1964889019727707,-0.0881747305393219,-0.1538015604019165,0.03992849588394165
0.17098203301429749,0.3923099637031555,0.1827082335948944,-0.08966627717018127,-0.12028706073760986,-0.007692813873291016
0.2802315950393677,0.49504610896110535,0.11252038925886154,-0.11377230286598206,-0.08438509702682495,-0.15710747241973877
0.49141666293144226,0.5790393948554993,0.05801792070269585,-0.07266654074192047,-0.13048261404037476,-0.13521236181259155
0.4606822729110718,0.6051346659660339,0.1457357108592987,-0.013393476605415344,-0.1555219292640686,0.0934380292892456
0.06119392439723015,0.6584077477455139,0.2533389925956726,0.062101811170578,-0.07588309049606323,0.15335547924041748
-0.5488048791885376,0.6336124539375305,0.37284186482429504,0.10758394002914429,-0.05225241184234619,0.011610150337219238
-0.8385933637619019,0.38247209787368774,0.32728102803230286,0.08260178565979004,-0.00014764070510864258,-0.3818665146827698
-0.3571597933769226,0.12536552548408508,0.269543319940567,0.0286761075258255,0.030349373817443848,-0.5200645327568054
0.08063780516386032,0.08700422942638397,0.21137811243534088,-0.010515958070755005,0.06877219676971436,-0.3364712595939636
0.27893248200416565,0.2982006072998047,0.1503523737192154,-0.02313871681690216,0.10297274589538574,-0.12973493337631226
0.3107858896255493,0.44639867544174194,0.16619405150413513,0.07704196870326996,0.11586809158325195,0.10640650987625122
0.06114637851715088,0.4264197051525116,0.26980310678482056,0.15806084871292114,0.09346115589141846,0.2011699080467224
-0.12366581708192825,0.3617594838142395,0.338621586561203,0.20248903334140778,0.08878618478775024,0.14780396223068237
-0.23795871436595917,0.081464983522892,0.4184266924858093,0.22712107002735138,0.10139715671539307,-0.003758728504180908
-0.12220104783773422,0.06284397095441818,0.4875270128250122,0.073545441031456,0.1360141634941101,-0.07990849018096924
0.00580505421385169,0.09111788123846054,0.4380587637424469,0.022214844822883606,0.11639642715454102,-0.14189469814300537
0.12874002754688263,0.008981265127658844,0.38604098558425903,-0.02459166944026947,0.1030503511428833,-0.08642899990081787
0.17163124680519104,-0.04708539694547653,0.3664685785770416,-0.0129060298204422,0.08803033828735352,-0.003816843032836914
0.17460772395133972,-0.09204394370317459,0.41316449642181396,0.011358380317687988,0.07213866710662842,0.0740809440612793
0.10671231150627136,-0.05503219738602638,0.4454042911529541,0.015975087881088257,0.06160712242126465,0.1300734281539917
0.12082983553409576,0.08176825940608978,0.43056151270866394,0.03202269971370697,0.03402113914489746,0.11826896667480469
0.11285367608070374,0.08181299269199371,0.42046910524368286,0.0017185360193252563,0.04270064830780029,0.11204129457473755
0.09149151295423508,-0.057182442396879196,0.3982331156730652,0.00928419828414917,0.019465208053588867,0.06030309200286865
0.16321583092212677,-0.14495719969272614,0.3609399199485779,0.004412516951560974,0.0007445812225341797,0.0781974196434021
0.054731499403715134,-0.12578612565994263,0.2865467965602875,-0.006654754281044006,-0.0184401273727417,0.0786207914352417
-0.0005583986639976501,-0.08317521959543228,0.2229890078306198,0.011620357632637024,-0.01926267147064209,-0.01827073097229004
0.09988285601139069,-0.2012101262807846,0.182056725025177,0.04579426348209381,-0.06953543424606323,-0.11872225999832153
0.3042045533657074,-0.41297757625579834,0.3386797606945038,0.029079332947731018,-0.0448145866394043,-0.07116901874542236
0.22871574759483337,-0.6690026521682739,0.38810253143310547,-0.02310469001531601,-0.04325026273727417,0.06400245428085327
0.18010330200195312,-0.506670355796814,0.28338727355003357,-0.0012192577123641968,-0.10333371162414551,0.09030449390411377
-0.01766292192041874,-0.2945359945297241,0.1689375638961792,0.016989871859550476,-0.08528310060501099,0.051483988761901855
-0.026973865926265717,-0.29659488797187805,0.11054456979036331,-0.013622939586639404,-0.05216860771179199,-0.06331384181976318
0.18202953040599823,-0.23688915371894836,-0.02565382793545723,0.016301214694976807,-0.039533913135528564,-0.09152919054031372
0.3012489676475525,-0.33109337091445923,0.011171458289027214,0.07769425213336945,-0.015092790126800537,0.022536158561706543
0.2652093470096588,-0.37184545397758484,0.04457922279834747,0.026884600520133972,-0.013873934745788574,0.08306550979614258
0.22738026082515717,-0.3118480145931244,0.07617831975221634,0.039595670998096466,-0.008360683917999268,0.11340469121932983
0.21897034347057343,-0.3612334132194519,0.12989601492881775,-0.015190660953521729,-0.03185272216796875,0.016224384307861328
0.31285804510116577,-0.31113627552986145,0.059067171066999435,-0.06124491989612579,-0.10985153913497925,0.08373820781707764
0.06558247655630112,-0.14388656616210938,-0.08271552622318268,-0.06114982068538666,-0.083598792552948,0.12627369165420532
-0.4904140830039978,-0.12796352803707123,-0.12123917043209076,-0.05614800751209259,-0.009722709655761719,0.08201301097869873
-0.8443315625190735,-0.2353210300207138,-0.1693100482225418,-0.09967821836471558,0.09305185079574585,-0.298129141330719
-0.2581024467945099,-0.20123648643493652,-0.21957752108573914,-0.06329594552516937,0.06735795736312866,-0.45436280965805054
0.15202736854553223,-0.030189191922545433,-0.2809000611305237,-0.017705336213111877,0.03633469343185425,-0.1809595227241516
0.23663705587387085,-0.042654115706682205,-0.25294989347457886,0.012090310454368591,0.004948258399963379,0.04113149642944336
0.18966229259967804,-0.045133501291275024,-0.2608316242694855,0.03250202536582947,-0.009297370910644531,0.16973459720611572
-0.004739893134683371,-0.058707766234874725,-0.15918952226638794,0.039231106638908386,-0.0175553560256958,0.24805808067321777
-0.3456015884876251,-0.03382153809070587,-0.10590653866529465,0.00012521445751190186,0.035729408264160156,0.16252267360687256
-0.43526697158813477,0.0439031608402729,-0.11341611295938492,-0.01003175973892212,0.06984847784042358,-0.027699828147888184
-0.34080979228019714,0.12893521785736084,-0.11557092517614365,0.006591543555259705,0.07316476106643677,-0.0788201093673706
-0.2302793264389038,0.22045768797397614,-0.0954836755990982,0.02674587070941925,0.03992336988449097,-0.02435433864593506
-0.13883477449417114,0.1515652984380722,-0.10704740136861801,-0.03289687633514404,0.03258359432220459,-0.005031466484069824
-0.10895682871341705,0.11448386311531067,-0.24735961854457855,-0.02726617455482483,0.008164703845977783,0.04846876859664917
-0.009119011461734772,0.1296486109495163,-0.25110211968421936,0.027747362852096558,-0.021503329277038574,0.06648874282836914
0.16641002893447876,0.13596445322036743,-0.22031986713409424,0.021077334880828857,-0.0663420557975769,0.10758727788925171
0.26035669445991516,0.16429848968982697,-0.16670739650726318,-0.01884707808494568,-0.10417026281356812,0.17507821321487427
0.15263529121875763,0.31032392382621765,-0.1964382529258728,-0.08395124226808548,-0.07717651128768921,0.23342818021774292
0.00480343122035265,0.3672856390476227,-0.17006832361221313,-0.03771315515041351,-0.049192845821380615,0.12240749597549438
0.12477834522724152,0.3657779395580292,-0.14022889733314514,-0.010437019169330597,-0.03661566972732544,0.009481430053710938
0.25538375973701477,0.3890783190727234,-0.11025442183017731,0.0016269981861114502,-0.03178727626800537,0.07197308540344238
0.15554118156433105,0.33317330479621887,-0.07916165143251419,0.021417252719402313,-0.04724067449569702,0.09229284524917603
0.09461937099695206,0.2629900872707367,-0.009563148021697998,0.02506173402070999,-0.056788861751556396,-0.041462063789367676
0.1972181499004364,0.2545606791973114,0.022664645686745644,-0.04006856679916382,-0.0593222975730896,-0.14469218254089355
0.3350800573825836,0.35890305042266846,-0.04057508707046509,-0.11651214957237244,-0.04125535488128662,-0.15099966526031494
0.29704129695892334,0.44301849603652954,-0.14412423968315125,-0.10813181102275848,-0.030705690383911133,-0.08635979890823364
0.17604243755340576,0.3934999704360962,-0.2165749967098236,-0.06418877840042114,-0.09461748600006104,-0.05520784854888916
0.09852837026119232,0.38077259063720703,-0.13434678316116333,0.0004261750727891922,-0.09868210554122925,0.02473205327987671
-0.2805768549442291,0.25923264026641846,-0.0034429379738867283,-0.017304718494415283,-0.025048911571502686,0.003668546676635742
-0.7585759162902832,0.3543475866317749,0.037154797464609146,-0.057285845279693604,0.002615690231323242,-0.17873793840408325
-0.8294618129730225,0.4342975318431854,-0.06705337017774582,0.006410658359527588,0.011309385299682617,-0.41174304485321045
-0.465960294008255,0.4576769471168518,-0.061119962483644485,0.10821384191513062,0.02776479721069336,-0.4048258066177368
-0.1286240816116333,0.4732244312763214,-0.01265670359134674,0.0890345424413681,0.07958298921585083,-0.2681838274002075
0.13357630372047424,0.456716388463974,0.10268938541412354,0.12844745814800262,0.07114177942276001,-0.08272993564605713
0.2516547739505768,0.4585607945919037,0.27545052766799927,0.171807199716568,0.04036450386047363,0.09181851148605347
0.22141282260417938,0.5668842196464539,0.43250733613967896,0.1948431432247162,-0.0037935376167297363,0.13746291399002075
0.18904241919517517,0.5707379579544067,0.5438126921653748,0.2067965269088745,-0.0030269622802734375,0.1510433554649353
-0.010599415749311447,0.527800977230072,0.5867273211479187,0.18695877492427826,0.019890666007995605,0.15432989597320557
-0.1352558732032776,0.4021828770637512,0.5741719007492065,0.051552724093198776,0.07606500387191772,0.05984395742416382
-0.17833039164543152,0.09266331046819687,0.44587668776512146,-0.06263895332813263,0.12755036354064941,0.010909080505371094
-0.12897130846977234,0.017778877168893814,0.37284189462661743,-0.06365993618965149,0.10939306020736694,-0.030161261558532715
-0.08399292081594467,0.022186143323779106,0.3959496319293976,-0.08217613399028778,0.10864931344985962,-0.03697371482849121
0.10327304899692535,0.0829809159040451,0.38573572039604187,-0.09197285771369934,0.10011792182922363,-0.0015093088150024414
0.10804104804992676,0.11449231952428818,0.36435624957084656,-0.05103977024555206,0.06831789016723633,0.1437082290649414
-0.07826723158359528,0.028351828455924988,0.3325672447681427,-0.02032470703125,0.0556635856628418,0.15197765827178955
-0.07688739895820618,-0.06709247827529907,0.31170037388801575,0.0028467029333114624,0.03866380453109741,0.0714801549911499
0.019095057621598244,-0.11766110360622406,0.3190464377403259,0.02228318154811859,0.016169369220733643,0.07223916053771973
0.04633418098092079,-0.225713849067688,0.32751670479774475,-0.015207052230834961,0.02289259433746338,0.10969138145446777
0.04772760719060898,-0.2437734305858612,0.2838878333568573,-0.07197213172912598,0.012307822704315186,0.09200727939605713
0.0254070907831192,-0.2535094618797302,0.14935313165187836,-0.08729420602321625,-0.030539095401763916,0.03410935401916504
0.006089937873184681,-0.279352605342865,0.05534588545560837,-0.007835879921913147,-0.08194887638092041,-0.011186599731445312
0.018324347212910652,-0.26314619183540344,0.025063924491405487,-0.07992607355117798,-0.05382472276687622,0.011397063732147217
0.03369076922535896,-0.29494449496269226,-0.10161436349153519,-0.08444669842720032,-0.05150991678237915,-0.0038661956787109375
0.10807275772094727,-0.3611624538898468,-0.15865732729434967,-0.05418209731578827,-0.07119441032409668,-0.005742430686950684
0.02493622526526451,-0.4606691896915436,-0.15953437983989716,-0.01737537980079651,-0.0762488842010498,0.044223666191101074
-0.09219855070114136,-0.5001083612442017,-0.11861670017242432,0.002790674567222595,-0.07476460933685303,-0.029837846755981445
-0.031991660594940186,-0.48728054761886597,-0.041007425636053085,-0.010910451412200928,-0.05357640981674194,-0.11626088619232178
0.017224445939064026,-0.5002347826957703,-0.03748837113380432,-0.06942330300807953,-0.07743453979492188,-0.0955381989479065
0.12105681002140045,-0.5848656296730042,-0.11433888971805573,-0.1307733803987503,-0.16034793853759766,0.03714388608932495
-0.1968422681093216,-0.5917353630065918,-0.2511565089225769,-0.15511956810951233,-0.10194259881973267,0.08634716272354126
-0.6909028887748718,-0.631756603717804,-0.3858962059020996,-0.14368608593940735,-0.0032662153244018555,-0.08186948299407959
-0.7230119109153748,-0.5981037020683289,-0.4846920669078827,-0.1272328794002533,0.07321363687515259,-0.376834511756897
-0.1960303783416748,-0.49295786023139954,-0.5631887912750244,-0.14704729616641998,0.08796042203903198,-0.3791523575782776
0.2490149587392807,-0.5584765672683716,-0.5778135657310486,-0.09765449166297913,0.017270565032958984,-0.11528587341308594
0.23763543367385864,-0.6633452773094177,-0.5929948687553406,-0.1554315835237503,0.026269137859344482,0.13762104511260986
-0.10322253406047821,-0.7069272398948669,-0.6722707748413086,-0.13072974979877472,-0.04885226488113403,0.17574524879455566
-0.34946832060813904,-0.6402985453605652,-0.7278948426246643,-0.10982999205589294,-0.004052996635437012,0.09681010246276855
-0.42544031143188477,-0.3832404315471649,-0.7058064341545105,-0.06599827110767365,0.0759575366973877,0.018447279930114746
-0.4049190878868103,-0.23331548273563385,-0.6609101891517639,-0.028654150664806366,0.15397697687149048,-0.012992024421691895
-0.29268789291381836,-0.19565704464912415,-0.5928022265434265,0.04327024519443512,0.13019049167633057,0.020774781703948975
-0.2653049826622009,-0.20407450199127197,-0.4649273157119751,0.06934502720832825,0.09804192185401917,0.07009387016296387
-0.32891443371772766,-0.2640334367752075,-0.4692331552505493,0.05451017618179321,0.08078432083129883,0.05084085464477539
-0.24742868542671204,-0.2809124290943146,-0.4993155896663666,0.03198365867137909,0.04820746183395386,0.002289414405822754
0.008828707039356232,-0.2322554886341095,-0.5735817551612854,0.007762797176837921,0.03657224774360657,0.012845218181610107
0.11401240527629852,-0.24201108515262604,-0.5957527756690979,0.04068201780319214,0.003248840570449829,0.11957716941833496
0.007709559053182602,-0.1775660663843155,-0.5362314581871033,0.00908803939819336,0.028953194618225098,0.18154031038284302
-0.061154238879680634,-0.12268117070198059,-0.5202112197875977,-0.030042551457881927,0.03266921639442444,0.1418999433517456
-0.09307227283716202,-0.09699363261461258,-0.4959344267845154,-0.013212725520133972,-0.00033861398696899414,0.10534560680389404
-0.03494292497634888,-0.03341326862573624,-0.4240573048591614,0.009914867579936981,-0.023444801568984985,0.034733474254608154
0.0815507173538208,0.056771352887153625,-0.3395332098007202,0.034504234790802,-0.03579390048980713,-0.001741945743560791
0.12358751147985458,0.15266795456409454,-0.2531052231788635,0.06932780891656876,-0.059765905141830444,-0.017713844776153564
0.04155924916267395,0.2046114057302475,-0.18699057400226593,0.08067040145397186,-0.07484960556030273,-0.041686415672302246
0.08464768528938293,0.21004444360733032,-0.1559528112411499,0.08698680996894836,-0.07393553853034973,-0.06783807277679443
0.08123082667589188,0.1696913093328476,-0.039848264306783676,0.05313301086425781,-0.0588001012802124,-0.0777551531791687
0.0760328471660614,0.3038431704044342,-0.06806587427854538,-0.008028045296669006,-0.04520106315612793,-0.14525163173675537
0.15654683113098145,0.3737904727458954,-0.10838647186756134,0.010836958885192871,-0.11147654056549072,-0.16164278984069824
0.0963815450668335,0.42621877789497375,-0.04055912792682648,0.06880532205104828,-0.13711297512054443,0.005844831466674805
-0.3741184175014496,0.3759258985519409,0.040253572165966034,0.08119520545005798,-0.07714647054672241,-0.024119853973388672
-0.664201021194458,0.3466513454914093,0.08824650198221207,0.0524338036775589,-0.020479947328567505,-0.24766939878463745
-0.48773038387298584,0.37733614444732666,0.005868622567504644,0.019309386610984802,0.0109710693359375,-0.35331296920776367
-0.20186278223991394,0.31617289781570435,-0.03475154936313629,0.04998873174190521,0.05607104301452637,-0.265048086643219
-0.018696032464504242,0.41276970505714417,-0.015997005626559258,0.06056785583496094,0.08008944988250732,-0.17189538478851318
0.14547333121299744,0.4192149043083191,0.12598873674869537,0.0707867294549942,0.11050635576248169,-0.05636638402938843
0.23888306319713593,0.4548397362232208,0.2719898521900177,0.09774218499660492,0.06639790534973145,0.10836970806121826
0.2010134607553482,0.42023777961730957,0.4397725760936737,0.14801029860973358,0.025981873273849487,0.23064285516738892
-0.004107113927602768,0.294071763753891,0.6090793013572693,0.20442509651184082,0.0023102760314941406,0.2616783380508423
-0.2743968963623047,0.27130380272865295,0.7479027509689331,0.22520941495895386,0.006428390741348267,0.16349321603775024
-0.3770890533924103,0.2801876962184906,0.8343087434768677,0.06255988776683807,0.07372879981994629,-0.011026084423065186
-0.36839771270751953,0.2727987468242645,0.7504618167877197,-0.04594495892524719,0.09954330325126648,-0.1053808331489563
-0.12473738938570023,0.12169945985078812,0.6435856223106384,-0.05259688198566437,0.07788017392158508,-0.1601179838180542
0.15422698855400085,0.06745641678571701,0.560657799243927,-0.07168777287006378,0.056425780057907104,-0.08287245035171509
0.21812483668327332,0.1002502590417862,0.492733895778656,-0.04039916396141052,0.02988755702972412,0.04493880271911621
0.14755047857761383,0.10620331764221191,0.4660658836364746,-0.009579373523592949,0.03229132294654846,0.12062859535217285
0.15822774171829224,0.05782695114612579,0.47198331356048584,0.004014104604721069,0.032324373722076416,0.13751482963562012
0.17323346436023712,0.04394334927201271,0.5204491019248962,0.020504847168922424,0.028766989707946777,0.15182840824127197
0.13682088255882263,0.024828452616930008,0.5160999894142151,-0.0035795550793409348,0.01808789372444153,0.10643953084945679
0.15848487615585327,0.0219176784157753,0.453299880027771,-0.0057964026927948,0.0005005598068237305,0.07532238960266113
0.1416098028421402,-0.01167833898216486,0.3510911762714386,-0.015484943985939026,-0.03461939096450806,0.06508564949035645
0.13540109992027283,-0.07004061341285706,0.2729214131832123,-0.010295715183019638,-0.04906928539276123,0.04050248861312866
0.08427009731531143,-0.08768798410892487,0.1938963085412979,0.004125088453292847,-0.06630480289459229,0.049800992012023926
-0.029263880103826523,-0.13422036170959473,0.18323306739330292,0.02952130138874054,-0.0666303038597107,0.06612569093704224
