rotation_x,rotation_y,rotation_z,acceleration_x,acceleration_y,acceleration_z
-0.20238159596920013,-0.5566377639770508,0.05213138833642006,-0.047580376267433167,-0.014416098594665527,0.1682584285736084
-0.6672426462173462,-0.7845924496650696,-0.3059028387069702,-0.10401958227157593,-0.014989614486694336,0.11779022216796875
-0.6019564270973206,-0.5538246631622314,-0.34579014778137207,-0.10505689680576324,0.02014821767807007,-0.031699538230895996
-0.1613849252462387,-0.5461120009422302,-0.41004320979118347,-0.08144715428352356,-0.008889734745025635,0.012912392616271973
0.043097369372844696,-0.828530490398407,-0.49209633469581604,-0.04410389065742493,0.026678144931793213,0.1356632113456726
-0.014472775161266327,-0.7734844088554382,-0.40167415142059326,-0.05784924328327179,0.08197975158691406,0.18747079372406006
-0.17779964208602905,-0.4206100404262543,-0.2890811264514923,-0.0728738009929657,0.12037277221679688,0.19940650463104248
-0.1781645566225052,-0.19073325395584106,-0.2250409871339798,-0.01254601776599884,0.18699520826339722,0.25984638929367065
0.012198839336633682,-0.351681113243103,-0.007777324412018061,0.02706955373287201,0.24683594703674316,0.2939249277114868
0.2864254415035248,-0.4787081480026245,0.1808275580406189,-0.03239418566226959,0.3176124691963196,0.29373276233673096
0.4254656434059143,-0.35232922434806824,0.27399224042892456,-0.027354583144187927,0.3414692282676697,0.35718369483947754
0.3562258780002594,-0.21657612919807434,0.2807255983352661,-0.018764037638902664,0.37372732162475586,0.42538243532180786
0.24165824055671692,-0.24778525531291962,0.338837593793869,-0.014790177345275879,0.3829016089439392,0.5050786137580872
-0.01596004143357277,-0.23815396428108215,0.2570495903491974,-0.05649636685848236,0.31296706199645996,0.5022424459457397
-0.33277392387390137,-0.09813037514686584,-0.20161087810993195,-0.039157092571258545,0.28447169065475464,0.4919160008430481
-0.6867493987083435,-0.23064641654491425,-0.5396409034729004,-0.05127093195915222,0.3386327028274536,0.4539300799369812
-0.8292292356491089,-0.06387403607368469,-0.47219130396842957,0.01820632815361023,0.3089081048965454,0.2899801731109619
-0.5697586536407471,0.2628067135810852,-0.4771416187286377,0.09781557321548462,0.23347312211990356,0.0045855045318603516
-0.33128732442855835,0.6906111240386963,-0.18635210394859314,0.15090958774089813,0.16515129804611206,-0.045888543128967285
-0.5093604922294617,0.8008001446723938,0.27605801820755005,0.1130736917257309,0.051774680614471436,-0.10907900333404541
-0.6370694637298584,1.0494590997695923,0.4188874065876007,0.08825501799583435,-0.01776161789894104,-0.10323095321655273
-1.031243920326233,0.4868541955947876,0.4816635549068451,0.08573136478662491,-0.1532851755619049,-0.14519834518432617
-1.1839722394943237,0.1524755209684372,0.4257165789604187,0.17129144072532654,-0.2552286982536316,-0.4513986110687256
-0.5688944458961487,0.5550960302352905,0.43651387095451355,0.08450943976640701,-0.24437949061393738,-0.7140137553215027
-0.7152602076530457,-0.40426671504974365,1.3813451528549194,0.044969089329242706,-0.34294623136520386,-0.7713522911071777
-0.19408077001571655,-0.20863787829875946,1.6044949293136597,-0.11409221589565277,-0.48425567150115967,-1.1127583980560303
0.2673591375350952,1.1031038761138916,0.4283909499645233,-0.2709794342517853,-0.4494658410549164,-0.8147109746932983
-0.03172372281551361,0.370902419090271,0.45670217275619507,0.0019286125898361206,-0.5099695920944214,-0.620900571346283
0.12032823264598846,-0.3892612159252167,0.40064412355422974,-0.08384916931390762,-0.5552254915237427,-1.0353944301605225
0.48806044459342957,0.2729165852069855,0.006493288092315197,-0.11103200912475586,-0.49287495017051697,-1.0255838632583618
0.14438962936401367,0.25236210227012634,0.23332813382148743,0.10419294238090515,-0.3814224302768707,-0.8255714178085327
0.47491374611854553,-1.0377298593521118,0.2989906668663025,0.10984670370817184,-0.32719725370407104,-1.008400321006775
1.1347692012786865,-0.659156858921051,-0.3735451102256775,-0.14375048875808716,-0.13942337036132812,-0.8709465265274048
0.8586457371711731,-0.058413371443748474,-0.6771647334098816,-0.13212700188159943,0.04949706792831421,-0.4653937816619873
0.5630859136581421,0.25596940517425537,-0.49809181690216064,-0.02496245503425598,0.16593974828720093,-0.22006762027740479
0.3024190068244934,0.32106080651283264,-0.17120473086833954,0.014166094362735748,0.21697229146957397,-0.0886349081993103
-0.035086505115032196,0.42780011892318726,0.052434999495744705,-0.02749352902173996,0.2404857873916626,0.09602314233779907
-0.33040934801101685,0.42690402269363403,0.13547667860984802,-0.06402173638343811,0.2325390875339508,0.17658650875091553
-0.2921857237815857,0.41119062900543213,0.06787742674350739,-0.09189041703939438,0.22562527656555176,0.2275511622428894
-0.06223076209425926,0.10524765402078629,0.04685335233807564,-0.07148668169975281,0.21976512670516968,0.3361130356788635
0.06498891115188599,-0.33706265687942505,0.12155883014202118,-0.06623426079750061,0.2100048065185547,0.39460593461990356
0.09772881120443344,-0.5475120544433594,0.2211371660232544,-0.08580151945352554,0.17550617456436157,0.4006624221801758
0.1527026891708374,-0.53730708360672,0.17514069378376007,-0.08482633531093597,0.14874482154846191,0.40974998474121094
0.06613034754991531,-0.6655506491661072,0.14040179550647736,-0.06736685335636139,0.12391629815101624,0.43686699867248535
-0.0575895719230175,-1.0159183740615845,0.07805195450782776,-0.07482238113880157,0.08196669816970825,0.355308473110199
0.09890495985746384,-0.7275390028953552,-0.14569447934627533,-0.07162544131278992,0.08981692790985107,0.27426427602767944
0.3272155821323395,-0.4226612150669098,-0.2293083667755127,-0.028743982315063477,0.13701999187469482,0.2972991466522217
0.4154233932495117,-0.6460480093955994,-0.035529445856809616,0.010801061987876892,0.06527787446975708,0.22381138801574707
0.5629504919052124,-0.6549097895622253,-0.26045218110084534,-0.02100713551044464,0.06748181581497192,0.19735705852508545
0.5655378699302673,-0.5735304355621338,-0.4753042161464691,0.052602142095565796,0.08527231216430664,0.19672024250030518
0.5964793562889099,-0.5307543873786926,-0.3975600004196167,0.049686744809150696,0.1088712215423584,0.14957278966903687
0.7006714940071106,-0.37312111258506775,-0.4231690764427185,0.08445726335048676,0.08367806673049927,0.10145223140716553
0.527329683303833,-0.022558117285370827,-0.4515305459499359,0.13162627816200256,0.07406854629516602,0.20229148864746094
-0.14481902122497559,-0.024300407618284225,-0.48478400707244873,0.09536786377429962,0.05123239755630493,0.26591813564300537
-0.8172290921211243,-0.02866780012845993,-0.7430021166801453,0.06077058985829353,0.028317153453826904,0.11443161964416504
-0.7122753262519836,0.14076827466487885,-0.8832616806030273,0.10825969278812408,0.05529874563217163,-0.07023626565933228
-0.3076108396053314,0.249129980802536,-0.6263024210929871,0.11900076270103455,0.0691571831703186,-0.1285330057144165
-0.10024670511484146,0.4595521092414856,-0.2455822080373764,0.1356724351644516,0.04595649242401123,-0.07772320508956909
-0.08228756487369537,0.606427013874054,0.09176336973905563,0.12320119142532349,0.011553645133972168,-0.016040682792663574
0.02326415665447712,0.29128068685531616,0.4950096905231476,0.09275883436203003,-0.032490313053131104,-0.009783029556274414
0.2888850271701813,-0.020464828237891197,0.5703020095825195,-0.04238264262676239,-0.08777797222137451,-0.09918981790542603
0.33912426233291626,0.09174705296754837,0.28328797221183777,-0.06011126935482025,-0.09812295436859131,-0.023482322692871094
0.08698102831840515,0.2144923359155655,0.05801092088222504,-0.04381674528121948,-0.08359372615814209,-0.002122342586517334
0.1272226721048355,0.48479413986206055,-0.09296458959579468,-0.025618258863687515,-0.015355527400970459,-0.0511210560798645
0.31316444277763367,0.5104719400405884,0.07853680849075317,0.04550627991557121,0.02196580171585083,0.06350833177566528
0.3277129828929901,0.20497053861618042,0.2682097256183624,0.04325114190578461,0.050195515155792236,0.18760359287261963
0.1949464976787567,-0.037965331226587296,0.2151193916797638,0.024681702256202698,0.05733442306518555,0.18394577503204346
0.06250455975532532,-0.058183636516332626,0.13378648459911346,0.0004082322120666504,0.10678446292877197,0.17301690578460693
-0.12146975100040436,0.02073516882956028,0.22838030755519867,-0.011902842670679092,0.1251865029335022,0.21050119400024414
-0.4769163131713867,0.03603428229689598,0.22331783175468445,0.001574631780385971,0.11861693859100342,0.2898438572883606
-0.7607143521308899,-0.07634075731039047,-0.11691828817129135,-0.024331972002983093,0.11883038282394409,0.3473379611968994
-0.8969476222991943,-0.4693940281867981,-0.5392787456512451,-0.008131131529808044,0.19718116521835327,0.306709885597229
-0.6435839533805847,-0.6668851375579834,-0.3979719281196594,0.04302944242954254,0.2732672691345215,0.2663695812225342
-0.19293147325515747,-0.4505281448364258,0.04908434674143791,0.03926742076873779,0.31714290380477905,0.26947087049484253
-0.1500195413827896,-0.2116655856370926,0.3214397132396698,0.005396202206611633,0.28013014793395996,0.29251396656036377
-0.3933374285697937,-0.04237489402294159,0.28239428997039795,-0.060266345739364624,0.22923648357391357,0.3025786280632019
-0.5765023827552795,0.3044356405735016,0.1012493446469307,-0.13497129082679749,0.21558859944343567,0.2855681777000427
-0.6969369649887085,0.14061316847801208,-0.07862060517072678,-0.15354305505752563,0.1809154450893402,0.20503979921340942
-0.23542800545692444,0.267697274684906,-0.146615669131279,-0.07804109156131744,0.13184207677841187,0.03786790370941162
0.15838976204395294,0.4718899428844452,-0.13699162006378174,-0.10276450216770172,0.16465282440185547,0.11523789167404175
0.09224215894937515,0.052002981305122375,0.09112474322319031,-0.04906413331627846,0.12112730741500854,0.10153895616531372
0.30446359515190125,0.36782366037368774,0.15001465380191803,-0.07479779422283173,0.06729388236999512,-0.060129761695861816
0.37448984384536743,0.7646749019622803,0.10499108582735062,-0.029598280787467957,0.04258790612220764,0.02089589834213257
0.40083765983581543,0.390646755695343,0.37549275159835815,0.10601247847080231,-0.03745734691619873,-0.03032594919204712
0.33874040842056274,0.5122267007827759,0.4003851115703583,0.054037705063819885,-0.11321640014648438,-0.05155611038208008
0.40207216143608093,0.3179500997066498,0.2639622688293457,0.0014077425003051758,-0.13709813356399536,-0.24357688426971436
0.7114896774291992,0.7560933828353882,0.26917147636413574,-0.04076613485813141,-0.15955054759979248,-0.18834292888641357
-0.13844990730285645,1.0420167446136475,-0.09196016192436218,-0.029355108737945557,-0.25382000207901,-0.07915717363357544
-0.8101401329040527,0.25530150532722473,-0.360221266746521,0.06186777353286743,-0.2770450711250305,-0.42478102445602417
0.06598509848117828,-0.3027620315551758,-0.08526889234781265,0.10975460708141327,-0.23417383432388306,-0.7821318507194519
0.6411586999893188,0.44682469964027405,0.049933746457099915,-0.015675805509090424,-0.1653239130973816,-0.7597110867500305
-0.2670704126358032,0.957099974155426,0.3196936249732971,0.1479042023420334,-0.287522554397583,-0.5535082221031189
-0.637140691280365,0.3982882499694824,0.5700993537902832,0.29898926615715027,-0.4030078649520874,-0.7733972072601318
-0.12677142024040222,-0.11663944274187088,0.5145010352134705,0.10935582220554352,-0.5030062794685364,-1.0354405641555786
0.4023871421813965,-0.37966349720954895,0.43458184599876404,-0.06782515347003937,-0.4758417010307312,-0.9979872703552246
0.47241729497909546,-0.04462117329239845,0.10452071577310562,-0.025506235659122467,-0.4684005379676819,-0.8184002041816711
0.30679404735565186,-0.06863925606012344,-0.02961607649922371,0.007716439664363861,-0.2886922359466553,-0.6247116923332214
0.45795994997024536,-0.2880573272705078,0.2952825427055359,0.016273148357868195,-0.2033422589302063,-0.48997533321380615
0.5879244804382324,-0.05247359722852707,0.36086174845695496,0.008100800216197968,-0.17623376846313477,-0.3353337049484253
0.42197269201278687,0.1249423623085022,0.19473209977149963,0.009245403110980988,-0.05329030752182007,-0.12892591953277588
0.3117910325527191,-0.4852263629436493,0.32631704211235046,-0.00617159903049469,0.038749516010284424,-0.054419517517089844
0.5024310350418091,-0.6663950085639954,0.27864524722099304,-0.06910531967878342,0.09227871894836426,-0.06759363412857056
0.584535539150238,-0.2187075912952423,0.05090029165148735,-0.07155385613441467,0.1682237982749939,0.04124981164932251
0.44485342502593994,0.27579301595687866,0.04871551692485809,-0.027681488543748856,0.22649365663528442,0.21124577522277832
0.2168787270784378,-0.01105779130011797,0.11012234538793564,-0.012185990810394287,0.2042548656463623,0.278613805770874
0.3391447365283966,-0.3003450036048889,0.05032479017972946,-0.010341674089431763,0.2522108554840088,0.21550685167312622
0.7333206534385681,-0.05466105043888092,0.03409077227115631,-0.008389011025428772,0.3423604965209961,0.2524135112762451
0.6590801477432251,0.1386253833770752,0.19386518001556396,-0.05765537917613983,0.35263925790786743,0.3713388442993164
0.4202093482017517,0.39467036724090576,0.1984332650899887,-0.09837907552719116,0.3371674418449402,0.38312971591949463
0.4603145718574524,0.6870940327644348,0.05402984842658043,-0.09523460268974304,0.3383445143699646,0.43708503246307373
0.3187418282032013,0.44276759028434753,-0.05059225857257843,-0.12263692915439606,0.2724428176879883,0.5450888872146606
-0.04004935547709465,-0.2995307147502899,-0.21836064755916595,-0.12120923399925232,0.20349884033203125,0.4859554171562195
-0.10035936534404755,-0.2998160421848297,-0.413316935300827,-0.07367575168609619,0.1785447597503662,0.30839431285858154
-0.24306181073188782,-0.2072419971227646,-0.39165544509887695,-0.06664535403251648,0.16763120889663696,0.2665509581565857
-0.25707486271858215,-0.5622491240501404,-0.21419990062713623,-0.018096908926963806,0.09013932943344116,0.14611101150512695
0.029204541817307472,-0.39566031098365784,-0.25192850828170776,-0.01820388436317444,0.05443698167800903,0.0271148681640625
0.16988970339298248,-0.256320983171463,-0.17231780290603638,-0.01307322084903717,0.01995670795440674,-0.006251215934753418
0.17396195232868195,-0.16030845046043396,-0.1732398271560669,-0.008919984102249146,-0.019244611263275146,-0.1018068790435791
0.2123078852891922,0.3500908613204956,-0.4227602779865265,0.005022488534450531,0.004066348075866699,-0.1180298924446106
0.17822827398777008,0.504982054233551,-0.2887106239795685,0.07962952554225922,0.02560371160507202,-0.008592844009399414
0.20499901473522186,-0.03782624006271362,-0.10067896544933319,0.07717325538396835,0.02422356605529785,0.03607529401779175
0.19337207078933716,-0.30213525891304016,-0.18909280002117157,0.008405759930610657,0.05515402555465698,-0.03663837909698486
0.2806832194328308,-0.013228872790932655,-0.14102497696876526,-0.030975162982940674,0.12420791387557983,-0.03853714466094971
0.22372967004776,0.13115258514881134,0.19287002086639404,0.024628885090351105,0.10071343183517456,0.06794595718383789
0.07517550140619278,-0.07330296188592911,0.33231544494628906,0.03440499305725098,0.0420796275138855,0.06005823612213135
0.10389401763677597,-0.1578465849161148,0.237371027469635,-0.01501215249300003,0.01808565855026245,-0.03291195631027222
0.17659826576709747,-0.020673038437962532,0.21910712122917175,-0.023203395307064056,0.022630631923675537,-0.015010178089141846
0.02541940100491047,-0.048922955989837646,0.19088155031204224,-0.021724283695220947,-0.002704024314880371,0.03255641460418701
-0.07424567639827728,0.031604330986738205,0.03064677119255066,-0.019065871834754944,-0.008655011653900146,-0.012450158596038818
-0.10720911622047424,0.08743941783905029,-0.04189812391996384,0.0063446760177612305,0.0073392391204833984,-0.0019216537475585938
-0.07575229555368423,0.12135814130306244,0.030313607305288315,0.02712305635213852,0.018716514110565186,-0.02508687973022461
0.007807748857885599,0.13488678634166718,0.1430330127477646,0.03138238191604614,0.026065826416015625,0.02250850200653076
-0.11157569289207458,0.044059861451387405,0.20877178013324738,0.014592796564102173,0.01298588514328003,0.05797022581100464
-0.05194475129246712,-0.13722842931747437,0.1359652578830719,-0.03728197515010834,0.027157068252563477,-0.02395951747894287
0.07413063943386078,0.06684526056051254,0.016656573861837387,-0.03573565185070038,0.05526012182235718,-0.03116786479949951
-0.076085664331913,0.3803877532482147,0.0810321494936943,-0.0022234320640563965,0.1002766489982605,0.07487314939498901
-0.2748339772224426,0.35095012187957764,0.23735450208187103,-0.003222145140171051,0.10687929391860962,0.11973041296005249
-0.15540769696235657,0.08901005983352661,0.31020304560661316,-0.030806317925453186,0.1259908676147461,0.08817696571350098
0.2164987474679947,0.08814346790313721,0.21771200001239777,-0.07089768350124359,0.2078535556793213,0.14627611637115479
0.3115934729576111,0.1735539585351944,0.23207038640975952,-0.07434537261724472,0.28220856189727783,0.30091577768325806
0.08572502434253693,0.11509900540113449,0.2862372100353241,-0.06051967293024063,0.30925530195236206,0.3711451292037964
-0.009427324868738651,0.252424955368042,0.32188981771469116,-0.011188387870788574,0.31560492515563965,0.3778681755065918
0.09853211045265198,0.4092763066291809,0.31299304962158203,-0.017636731266975403,0.367254376411438,0.39850908517837524
0.1845473200082779,0.417790949344635,0.3745763897895813,-0.1011357381939888,0.4003353714942932,0.3828688859939575
0.05424060299992561,0.5531960129737854,0.2519281506538391,-0.1315724402666092,0.3556573987007141,0.38332539796829224
-0.24087563157081604,0.5357189774513245,-0.17723658680915833,-0.096646249294281,0.3331787586212158,0.3497941493988037
-0.2861591875553131,0.6683449745178223,-0.46521860361099243,-0.05311445891857147,0.3718106150627136,0.30520254373550415
-0.25501078367233276,0.660118579864502,-0.30571362376213074,-0.0010540634393692017,0.3488765358924866,0.22740012407302856
-0.09595944732427597,0.44421592354774475,-0.21148838102817535,0.015997380018234253,0.28484195470809937,0.11723583936691284
-0.23044152557849884,0.38498854637145996,-0.36520710587501526,0.06616967916488647,0.25003618001937866,0.043722569942474365
-0.5764103531837463,1.3317831754684448,-0.1810128539800644,0.14102908968925476,0.10493463277816772,0.029841363430023193
-1.7374029159545898,1.3638733625411987,-0.10811367630958557,0.046899303793907166,-0.10532349348068237,-0.10198652744293213
-1.5943306684494019,1.138578176498413,-0.21164104342460632,0.17890632152557373,-0.19010710716247559,-0.5423054695129395
-0.7818052768707275,0.46205106377601624,0.24851469695568085,0.21251794695854187,-0.31003475189208984,-0.5378283262252808
-0.7412773966789246,0.033400412648916245,0.33598631620407104,0.0707923173904419,-0.4441661834716797,-0.5013827085494995
-0.7666232585906982,0.0055840881541371346,-0.15964795649051666,0.07429566979408264,-0.5541378259658813,-0.6743813157081604
-0.25017085671424866,0.6484661102294922,-0.3009171485900879,0.16878420114517212,-0.5569791793823242,-0.8070849776268005
0.036237362772226334,0.37150120735168457,0.18268096446990967,0.3009738326072693,-0.5771316289901733,-0.6222555637359619
-0.10760502517223358,-0.2778465747833252,0.302285373210907,0.25370195508003235,-0.6336616277694702,-0.6559553146362305
-0.22151349484920502,-0.264306902885437,-0.16042952239513397,0.1713101863861084,-0.6444269418716431,-0.9459893107414246
0.28722283244132996,0.13432025909423828,-0.29343730211257935,0.23744460940361023,-0.5198057293891907,-0.9845970869064331
0.9013346433639526,-0.9052264094352722,0.252715140581131,0.44280755519866943,-0.4071539640426636,-0.6927516460418701
0.8213316798210144,-1.5096993446350098,0.5564838647842407,0.24401257932186127,-0.39045286178588867,-0.6654587388038635
0.629872739315033,-0.5727763175964355,0.22982817888259888,-0.023292556405067444,-0.2909160852432251,-0.6389919519424438
0.5085670351982117,0.07031197845935822,0.06482183933258057,-0.0012651383876800537,-0.17758941650390625,-0.38140225410461426
0.5142542719841003,-0.46844127774238586,0.24094314873218536,0.055333301424980164,-0.07201069593429565,-0.19888126850128174
0.7711687684059143,-0.980566143989563,0.3603854179382324,0.007648542523384094,0.0010214447975158691,-0.1627194881439209
0.7119916677474976,-0.8928707838058472,0.30965062975883484,-0.04091691970825195,0.03973740339279175,-0.012194931507110596
0.3851104974746704,-0.8221397995948792,0.3063584864139557,-0.0182354673743248,0.09907758235931396,0.12262266874313354
0.25514787435531616,-0.7031532526016235,0.14207495748996735,-0.038254112005233765,0.12544310092926025,0.14264148473739624
0.1840716153383255,-0.7787765860557556,-0.10064320266246796,-0.02849544584751129,0.1452425718307495,0.11086595058441162
0.3470134437084198,-0.823468804359436,-0.20257462561130524,-0.026905059814453125,0.22032272815704346,0.12827622890472412
0.49382317066192627,-0.6440533995628357,-0.23258493840694427,-0.03842942416667938,0.27004051208496094,0.19780421257019043
0.4833731949329376,-0.5855176448822021,-0.31400126218795776,-0.02509978786110878,0.296548068523407,0.27341145277023315
0.40011879801750183,-0.7813486456871033,-0.42542630434036255,-0.027487576007843018,0.3088207244873047,0.4014204740524292
-0.05800541490316391,-1.1379858255386353,-0.31325310468673706,-0.018689468502998352,0.3524191379547119,0.5132250785827637
-0.3403330147266388,-1.000047206878662,0.007738563232123852,-0.027849912643432617,0.3732866644859314,0.42461127042770386
-0.2152847796678543,-0.727082371711731,-0.3667346239089966,-0.034751757979393005,0.3294282555580139,0.2514651417732239
-0.022122139111161232,-0.4067251682281494,-0.7479479908943176,-0.04977026581764221,0.28912150859832764,0.19077438116073608
0.1230357363820076,-0.24114388227462769,-0.8060643076896667,-0.026615142822265625,0.3227142095565796,0.10791468620300293
0.315068781375885,0.15692389011383057,-0.42763403058052063,0.0026540448889136314,0.302870512008667,0.16132527589797974
0.30238378047943115,0.22993327677249908,-0.07155181467533112,0.07846590876579285,0.17596757411956787,0.21024686098098755
0.02576485462486744,0.1300751268863678,0.05102971941232681,0.04511508345603943,0.1364726424217224,0.22081661224365234
-0.18656136095523834,0.05140280723571777,0.03226234018802643,-0.03628072142601013,0.10492324829101562,0.15842312574386597
-0.27215784788131714,-0.04020914062857628,-0.04920859634876251,-0.01490168459713459,0.04299581050872803,0.04686504602432251
-0.24203363060951233,-0.09407424926757812,-0.04476495832204819,-0.03696185350418091,0.03428560495376587,0.03727078437805176
-0.36355796456336975,-0.027475588023662567,-0.18220993876457214,-0.06901924312114716,-0.010892689228057861,0.02643132209777832
-0.4152022898197174,0.06928734481334686,-0.24780510365962982,-0.032938405871391296,0.0023969411849975586,-0.012348532676696777
-0.4509226381778717,0.09490479528903961,-0.12716104090213776,-0.019426479935646057,0.016367018222808838,0.01658046245574951
-0.3064327538013458,-0.04627298563718796,0.058768272399902344,-0.02367699146270752,-0.014749109745025635,-0.0491633415222168
0.06444768607616425,-0.027350200340151787,-0.07416719198226929,-0.03829215466976166,-0.039125680923461914,-0.1168404221534729
0.14056220650672913,-0.008569029159843922,-0.10581226646900177,-0.01718743145465851,0.001522660255432129,0.01204991340637207
0.0620734840631485,-0.24185281991958618,0.033448681235313416,-0.01998056471347809,-0.018870115280151367,-0.012301921844482422
0.08069712668657303,-0.046963635832071304,-0.13149933516979218,-0.034820426255464554,-0.014171481132507324,-0.044535696506500244
-0.172952339053154,0.1821748912334442,-0.13071496784687042,-0.01756814494729042,0.010347366333007812,0.048768460750579834
-0.17102065682411194,-0.08396490663290024,-0.033288486301898956,-0.03121531382203102,0.013506114482879639,-0.026930510997772217
0.13563701510429382,0.0032299563754349947,-0.13109511137008667,-0.008696109056472778,0.018885910511016846,-0.07722628116607666
0.1518019288778305,0.09127568453550339,-0.036138564348220825,0.0037804841995239258,0.05476945638656616,0.04561823606491089
-0.020875031128525734,-0.035727083683013916,0.1329411417245865,0.0031103789806365967,0.030488669872283936,0.06138181686401367
-0.09746973216533661,-0.07037954777479172,-0.07843402773141861,-0.04240436851978302,-0.00046443939208984375,0.04348188638687134
-0.1621672809123993,0.028760995715856552,-0.17526328563690186,-0.005752388387918472,0.03480011224746704,0.07035094499588013
-0.14312787353992462,-0.10562644898891449,-0.05070701241493225,0.007758062332868576,0.0674968957901001,0.08227849006652832
-0.1003679484128952,-0.1657288670539856,-0.005842137150466442,-0.011086493730545044,0.06410712003707886,0.0721445083618164
-0.1210547462105751,-0.1698841154575348,-0.03532867506146431,-0.016372714191675186,0.0962296724319458,0.09478449821472168
-0.09288015216588974,-0.11184675246477127,0.00076287891715765,-0.01502978801727295,0.16388213634490967,0.13214868307113647
-0.057214248925447464,-0.0911974161863327,0.1507498174905777,-0.015922535210847855,0.22644656896591187,0.19462436437606812
0.005365305580198765,-0.15503229200839996,0.2699750065803528,-0.020451530814170837,0.27689749002456665,0.24347972869873047
0.10666784644126892,-0.05670813471078873,0.2553432285785675,-0.05061013996601105,0.33959102630615234,0.30291879177093506
0.18290013074874878,0.10842694342136383,0.2781951427459717,-0.05689248442649841,0.3708030581474304,0.3258165121078491
0.1858353167772293,0.3062439262866974,0.28473445773124695,-0.012082562781870365,0.3614354133605957,0.3832852840423584
0.05001165345311165,0.639613151550293,0.21144762635231018,0.008856624364852905,0.3550059199333191,0.45583629608154297
-0.2667943835258484,0.5841902494430542,0.10615254938602448,-0.01817244291305542,0.3787723779678345,0.5212026834487915
-0.6424145102500916,-0.05722508579492569,-0.012078078463673592,-0.010612282902002335,0.34063583612442017,0.4496619701385498
-0.6500637531280518,-0.21845951676368713,-0.1437174379825592,-0.04379837214946747,0.35350143909454346,0.33790332078933716
-0.5152369737625122,0.3293609619140625,-0.09461326897144318,-0.05549962818622589,0.36047446727752686,0.3219171166419983
-0.2859114110469818,0.9463688731193542,0.11104101687669754,-0.01250024139881134,0.3321804404258728,0.27304816246032715
-0.27540844678878784,1.2637560367584229,0.19449175894260406,0.1161922812461853,0.23578238487243652,0.19208163022994995
-0.6599408984184265,1.4392181634902954,0.5391224026679993,0.06656772643327713,0.12866270542144775,-0.0630599856376648
-1.3206931352615356,0.9023621082305908,0.9791434407234192,0.036811016499996185,-0.11586612462997437,-0.3079635500907898
-1.0945159196853638,0.34069234132766724,0.519788920879364,0.08122647553682327,-0.354028582572937,-0.6423301696777344
-0.3537800908088684,0.505065381526947,-0.38511353731155396,0.020167894661426544,-0.3931998014450073,-0.7254071235656738
0.26307204365730286,0.19397208094596863,-0.37610265612602234,0.10791532695293427,-0.38025766611099243,-0.7514849901199341
0.3678475618362427,0.6990847587585449,-0.08736730366945267,0.1468610167503357,-0.35163414478302,-0.5748688578605652
-0.12903960049152374,0.8278407454490662,0.10572558641433716,0.10414128005504608,-0.33724772930145264,-0.4629064202308655
0.0327935628592968,0.6754509210586548,0.21039177477359772,0.09004436433315277,-0.4301382899284363,-0.49438148736953735
0.023355215787887573,-0.12279655039310455,0.21032610535621643,0.18222081661224365,-0.6751642227172852,-0.592182457447052
-0.14317655563354492,-0.7892601490020752,0.28370973467826843,0.20292295515537262,-0.663851797580719,-0.8950664401054382
-0.053111907094717026,-0.22405986487865448,0.6376497745513916,0.08289694786071777,-0.6215471029281616,-0.9075214266777039
0.13198332488536835,0.6797824501991272,0.35391759872436523,-0.05325345695018768,-0.6753547191619873,-0.9836621880531311
0.47631192207336426,0.37515538930892944,-0.3031477630138397,0.05893574655056,-0.5885486006736755,-0.7334598898887634
0.6441439986228943,-0.862575888633728,-0.2884969711303711,0.0781533420085907,-0.47666090726852417,-0.6496491432189941
1.0389233827590942,-0.8409234881401062,-0.49542418122291565,-0.0010483413934707642,-0.1625053882598877,-0.5246932506561279
0.921851634979248,-0.2986893355846405,-0.15010598301887512,0.022772490978240967,-0.03694415092468262,-0.21760010719299316
0.3190816640853882,-0.4727552533149719,0.1876867711544037,0.05360877513885498,-0.027131497859954834,-0.023950159549713135
0.22145646810531616,-0.8210815191268921,0.16449905931949615,0.03556428104639053,-0.064048171043396,-0.10786175727844238
0.21868173778057098,-0.5417216420173645,-0.15360049903392792,-0.034949928522109985,-0.025946855545043945,-0.053542912006378174
-0.12970712780952454,-0.33216553926467896,-0.20035557448863983,-0.005774945020675659,0.018681645393371582,0.1661965250968933
-0.24133965373039246,-1.3403538465499878,-0.23031054437160492,0.12736757099628448,0.014902770519256592,0.0032444000244140625
0.3114585876464844,-1.4333022832870483,-0.5770856142044067,0.02770855650305748,0.15898853540420532,-0.0893140435218811
0.4981807470321655,-1.0657752752304077,-0.5394132137298584,0.015047727152705193,0.27098655700683594,0.13960832357406616
0.3176327049732208,-0.820111870765686,-0.32040536403656006,-0.036353930830955505,0.31319624185562134,0.2617802619934082
0.2772504985332489,-0.5048697590827942,-0.49060171842575073,-0.047052860260009766,0.31710851192474365,0.2413368821144104
0.44531017541885376,-0.07596495002508163,-0.745855450630188,-0.052822113037109375,0.35816121101379395,0.33373433351516724
0.5226073265075684,-0.4216753840446472,-0.8956026434898376,-0.018091917037963867,0.36362797021865845,0.44859808683395386
0.584963321685791,-0.6073665618896484,-0.7179111838340759,0.009141620248556137,0.3691102862358093,0.3634718060493469
0.4118392765522003,-0.03970497474074364,-0.462547242641449,0.025036152452230453,0.3659277558326721,0.37015867233276367
0.14243046939373016,0.22483491897583008,-0.1736665666103363,0.002640336751937866,0.3015087842941284,0.3254929780960083
0.003966070711612701,0.18899568915367126,-0.12057165056467056,-0.07173013687133789,0.2011563777923584,0.3041846752166748
-0.02732709050178528,-0.08094454556703568,-0.2784910500049591,-0.03772610425949097,0.14170408248901367,0.25959473848342896
0.17276537418365479,-0.45791661739349365,-0.24513870477676392,-0.0051594078540802,0.09212684631347656,0.07435834407806396
0.3242531716823578,-0.22389429807662964,-0.2655147910118103,-0.06339696049690247,0.0778093934059143,0.025059878826141357
0.08458678424358368,0.09289459139108658,-0.32077428698539734,-0.07610059529542923,0.04203230142593384,0.08483773469924927
0.03269161656498909,-0.12991000711917877,-0.39327728748321533,-0.0641317367553711,0.020259499549865723,0.016557753086090088
0.3511457145214081,-0.24889153242111206,-0.3504144549369812,-0.07536691427230835,0.037995338439941406,-0.042107224464416504
0.5676422119140625,-0.07383278757333755,-0.15946216881275177,-0.040875911712646484,0.06387537717819214,0.06712335348129272
0.45183271169662476,-0.1758863627910614,0.06434626132249832,-0.030450642108917236,0.045746564865112305,0.14996397495269775
0.1121264100074768,-0.5356555581092834,-0.07220783084630966,-0.0910109356045723,0.020161330699920654,0.1423426866531372
-0.029116567224264145,-0.5534722805023193,-0.29846876859664917,-0.04623592644929886,0.06174260377883911,0.04995352029800415
-0.0508253276348114,-0.4810754358768463,-0.2840789556503296,0.03211060166358948,0.09856057167053223,-0.004233062267303467
-0.0360599085688591,-0.4285372793674469,-0.13468080759048462,0.035066068172454834,0.10447442531585693,-0.07833319902420044
0.018638063222169876,-0.25489541888237,-0.16560634970664978,0.023639589548110962,0.08459222316741943,-0.09858375787734985
0.004680592101067305,-0.06221776083111763,-0.25808557868003845,0.025686055421829224,0.08526372909545898,-0.09311467409133911
-0.0011053916532546282,0.20976954698562622,-0.15937474370002747,0.04145899415016174,0.0634763240814209,-0.0453333854675293
-0.05031831935048103,0.27238091826438904,-0.028433209285140038,0.010322391986846924,0.03155797719955444,0.04105687141418457
-0.06222349405288696,0.055298399180173874,0.027364429086446762,0.018174350261688232,-0.005121409893035889,0.048389315605163574
0.013388226740062237,-0.138972207903862,0.026292279362678528,0.024579554796218872,-0.015237569808959961,0.05187392234802246
0.033657968044281006,-0.28620418906211853,0.0023502877447754145,-0.03388359397649765,-0.014137446880340576,0.02346515655517578
-0.015317771583795547,-0.2231113463640213,-0.1266370266675949,-0.043200135231018066,-0.030185401439666748,0.00031280517578125
-0.05016795173287392,-0.11918657273054123,-0.15571549534797668,0.004479639232158661,-0.0027323365211486816,-0.00040024518966674805
-0.005191957578063011,-0.11915630102157593,-0.11552431434392929,0.030996225774288177,0.01035374402999878,0.02774757146835327
-0.002859394531697035,-0.17136380076408386,-0.17066262662410736,0.013691365718841553,0.017279744148254395,0.05185824632644653
-0.09401845186948776,-0.1458456814289093,-0.13716763257980347,0.03704974055290222,0.060688912868499756,0.06796401739120483
-0.2037295401096344,-0.09860672801733017,-0.020714793354272842,0.03354200720787048,0.08101862668991089,0.08806741237640381
-0.3419855535030365,0.027583163231611252,0.033830106258392334,0.03767579793930054,0.07916891574859619,0.12744343280792236
-0.42265599966049194,-0.08255871385335922,0.09665395319461823,0.033353984355926514,0.0442042350769043,0.17203915119171143
-0.41758856177330017,-0.35123488306999207,0.14960914850234985,0.008720573037862778,0.06990468502044678,0.14496839046478271
-0.17140373587608337,-0.2692151963710785,0.2774115204811096,0.0006354749202728271,0.08225405216217041,0.06011247634887695
0.31687799096107483,0.07021698355674744,0.4446367025375366,-0.056211743503808975,0.11181014776229858,0.06209844350814819
0.9008014798164368,-0.028089050203561783,0.23430895805358887,-0.07833904027938843,0.23041367530822754,0.21530777215957642
1.0855683088302612,-0.2777213454246521,0.04705152288079262,-0.049756020307540894,0.35509300231933594,0.3303889036178589
0.8143942952156067,-0.22202351689338684,0.09844665974378586,-0.00032973289489746094,0.44566577672958374,0.3385019302368164
0.47098618745803833,-0.05470505356788635,0.2602613568305969,0.008169442415237427,0.4842958450317383,0.34995198249816895
0.07825351506471634,0.07294058054685593,0.29112449288368225,0.018906116485595703,0.4663383364677429,0.3356392979621887
-0.1279693841934204,-0.2107415646314621,0.3198905885219574,0.07367423176765442,0.4523344039916992,0.21102875471115112
0.18533730506896973,0.06677458435297012,0.28859835863113403,0.004444628953933716,0.4923468828201294,0.06655663251876831
0.20687885582447052,0.6907286643981934,0.20866385102272034,0.011041611433029175,0.4716324806213379,0.09109854698181152
-0.40075433254241943,0.8668205738067627,0.23509551584720612,0.08249738812446594,0.36461108922958374,0.1259005069732666
-0.9636489748954773,0.8874109983444214,-0.024987496435642242,0.040958940982818604,0.3286309242248535,0.03089052438735962
-1.0116597414016724,1.3787269592285156,-0.053037356585264206,0.032868027687072754,0.2592052221298218,-0.02871263027191162
-0.9325757622718811,1.1740832328796387,0.18896827101707458,0.122540682554245,0.18221551179885864,-0.028305351734161377
-0.6878827214241028,1.0104262828826904,0.3918660581111908,0.030259430408477783,0.17108362913131714,0.07161152362823486
-1.675593614578247,1.2294306755065918,0.48259350657463074,-0.1307963728904724,-0.032190561294555664,0.09285736083984375
-2.691620111465454,0.6445622444152832,0.42847999930381775,-0.09806298464536667,-0.24578970670700073,-0.34320521354675293
-1.7663214206695557,0.411080539226532,0.4449957609176636,-0.10379070043563843,-0.4719166159629822,-0.9537627696990967
-1.1464107036590576,0.42534857988357544,0.19872820377349854,-0.04367847740650177,-0.6830176115036011,-0.9843908548355103
-1.0958536863327026,0.44358351826667786,0.26418519020080566,-0.03794029355049133,-0.8104848265647888,-1.0097103118896484
-1.0556440353393555,0.7143909335136414,0.24440819025039673,0.08468285948038101,-0.8086055517196655,-0.9459841847419739
-0.6654099822044373,0.4089950621128082,0.6421800851821899,0.149519681930542,-0.9215317964553833,-1.0173567533493042
-0.14737460017204285,-0.0776599571108818,0.6518524289131165,0.03656117618083954,-0.8749148845672607,-0.9832556247711182
0.5103346109390259,-0.6209051012992859,-0.519884467124939,0.11290613561868668,-0.6748580932617188,-1.0998144149780273
1.2165582180023193,-0.32854562997817993,-1.0303224325180054,0.11992962658405304,-0.33548736572265625,-0.9445263147354126
0.8918214440345764,-0.2256995439529419,0.0846637487411499,0.16316865384578705,-0.14538896083831787,-0.5409887433052063
0.5325524806976318,-0.3021024167537689,0.6959813237190247,0.06112086772918701,-0.19748342037200928,-0.486294150352478
0.744794487953186,-0.19926203787326813,-0.05551019683480263,-0.10260328650474548,-0.09943997859954834,-0.4232614040374756
0.7008768916130066,-0.49961066246032715,-0.28492894768714905,-0.07159054279327393,0.004466354846954346,-0.19167208671569824
0.580882728099823,-0.614838719367981,-0.007295947056263685,-0.055686041712760925,0.06448620557785034,-0.09082251787185669
0.2586674094200134,-0.2294975072145462,-0.05267982929944992,-0.09580986201763153,0.08048659563064575,0.03466761112213135
-0.1735060214996338,-0.03413815423846245,-0.30056750774383545,-0.08970743417739868,0.11450648307800293,0.19472849369049072
-0.2191331684589386,-0.47295883297920227,-0.27464786171913147,-0.030269727110862732,0.18305855989456177,0.18013858795166016
0.20482440292835236,-0.5220697522163391,-0.29805171489715576,-0.07094798982143402,0.23930853605270386,0.1422441601753235
0.3237476050853729,-0.6759301424026489,-0.2839372754096985,-0.009671110659837723,0.29628753662109375,0.27788645029067993
0.25342267751693726,-0.9274040460586548,-0.007624334190040827,-0.005463883280754089,0.30832457542419434,0.3232152462005615
0.5701860785484314,-0.7977761030197144,-0.1256750524044037,-0.07876896858215332,0.2971875071525574,0.25434237718582153
0.8312629461288452,-0.43567734956741333,-0.2755580544471741,-0.05296769738197327,0.3373376131057739,0.3388131260871887
0.6189985275268555,-0.13821661472320557,-0.22208312153816223,0.026031911373138428,0.33174002170562744,0.42505472898483276
0.327569842338562,-0.03215329349040985,-0.20485886931419373,0.04076719284057617,0.29411882162094116,0.4547698497772217
0.07126100361347198,-0.3764967918395996,-0.35422593355178833,0.018681198358535767,0.264548659324646,0.40946388244628906
-0.05250876396894455,-0.39658060669898987,-0.48510903120040894,0.04892638325691223,0.2007378339767456,0.24562221765518188
0.08506789803504944,0.1452670693397522,-0.5895146727561951,0.04943650960922241,0.2110968828201294,0.17028558254241943
0.19959601759910583,-0.0321703776717186,-0.33130866289138794,0.04748302698135376,0.21561509370803833,0.1670994758605957
0.4517197608947754,-0.2821063697338104,-0.13868267834186554,0.01659032702445984,0.09864044189453125,0.07169640064239502
0.3895421624183655,-0.07451917231082916,-0.4522514343261719,-0.010739564895629883,0.09164243936538696,0.09264689683914185
0.28401312232017517,0.15905752778053284,-0.33063796162605286,0.051071614027023315,0.10070538520812988,0.08439517021179199
0.223668172955513,0.11210575699806213,-0.0035135922953486443,0.04207742214202881,0.07104480266571045,0.07990741729736328
0.24370115995407104,0.04985160753130913,-0.1241302639245987,-0.04739648476243019,0.004276752471923828,0.037983238697052
0.16775809228420258,0.07668792456388474,-0.26339924335479736,-0.004117373377084732,0.01843053102493286,0.060494303703308105
-0.03559023514389992,0.06177283823490143,-0.059226445853710175,0.01324736699461937,0.039293110370635986,0.057458698749542236
-0.08024080097675323,0.07087215781211853,0.04835608974099159,-0.06023663282394409,0.004233121871948242,-0.02704763412475586
0.021764926612377167,0.2326539158821106,-0.15659482777118683,-0.07101574540138245,0.009918689727783203,0.003028571605682373
-0.03203454986214638,0.13464772701263428,-0.11715762317180634,0.01974347233772278,0.018264412879943848,0.0760723352432251
-0.11245503276586533,0.012402839958667755,0.006749223917722702,0.011060744524002075,0.0017807483673095703,0.00845646858215332
0.02361854538321495,0.04281866177916527,0.08616673946380615,0.01997610181570053,0.006144523620605469,-0.058763325214385986
0.03389525040984154,0.03917720541357994,0.16304796934127808,-0.0006888806819915771,0.005612969398498535,-0.0035167336463928223
-0.11159275472164154,-0.06098822131752968,0.15593065321445465,-0.02861395850777626,-0.03139740228652954,-0.016477346420288086
-0.006838908419013023,0.09361825883388519,-0.012345679104328156,-0.052400171756744385,-0.007801175117492676,-0.06024622917175293
0.03634387254714966,0.138067826628685,-0.04698452353477478,0.00018128752708435059,0.02269148826599121,0.005617499351501465
-0.0026284593623131514,-0.00947482232004404,0.06755523383617401,0.02449682354927063,0.029922068119049072,0.04178810119628906
0.005203736945986748,0.028212467208504677,0.07963638007640839,-0.01426917314529419,0.018649399280548096,0.03621876239776611
-0.09015068411827087,0.03651910275220871,-0.029329361394047737,-0.0422913134098053,0.023670494556427002,0.06265634298324585
-0.14713242650032043,-0.08427555114030838,0.018144164234399796,0.018497228622436523,0.018824458122253418,0.02256464958190918
-0.18110887706279755,-0.07052166014909744,0.05623529851436615,-0.03780946135520935,0.020772218704223633,-0.022649288177490234
-0.14059270918369293,0.09110734611749649,-0.012808464467525482,-0.034611284732818604,-0.011324465274810791,-0.01587134599685669
-0.130268856883049,-0.01079530268907547,-0.13444669544696808,-0.017239660024642944,-0.005117297172546387,0.10042881965637207
-0.24861568212509155,-0.14055299758911133,-0.06849675625562668,0.007531166076660156,0.036284685134887695,0.13413023948669434
-0.2758089303970337,-0.12795129418373108,0.045269183814525604,-0.00702536478638649,0.061600565910339355,0.10347217321395874
-0.3041045367717743,-0.042726270854473114,0.02931484952569008,-0.02689361572265625,0.09339785575866699,0.12563586235046387
-0.32185375690460205,-0.10775483399629593,0.009532148018479347,-0.02215227484703064,0.15340012311935425,0.17067116498947144
-0.20641738176345825,-0.34456488490104675,-0.017367105931043625,-0.018406271934509277,0.2622727155685425,0.14404296875
0.19088055193424225,-0.26881203055381775,-0.026656026020646095,-0.05973747372627258,0.4144432544708252,0.14656519889831543
0.390241801738739,0.13632838428020477,0.02871139720082283,-0.011451486498117447,0.4673369526863098,0.23373150825500488
0.2324560135602951,0.5713306069374084,0.1673557311296463,0.056247979402542114,0.48373186588287354,0.3661247491836548
-0.01988116092979908,0.5656624436378479,0.4752947688102722,0.10628935694694519,0.4655539393424988,0.4448935389518738
-0.20239387452602386,0.4787900447845459,0.9002284407615662,0.06364062428474426,0.3892361521720886,0.4234214425086975
-0.4044959843158722,0.6607685685157776,0.9837980270385742,0.005315005779266357,0.30969393253326416,0.3706256151199341
-0.674956738948822,0.511792778968811,0.7978355884552002,-0.03677574172616005,0.27344900369644165,0.335107684135437
-0.8665536046028137,0.5164216160774231,0.5298677086830139,-0.03615301847457886,0.2202070951461792,0.3080381751060486
-1.1060892343521118,0.3994669020175934,0.3455781638622284,0.004290789365768433,0.1604781150817871,0.23237228393554688
-0.9898106455802917,-0.06972700357437134,0.2968846261501312,-0.05741998553276062,0.09369009733200073,0.024574220180511475
-0.6561748385429382,-0.15067441761493683,0.18255694210529327,-0.061256587505340576,0.018275439739227295,-0.047289490699768066
-0.6106311082839966,-0.0025542560033500195,0.11690649390220642,0.008432149887084961,-0.04913896322250366,-0.08734250068664551
-0.5026349425315857,-0.045935992151498795,0.18989847600460052,0.08442148566246033,-0.08646976947784424,-0.20000600814819336
-0.41140514612197876,-0.015212701633572578,0.3098357915878296,-0.015367136336863041,-0.12855708599090576,-0.24350911378860474
